"Time (s)","Linear Acceleration x (m/s^2)","Linear Acceleration y (m/s^2)","Linear Acceleration z (m/s^2)","Absolute acceleration (m/s^2)"
5.564749998E-3,4.628697937E-2,-2.747582954E0,-1.887662476E-1,2.754448633E0
1.553475001E-2,-1.433543150E0,-6.157140301E0,2.508882362E0,6.801464060E0
2.550475002E-2,1.504939919E-2,-3.688551395E0,9.864118320E0,1.053121399E1
3.547474998E-2,1.957885197E0,3.301481214E0,5.845167373E0,6.992787303E0
4.544474999E-2,4.282478817E-1,5.236652318E0,9.651659739E-1,5.342047276E0
5.541475001E-2,1.211387182E0,-1.029795249E0,2.463600939E0,2.932109606E0
6.538475002E-2,1.649678460E0,-1.930180505E0,-3.629653269E-1,2.564913182E0
7.535474998E-2,3.157679470E0,-3.743767530E-1,-3.197506025E0,4.509450340E0
8.532575000E-2,5.853559881E-1,1.961656944E0,-1.115108464E0,2.331138452E0
9.529575001E-2,-2.742908690E0,-3.209241387E-1,-3.089838320E-1,2.778850732E0
1.052657500E-1,-1.075474428E0,6.251579851E-2,-2.023604393E-1,1.096131022E0
1.152357500E-1,-4.248937726E-1,-4.704254562E-1,-3.907195453E0,3.958283862E0
1.252057500E-1,4.885135985E-1,2.684102365E0,-3.126585147E0,4.149528373E0
1.351757500E-1,-4.377995643E-1,2.132990887E0,-7.169692111E-1,2.292457946E0
1.451457500E-1,-7.702222891E-1,9.025311846E-1,-1.266078894E0,1.735154368E0
1.551157500E-1,5.202187732E-1,5.838535461E-1,6.440696347E-1,1.013083525E0
1.650857500E-1,-2.338366444E0,1.417687548E0,1.891618118E0,3.325058603E0
1.750557500E-1,-8.432686307E-1,1.790549287E0,1.993799965E0,2.809342812E0
1.850257500E-1,-9.949493515E-1,8.421531281E-1,1.046867364E0,1.671848492E0
1.949957500E-1,-5.801778036E-1,1.152274536E0,-1.631849130E0,2.080210200E0
2.049667500E-1,-2.832346677E-1,1.770089588E-1,-1.590100595E0,1.624799665E0
2.149367500E-1,-1.713292805E0,-3.135323811E-1,-2.194381682E0,2.801604139E0
2.249067500E-1,-1.389104019E0,1.275503436E0,-2.652439692E0,3.254528432E0
2.348767500E-1,-1.626448057E0,2.802734477E0,-4.184792016E0,5.292743905E0
2.448467500E-1,-8.941465697E-1,2.150778117E0,-1.391401098E0,2.713179245E0
2.548167500E-1,-1.004721511E0,-6.292995679E-1,-5.957096529E-1,1.326783046E0
2.647867500E-1,-1.688565514E0,-2.272824126E0,-1.558331503E0,3.231931323E0
2.747567500E-1,-1.301904054E0,-1.088369147E0,-2.409180903E0,2.946804063E0
2.847267500E-1,-5.620917443E-2,-9.673931783E-1,1.319714819E0,1.637270972E0
2.946967500E-1,-2.035808702E0,-7.756778875E-1,3.604356460E0,4.211600497E0
3.046667500E-1,-1.450765466E-1,2.312813234E0,3.145028434E0,3.906578569E0
3.146367500E-1,1.005104576E-1,2.418952770E0,2.759058407E0,3.670672710E0
3.246077500E-1,-1.267122037E0,-2.490630863E0,2.504818547E0,3.752726516E0
3.345777500E-1,5.746760853E-1,-3.104148503E0,2.325858665E-1,3.165452056E0
3.445477500E-1,6.332696812E-1,-1.716611830E0,-3.481268477E-1,1.862519521E0
3.545177500E-1,-6.996942703E-2,-3.112375243E0,2.148417889E0,3.782522280E0
3.644877500E-1,-4.430983842E-1,-3.100404823E0,5.238991789E0,6.103759596E0
3.744577500E-1,-7.818778364E-1,-1.953203332E0,2.385721289E0,3.180880739E0
3.844277500E-1,9.193023878E-1,-9.543185118E-1,2.672271109E-1,1.351758496E0
3.943977500E-1,-5.002442826E-2,-8.849471453E-1,3.129485950E0,3.252586080E0
4.043677500E-1,-3.666641293E-1,-2.080612114E0,-6.600471514E-1,2.213380129E0
4.143377500E-1,-3.015689047E-1,-9.072560272E-1,-4.982423567E0,5.073322571E0
4.243077500E-1,-1.237840205E0,-2.492995477E-1,-3.914113294E0,4.112746225E0
4.342777500E-1,-2.111979795E0,2.267052340E0,1.170329568E0,3.312047141E0
4.442487500E-1,-8.725601113E-1,-5.151128018E-1,1.968684420E0,2.214141073E0
4.542187500E-1,-1.560096631E0,4.615996689E-1,-4.455303508E-1,1.686853001E0
4.641887500E-1,-9.666852633E-2,1.827688755E0,-3.612300487E0,4.049506859E0
4.741587500E-1,1.834291577E0,1.347304906E0,-4.711541947E0,5.232445280E0
4.841287500E-1,-6.514111063E-1,-1.243011044E0,-4.460176578E0,4.675744645E0
4.940987500E-1,2.634811287E-1,-2.269520449E0,-4.842773931E0,5.354680637E0
5.040687500E-1,2.875185572E-2,-1.297768756E0,-4.930665184E0,5.098675276E0
5.140387500E-1,-2.775987266E0,-5.422178623E-1,-1.399538668E0,3.155758862E0
5.240087500E-1,2.729937080E-3,8.873962516E-1,5.468640014E0,5.540171763E0
5.339787500E-1,1.073753812E-1,-3.319736221E-1,6.103244176E0,6.113209094E0
5.439487500E-1,1.909685100E-1,9.437046459E-1,2.605400596E0,2.777617630E0
5.539187500E-1,2.527137077E0,2.343198875E0,5.921767652E-2,3.446811498E0
5.638897500E-1,1.529758938E0,1.870748820E0,-7.279052585E-1,2.523828366E0
5.738597500E-1,2.210768942E0,3.150253799E0,-4.450609363E0,5.883835655E0
5.838297500E-1,2.084158889E0,6.413772842E-1,-4.143308360E0,4.682102868E0
5.937997500E-1,2.194060670E0,-9.968748397E-1,-4.413612276E0,5.028681237E0
6.037697500E-1,1.036370150E0,6.163892081E-1,-2.831855072E0,3.077889195E0
6.137397500E-1,1.968957924E0,-1.380794541E0,2.122876666E0,3.207802084E0
6.237097500E-1,1.703453841E0,-1.955756519E0,3.486032204E0,4.345015429E0
6.336797500E-1,5.673869828E-1,7.557552543E-1,4.519520554E0,4.617267594E0
6.436497500E-1,2.118445061E0,4.377439646E0,2.897710508E0,5.660964010E0
6.536197500E-1,1.213571921E0,2.405365302E0,1.813995745E0,3.247940826E0
6.635897500E-1,9.579153534E-1,-1.503160392E0,2.538923017E0,3.102132021E0
6.735597500E-1,1.799266024E0,1.766566640E-1,7.041924602E-1,1.940219788E0
6.835307500E-1,1.109622460E0,7.423303396E-2,3.328176677E-2,1.112600657E0
6.935007500E-1,1.291612479E-1,-4.547262669E-1,1.028741580E0,1.132151865E0
7.034707500E-1,-7.901897266E-1,2.184790201E0,1.571035749E-1,2.328602491E0
7.134407500E-1,-1.013689239E0,-1.232679598E0,1.399804716E0,2.122856121E0
7.234107500E-1,-1.976086849E0,-4.024129826E-1,6.355525804E-1,2.114422504E0
7.333807500E-1,-2.602110368E0,2.568134537E0,1.255420589E0,3.865536731E0
7.433507500E-1,-1.077754257E0,1.174542195E0,1.824834729E0,2.423040527E0
7.533207500E-1,-2.591635081E0,-1.949093616E0,3.369814700E-1,3.260229260E0
7.632907500E-1,-2.773632300E0,-1.086055111E0,-1.351680377E0,3.271023033E0
7.732607500E-1,-1.981643019E0,-1.250938699E-1,-3.032629747E0,3.624831129E0
7.832307500E-1,1.320525827E0,6.945410460E-1,-9.584960550E-1,1.773383888E0
7.932017500E-1,-2.014438298E0,2.399203506E0,-2.329975689E0,3.904218979E0
8.031717500E-1,-8.093536835E-1,5.044886448E0,-6.981285467E0,8.651258835E0
8.131417500E-1,8.837910046E-1,2.421236107E0,-4.544260708E0,5.224344572E0
8.231117500E-1,6.230812734E-1,-1.160053087E0,7.554035443E-1,1.518086938E0
8.330817500E-1,4.257422328E0,-5.692159188E-1,1.934528494E0,4.710844101E0
8.430517500E-1,2.570353847E0,-1.572297285E0,-1.756130530E0,3.487525210E0
8.530217500E-1,9.015788193E-1,-1.520671341E0,-6.326096767E-1,1.877626347E0
8.629917500E-1,-1.273130636E0,-4.387665841E-1,2.024756294E-1,1.361754057E0
8.729617500E-1,-2.121808526E0,-2.129161254E-1,5.307894793E0,5.720240540E0
8.829317500E-1,-7.167271364E-1,-1.541678341E0,8.381809391E0,8.552496627E0
8.929017500E-1,-1.004581616E0,1.082078712E0,4.973826406E0,5.188355007E0
9.028717500E-1,-2.350354405E0,4.791473969E0,-9.155389005E-1,5.414849961E0
9.128427500E-1,-3.577046747E0,8.363357332E-1,7.430752748E-1,3.747916988E0
9.228127500E-1,-2.515318977E0,-1.960658532E0,-3.709103481E0,4.891672522E0
9.327827500E-1,-2.453536419E0,-3.850992016E0,-5.062943820E0,6.817872145E0
9.427527500E-1,-1.594233992E0,-2.427303471E0,-2.913727201E0,4.113780544E0
9.527227500E-1,-3.402903728E-1,-4.134039938E-1,-1.425471069E0,1.522717364E0
9.626927500E-1,1.303041776E0,-2.111060028E0,2.627774967E0,3.613819806E0
9.726627500E-1,-7.756446315E-1,-3.878203496E0,4.085662415E0,5.686363013E0
9.826327500E-1,1.620199138E0,-1.460623360E0,5.484997600E0,5.902852236E0
9.926027500E-1,2.114858379E0,1.972157374E0,2.964824265E0,4.141523100E0
1.002572750E0,-1.619527804E-1,2.319744231E0,-1.387134385E0,2.707689754E0
1.012542750E0,-8.799946998E-1,-6.443412378E-1,-2.292476910E-1,1.114504736E0
1.022512750E0,6.246261077E-1,-5.889637202E-2,-2.405189593E0,2.485671647E0
1.032483750E0,5.724412795E-1,8.823009878E-1,1.457301557E-1,1.061782148E0
1.042453750E0,3.754963120E-1,-1.843779123E-1,-1.009151654E0,1.092419221E0
1.052423750E0,6.890943646E-1,-1.450852078E0,-2.533247709E-1,1.626036972E0
1.062393750E0,2.876037438E-1,4.138243794E0,-1.549960629E0,4.428335530E0
1.072363750E0,-3.323736009E0,4.105460503E0,-7.115751547E-1,5.329949925E0
1.082333750E0,-4.128886495E0,5.105396944E-1,-5.792403853E-1,4.200461152E0
1.092303750E0,-2.964369644E0,2.795255303E0,-3.905248915E0,5.643749523E0
1.102273750E0,-1.469638159E0,-7.541534096E-1,-4.533794192E0,4.825336616E0
1.112243750E0,-2.600490982E0,3.463194734E-1,1.258857583E0,2.909847580E0
1.122213750E0,-2.843390459E0,3.874347550E0,1.423704625E0,5.012222371E0
1.132183750E0,-1.272279135E0,2.961551286E0,-1.750286822E0,3.667830991E0
1.142153750E0,-2.848948823E0,1.184988246E0,1.183364182E0,3.304702305E0
1.152124750E0,-1.251463486E0,-3.179277331E-2,1.011447271E0,1.609408966E0
1.162094750E0,-2.182945405E0,-8.443817943E-1,4.056447387E-1,2.375453411E0
1.172064750E0,4.654348576E-1,-1.619322933E0,-3.935877800E-1,1.730244985E0
1.182034750E0,5.305381587E-1,-1.854525720E0,-1.494203920E0,2.439955274E0
1.192004750E0,3.646107699E-1,-3.135385206E-1,-1.874268259E0,1.934975174E0
1.201974750E0,6.029419278E-1,1.541791484E0,1.531138442E0,2.255004408E0
1.211944750E0,7.956328996E-1,-1.628265372E-1,2.310316181E0,2.448898742E0
1.221914750E0,1.091188656E-1,1.480197499E0,1.024707001E-1,1.487747226E0
1.231884750E0,-1.629372688E0,1.277844661E-1,2.182400152E0,2.726546286E0
1.241854750E0,-2.145421776E0,-1.739196408E0,1.497879480E0,3.141859589E0
1.251824750E0,-1.639566578E0,-1.177352951E0,-4.027796030E-2,2.018900901E0
1.261794750E0,1.528557627E0,-8.352516595E-1,-8.223845690E-1,1.926252874E0
1.271765750E0,2.734533723E0,-3.922233615E0,1.220768235E0,4.934761017E0
1.281735750E0,2.305310672E0,-2.664084130E0,2.026116357E0,4.064104949E0
1.291705750E0,1.027089961E0,-4.573545903E-2,6.726192498E-1,1.228585437E0
1.301675750E0,1.223628986E0,4.528262141E-1,3.632360530E-1,1.354348517E0
1.311645750E0,9.319958889E-1,-5.981368321E-1,-1.005623444E0,1.495881853E0
1.321615750E0,2.146763200E-2,-3.610743374E-1,-1.747518750E0,1.784560820E0
1.331585750E0,-9.595239224E-1,-2.911740317E0,7.401908433E-1,3.153854835E0
1.341555750E0,-1.161725610E0,-7.350376922E-1,1.532811331E0,2.058979693E0
1.351525750E0,-1.429517635E0,2.708902745E0,-2.633229834E0,4.039254153E0
1.361495750E0,-1.427916082E0,-1.113169527E-1,-3.565199411E0,3.842132564E0
1.371465750E0,-6.873927518E-1,-1.971049034E0,-3.510626178E0,4.084365220E0
1.381435750E0,-8.244738523E-1,-1.834649280E0,9.608565760E-1,2.229112037E0
1.391406750E0,3.837907336E-1,-1.667819739E0,2.524633591E0,3.050031603E0
1.401376750E0,7.092264743E-1,-2.697428754E-1,5.524969751E-1,9.386246950E-1
1.411346750E0,4.310414620E-1,1.376813757E0,-7.725961125E-1,1.636556634E0
1.421316750E0,5.918821752E-1,1.118056045E0,5.263377017E-1,1.370184369E0
1.431286750E0,8.205383107E-1,1.011963872E0,3.340690303E0,3.585744790E0
1.441256750E0,1.399338693E0,9.238314217E-1,2.486398648E0,2.998965073E0
1.451226750E0,9.727240849E-1,2.409606872E0,-2.331105371E0,3.490909577E0
1.461196750E0,1.900222442E0,1.964790467E0,-5.468380982E0,6.113463623E0
1.471166750E0,1.906273871E0,6.187085062E-2,-3.399386408E0,3.897888663E0
1.481136750E0,1.028744431E0,2.453512445E0,-2.787431436E0,3.853285927E0
1.491106750E0,1.821451384E0,3.745908488E0,-1.738607009E0,4.513565096E0
1.501076750E0,2.526096565E0,-2.391453607E0,3.474388059E0,4.916460779E0
1.511047750E0,1.614848059E0,-1.935083395E0,6.670248678E0,7.130532899E0
1.521017750E0,8.871450406E-1,1.732309850E0,3.037966501E0,3.607930736E0
1.530987750E0,-2.085638673E0,2.473712821E0,-1.623426801E-1,3.239675747E0
1.540957917E0,-5.577518678E-1,2.137169015E0,-2.465657405E0,3.310293791E0
1.550927917E0,1.767447231E0,-1.165395980E0,7.761079502E-1,2.254852779E0
1.560897917E0,2.893332405E0,-2.609203918E0,1.003301514E0,4.023174297E0
1.570867917E0,-4.686834244E-1,-1.065223528E0,-4.930845863E-1,1.263921567E0
1.580837917E0,-1.047825248E-1,-1.652145401E-1,7.511456019E-1,7.762054734E-1
1.590807917E0,2.720754759E0,-3.621610424E-1,-9.391844559E-1,2.900988542E0
1.600777917E0,2.444231160E0,1.538101307E-1,1.862502492E0,3.076822883E0
1.610747917E0,-8.766465110E-1,-1.336137308E0,-3.003527570E0,3.402197801E0
1.620717917E0,-8.080592562E-2,-1.227548959E0,-9.348528385E-3,1.230241212E0
1.630687917E0,1.913563266E-1,-1.272111467E0,1.202124973E0,1.760678641E0
1.640658917E0,-2.237422305E0,-2.109768670E0,-4.477154553E-1,3.107673011E0
1.650628917E0,-6.012067665E-1,9.574555430E-1,2.595122945E-1,1.159964363E0
1.660598917E0,-1.014272060E0,2.633074883E0,-4.134213601E0,5.005352460E0
1.670568917E0,-2.111626769E0,-3.752008303E0,1.110525416E0,4.446324394E0
1.680538917E0,-2.147006408E-1,8.547977319E-1,-1.663322353E-1,8.969068737E-1
1.690508917E0,-1.644912980E0,3.171485916E-1,-2.491379306E0,3.002214647E0
1.700478917E0,-2.909223128E-1,-1.837282574E0,6.317600763E0,6.585766656E0
1.710448917E0,2.073778181E0,1.453629506E-1,3.290974937E0,3.892582994E0
1.720418917E0,-1.198890951E0,8.801609069E-1,-2.543704870E0,2.946600957E0
1.730388917E0,-4.894174319E-1,1.165814933E0,8.420405692E-1,1.519107041E0
1.740358917E0,2.851306420E0,3.823652190E-1,3.217442107E-1,2.894766104E0
1.750328917E0,2.253288140E0,8.609285375E-1,-1.023665028E0,2.620380789E0
1.760299917E0,1.515908784E0,4.740732417E-1,-4.938757145E-1,1.663321407E0
1.770269917E0,2.658236037E0,-7.226842797E-1,2.733368665E-1,2.768249345E0
1.780239917E0,1.663518527E0,2.467779359E-1,3.317464578E-1,1.714132128E0
1.790209917E0,-1.043050448E0,-3.103162078E0,2.281469527E0,3.990322333E0
1.800179917E0,3.603716482E-1,-1.773561080E0,-1.213673809E0,2.179080251E0
1.810149917E0,-2.175981225E0,-4.856998453E-1,4.914058506E-2,2.230070274E0
1.820119917E0,-2.416782429E0,5.923913580E-1,-1.466482270E0,2.888310074E0
1.830089917E0,-5.555951223E-1,6.127987254E-1,2.163762152E-1,8.550011019E-1
1.840059917E0,-1.504717652E0,-2.000437140E0,3.624540464E0,4.404908346E0
1.850029917E0,-4.794491717E-1,-1.061348578E0,-1.333340585E-2,1.164693132E0
1.859999917E0,1.436899014E0,2.628076976E0,-4.075826229E0,5.058045750E0
1.869969917E0,4.744707792E-1,9.390452921E-2,-2.157188128E0,2.210746751E0
1.879939917E0,-6.584555393E-1,-7.296567920E-1,-2.140466845E-1,1.005872116E0
1.889910917E0,8.080879806E-1,1.121354752E0,1.078687327E0,1.753285206E0
1.899880917E0,-3.500480601E-1,2.578834357E0,-1.366089086E0,2.939237941E0
1.909850917E0,7.736448106E-1,1.006034211E0,-2.939116981E0,3.201412150E0
1.919820917E0,-1.497894975E0,2.601008168E-1,-1.435270418E0,2.090775684E0
1.929790917E0,-1.559602688E0,-1.823769951E-1,9.714207405E-1,1.846423615E0
1.939760917E0,-1.342677712E0,1.023577319E0,5.668524742E-1,1.780959206E0
1.949730917E0,-1.472001750E0,2.668464864E0,1.129638795E0,3.250165794E0
1.959700917E0,-1.220490639E0,-4.206369996E-1,6.180192364E0,6.313581436E0
1.969670917E0,-1.012539750E0,-1.885336162E0,-1.036806060E0,2.377960469E0
1.979640917E0,-1.211839829E0,1.044550697E0,-1.811011911E0,2.416486307E0
1.989610917E0,-2.088857419E0,3.178414866E0,-3.108220797E0,4.911891988E0
1.999580917E0,-5.056103747E0,-1.343191682E0,2.189542526E-1,5.236056718E0
2.009550917E0,-2.038876589E0,-1.406116201E0,-2.012015796E0,3.190985440E0
2.019521917E0,-3.036297120E0,-2.459797910E-1,4.086122006E-1,3.073527321E0
2.029491917E0,-2.277786950E0,1.408719966E-1,2.063338562E0,3.076609227E0
2.039461917E0,-2.473806377E-1,-9.211990052E-1,2.659342915E-1,9.902150446E-1
2.049431917E0,1.591281002E-1,-1.139679633E0,1.703343036E0,2.055618865E0
2.059401917E0,4.318681487E-1,1.882748476E0,-8.793311870E-1,2.122374910E0
2.069371917E0,-1.491383881E-1,-1.194421559E0,3.729576337E-1,1.260151783E0
2.079341917E0,-1.003515376E0,-1.543899406E0,2.303435762E0,2.948980297E0
2.089311917E0,1.190721148E0,5.608123004E-1,-5.866546547E-1,1.441003460E0
2.099281917E0,1.292919661E0,-1.284945228E0,-6.797651321E-1,1.945457818E0
2.109251917E0,1.830809706E0,-9.345151618E-1,-2.102173430E0,2.940121749E0
2.119221917E0,6.084569485E-1,-1.356161976E0,-1.797482623E0,2.332453417E0
2.129191917E0,6.741754863E-1,-3.498451690E0,3.302538975E0,4.858028458E0
2.139161917E0,2.124282337E0,7.853433350E-1,1.994178280E0,3.017629304E0
2.149131917E0,5.063259350E-1,8.745510882E-1,2.166112148E0,2.390240029E0
2.159102917E0,1.933376739E0,2.376311949E0,-1.099044993E0,3.254643451E0
2.169072917E0,5.112969089E-1,-1.171253721E0,9.956861007E-1,1.620077350E0
2.179042917E0,-9.433486967E-1,-1.060232345E0,2.516068590E-1,1.441286023E0
2.189012917E0,7.422030164E-1,-4.994983971E-2,3.172810310E-1,8.087197022E-1
2.198982917E0,4.425396827E-1,1.227149594E0,2.027662361E-1,1.320171066E0
2.208952917E0,4.822346025E-1,1.900576344E0,-1.703988569E0,2.597752432E0
2.218922917E0,1.252169172E-1,1.496062750E0,-1.706981758E0,2.273250921E0
2.228892917E0,1.429666739E0,-3.061574926E0,-3.150344138E0,4.619724689E0
2.238862917E0,1.173765392E0,-3.985374480E0,-2.930051458E-1,4.164947414E0
2.248832917E0,1.715063780E0,-6.330020249E-1,5.430653577E0,5.730107644E0
2.258802917E0,3.905889258E-1,2.294987997E0,1.740017942E0,2.906405349E0
2.268772917E0,9.430008604E-1,2.778890701E0,-2.174199432E0,3.652208554E0
2.278742917E0,3.516099464E0,-7.216148239E-1,-2.577647957E0,4.419044284E0
2.288712917E0,2.309192346E0,-8.542296749E-1,-1.429691005E-1,2.466276098E0
2.298683917E0,1.489906362E0,-1.315252224E-1,2.451877272E0,2.872076254E0
2.308653917E0,-1.060149168E-1,1.401899773E0,2.994424040E0,3.308041334E0
2.318623917E0,3.011414002E-1,1.758317681E0,-3.950753117E-1,1.827143046E0
2.328593917E0,6.273524451E-1,2.840980822E-1,-1.940646436E0,2.059221067E0
2.338563917E0,3.719003694E0,2.015215100E0,-1.692808692E0,4.556059882E0
2.348533917E0,1.990870218E0,1.401655068E0,-4.236956781E0,4.886717090E0
2.358503917E0,-7.272603106E-1,2.337162209E0,-9.936793363E-1,2.641710313E0
2.368473917E0,1.720275111E0,-1.760634640E-1,-2.691268128E0,3.198948098E0
2.378443917E0,-1.476788280E0,-1.060704800E0,4.873947777E0,5.202053943E0
2.388413917E0,-2.691431338E-1,5.750251275E-1,3.284473418E0,3.345273914E0
2.398383917E0,2.507121765E0,8.125258711E-1,2.806717308E0,3.850132450E0
2.408353917E0,1.453131177E0,-5.611610869E-1,-1.463125384E0,2.137107361E0
2.418323917E0,2.401997452E0,-3.334346952E0,-6.016486114E0,7.285984251E0
2.428293917E0,2.103093928E0,-1.289516873E0,-3.334679366E0,4.148004859E0
2.438264917E0,-8.891008611E-1,-4.758999118E-1,-2.949546075E-1,1.050704187E0
2.448234917E0,-3.726265717E-1,-3.892430356E0,5.709223117E0,6.919905581E0
2.458204917E0,-4.603933152E-2,-1.591272962E0,2.971853203E0,3.371376680E0
2.468174917E0,-1.484563762E0,2.940468857E0,1.250232355E0,3.523260933E0
2.478144917E0,4.185048855E-1,1.367663741E-2,3.691540200E0,3.715212300E0
2.488114917E0,-1.354022918E-1,-2.307498407E0,8.516001821E-1,2.463352502E0
2.498084917E0,-1.811464047E0,-1.186785972E-1,9.880391121E-2,1.818034327E0
2.508054917E0,-1.198131763E0,-1.057383289E0,-1.799780579E0,2.406821405E0
2.518024917E0,-2.214550483E0,-2.720715583E0,2.731301090E0,4.445956901E0
2.527994917E0,-2.011310037E0,2.216864226E0,-1.725284128E0,3.454918289E0
2.537964250E0,-1.109294577E0,3.134463978E0,-4.359748310E0,5.482955791E0
2.547934250E0,-5.679425779E-1,-2.296291049E0,2.514416167E0,3.452216681E0
2.557904250E0,-3.114184664E-1,-2.998840734E0,1.907541840E0,3.567736409E0
2.567874250E0,4.511373190E-1,2.344017193E-1,8.316763794E-1,9.747587633E-1
2.577844250E0,-8.575321823E-1,-8.126167953E-3,3.702721830E0,3.800733670E0
2.587815250E0,-1.987812855E0,1.439131627E0,-1.043329799E0,2.666652744E0
2.597785250E0,4.208905130E-1,4.707268801E-1,-1.333187973E0,1.475168733E0
2.607755250E0,-5.624463049E-1,-1.374821610E0,9.127831078E-1,1.743460154E0
2.617725250E0,5.266358731E-1,2.912558343E0,-3.247923058E0,4.394240052E0
2.627695250E0,1.207403693E0,2.114077191E0,-5.054254273E0,5.610047442E0
2.637665250E0,3.949475500E-1,-4.108095258E0,-1.166442339E0,4.288708191E0
2.647635250E0,-1.197737953E0,-6.583804611E0,2.373928624E-1,6.696074576E0
2.657605250E0,-6.293881533E-1,-9.276990625E-1,3.120149117E0,3.315431421E0
2.667575250E0,9.699095276E-1,1.459778145E0,5.746737099E0,6.008049934E0
2.677545250E0,1.798183412E0,2.130256729E0,2.266155084E0,3.592619683E0
2.687515250E0,1.687383500E0,4.210479419E0,-2.891189108E0,5.379068179E0
2.697485250E0,1.347299351E0,2.088573976E0,-1.876059846E0,3.113993792E0
2.707455250E0,3.813578899E-1,-9.547041357E-3,5.582658380E-1,6.761551095E-1
2.717425250E0,1.785971941E0,-1.556700715E0,-1.875414898E0,3.021621077E0
2.727395250E0,1.121419802E0,-1.196484749E0,-1.150424477E0,2.003156161E0
2.737366250E0,1.892987097E0,2.488826120E0,-2.919897183E0,4.278253752E0
2.747336250E0,2.894374964E0,3.051483509E-1,-2.594230075E0,3.898788483E0
2.757306250E0,-6.219102953E-1,1.551307828E0,-4.595741934E-1,1.733359983E0
2.767276250E0,-4.147647871E-1,-1.515202733E0,-2.619376026E0,3.054341159E0
2.777246250E0,1.872265150E0,-4.184419256E0,1.553209342E0,4.840165345E0
2.787216250E0,3.820560840E-1,6.643916327E-1,5.486430752E0,5.539702654E0
2.797186250E0,-6.737463006E-1,1.162484359E0,3.712808277E0,3.948448969E0
2.807156250E0,1.532089784E0,-2.768609834E0,1.646671237E0,3.567075228E0
2.817126250E0,-3.792926899E-1,6.462968391E-1,3.552282912E-1,8.293067513E-1
2.827096250E0,3.312382763E0,-9.026987073E-1,-6.353134292E-1,3.491470704E0
2.837066250E0,1.191528137E0,-3.910544738E-1,3.787388343E0,3.989608172E0
2.847036250E0,1.413579733E-1,6.998663977E-1,-8.392181182E-1,1.101853938E0
2.857006250E0,1.296759308E-1,4.572461244E-1,-3.277231641E0,3.311515831E0
2.866976250E0,-1.043329945E0,-4.817819184E-1,-3.195563580E0,3.395920757E0
2.876946250E0,-1.540894668E0,2.282391048E0,-1.841328555E0,3.312726388E0
2.886917250E0,-3.243360768E0,-4.143027986E0,6.059186575E0,8.024824728E0
2.896887250E0,-1.903936155E0,1.901848991E0,1.212337720E0,2.951569957E0
2.906857250E0,-2.461150663E0,4.132163859E0,-3.425428737E0,5.904710220E0
2.916827250E0,-1.809027805E0,-1.298367219E0,-6.658797491E-1,2.324163263E0
2.926797250E0,5.509318582E-1,-1.117827711E0,-1.225764096E0,1.748016683E0
2.936767250E0,-7.087161586E-1,-2.783298917E0,2.398252457E0,3.741743751E0
2.946737250E0,-3.165458021E0,-2.236761131E0,1.438850668E0,4.134430564E0
2.956707250E0,-6.229376511E-1,2.735116982E-1,8.079647505E-1,1.056251393E0
2.966677250E0,-5.512288602E-1,1.650010582E0,8.111701941E-1,1.919475257E0
2.976647250E0,-2.679351356E-2,-1.461964712E0,1.741383267E0,2.273867717E0
2.986617250E0,-5.106355157E-1,-3.023411904E0,2.044802889E0,3.685510415E0
2.996587250E0,2.858844431E-1,7.664118049E-1,2.246414300E0,2.390709973E0
3.006557250E0,1.247384322E-1,2.387189232E0,-1.934359510E0,3.075057531E0
3.016527250E0,-2.782373448E-1,3.064821008E-1,-8.146881714E0,8.157391064E0
3.026497250E0,-1.003485629E-1,-2.447133133E0,-5.758663080E0,6.257853535E0
3.036467250E0,-3.301123949E0,-4.634170712E0,1.548897021E0,5.896782131E0
3.046438250E0,-3.024759102E0,-3.630623907E-1,4.292217647E0,5.263469792E0
3.056408250E0,-2.046477239E0,6.542768267E-1,6.269890991E0,6.627796036E0
3.066378250E0,-9.907014225E-1,-5.304213971E-1,3.206630605E0,3.397839903E0
3.076348250E0,2.269798484E-1,-1.585813124E0,-1.926152358E0,2.505271647E0
3.086318250E0,1.066749359E0,-3.462742744E0,-1.540360671E0,3.937163002E0
3.096288250E0,3.200113299E0,6.378958520E-1,-2.074475169E-2,3.263137537E0
3.106258250E0,7.703890809E-1,3.378250478E0,-4.662031817E-1,3.496200943E0
3.116228250E0,5.846144516E-1,2.212056060E0,-2.019349959E0,3.051678281E0
3.126198250E0,1.538692168E0,1.964742520E0,-1.360690352E0,2.842404790E0
3.136168250E0,-1.610324652E-1,1.375330610E0,-1.442808648E0,1.999790624E0
3.146138250E0,2.257141455E-1,7.975014505E-1,-9.265106159E-1,1.243132077E0
3.156108250E0,-1.751335813E0,3.114525265E-1,-2.593578111E0,3.144968557E0
3.166078250E0,-9.481453869E-1,2.119106382E0,-1.983235216E0,3.053328258E0
3.176048250E0,-1.247719624E-1,4.086764030E0,-4.066761875E-1,4.108843366E0
3.186018250E0,-1.630651474E0,-1.766384499E0,6.024756415E0,6.486665422E0
3.195988250E0,1.421797702E0,-1.213465648E0,4.319130626E0,4.706261462E0
3.205958250E0,1.575859263E0,5.179357206E0,-2.079716613E0,5.799508141E0
3.215929250E0,3.437591238E-1,2.855973375E0,-1.722169316E0,3.352703597E0
3.225899250E0,-1.781478209E0,-3.278840503E0,-1.223647989E0,3.927056666E0
3.235869250E0,-1.705584274E0,-3.976753930E0,-2.659288536E0,5.078917705E0
3.245839250E0,6.125205806E-1,-3.131064114E0,-1.078138858E0,3.367659030E0
3.255809250E0,1.574162547E0,-1.694436557E0,9.822720033E-1,2.512759690E0
3.265779250E0,1.967577834E0,3.166354984E-1,2.596449679E0,3.273098151E0
3.275749250E0,1.172567444E0,4.390788254E-1,3.446668748E0,3.667046507E0
3.285719250E0,-1.371904434E0,1.163076390E0,3.090376849E0,3.575653441E0
3.295689250E0,5.623356098E-1,-2.038343470E0,1.274406499E0,2.468841299E0
3.305659250E0,1.262045777E0,-1.893648856E0,-1.814645956E0,2.910602253E0
3.315629250E0,4.064038534E-1,-1.243999515E0,-1.071190612E0,1.691197272E0
3.325599250E0,-8.184185123E-2,-1.400443232E0,-1.956030461E0,2.407071768E0
3.335569250E0,-3.274484619E-1,-2.660688944E0,-3.381199813E0,4.314973966E0
3.345539250E0,-1.071182133E0,-1.533728466E0,6.979686838E-1,1.996725934E0
3.355509250E0,-6.942007381E-1,-1.788553048E0,5.513338469E0,5.837614046E0
3.365479250E0,-8.501165242E-1,-1.785805734E0,4.438112694E0,4.858872761E0
3.375449250E0,-1.541209248E0,2.527311324E0,2.052051097E-1,2.967277811E0
3.385420250E0,4.049732225E-1,-2.339716566E-1,1.965466112E0,2.020347269E0
3.395390250E0,-1.204627947E0,6.190303954E-1,-8.088488495E-1,1.577518172E0
3.405360250E0,2.739004650E-1,-7.314077407E-2,-5.790438019E0,5.797373844E0
3.415330250E0,1.987331337E0,-2.127126423E-1,-4.483930306E0,4.909212106E0
3.425300250E0,-6.155414167E-2,2.099580190E-1,-2.717095279E0,2.725890320E0
3.435270250E0,8.912511747E-1,-4.180612426E0,2.882981957E0,5.155912517E0
3.445240250E0,1.746355739E0,-3.884233437E0,4.536762823E0,6.222478982E0
3.455210250E0,7.525232059E-1,-5.473973259E-1,3.719322660E0,3.833966100E0
3.465180250E0,2.592109875E0,3.991524582E0,-9.874099517E-1,4.860687246E0
3.475150250E0,1.585251207E0,1.687814878E0,4.188424891E-1,2.353119096E0
3.485120250E0,-5.786050122E-1,-3.667896983E-1,3.445545498E0,3.512990496E0
3.495090250E0,2.875659196E-1,1.031990001E0,-2.906049807E0,3.097228277E0
3.505060250E0,3.350061709E-1,5.185593261E0,-2.590389624E0,5.806266013E0
3.515030250E0,-2.584078651E-1,3.184140752E0,7.761909807E-1,3.287552189E0
3.525000250E0,-5.153275408E-1,-1.958068508E0,6.740015316E-1,2.133980511E0
3.534970250E0,8.086001967E-1,3.181616217E-2,-2.782324478E0,2.897615580E0
3.544940250E0,8.185088152E-1,1.739959470E0,-3.883856876E0,4.333792782E0
3.554910250E0,-1.573607062E0,-3.982767499E0,-9.805108219E-1,4.393185360E0
3.564881250E0,-7.443298680E-1,-7.877690524E-1,-3.553007966E-1,1.140546224E0
3.574851250E0,-3.961439269E-1,1.438384645E0,4.541497314E0,4.780280144E0
3.584821250E0,-1.395901115E0,1.405093523E0,2.140362765E0,2.916158517E0
3.594791250E0,-3.888371366E-1,1.322719118E0,4.699499021E0,4.897557681E0
3.604761250E0,-1.757897047E-1,1.534084562E0,2.078979864E0,2.589686224E0
3.614731250E0,7.938954726E-2,-2.049618655E-1,-2.834042516E0,2.842553262E0
3.624701250E0,-4.485704644E-1,-2.411937573E0,-7.899600041E-1,2.577342648E0
3.634671250E0,-9.355306770E-1,1.186084599E0,-3.291719872E0,3.621799834E0
3.644641250E0,1.140316834E0,-5.736060083E-1,-3.307792114E0,3.545537336E0
3.654611250E0,-1.466068287E0,-1.795710332E0,-2.086101188E0,3.118613472E0
3.664581250E0,8.272392198E-1,-9.773810998E-1,-1.129220719E0,1.707260370E0
3.674551250E0,-3.365636133E-1,6.858167079E-1,-1.400684722E0,1.595474009E0
3.684521250E0,7.284030028E-2,-6.272732154E-1,6.838207608E-1,9.307997792E-1
3.694491250E0,-1.714154757E-1,-2.573709565E0,1.968360484E0,3.244658254E0
3.704461250E0,-2.888401156E0,-2.827403587E0,2.962383637E0,5.011266217E0
3.714431250E0,-9.630926974E-1,3.335623106E-1,-3.541564965E-1,1.078998695E0
3.724401250E0,3.739773151E-2,-1.779136692E0,4.220203924E0,4.580048812E0
3.734371250E0,-5.447796737E-1,1.409552609E0,1.665398700E0,2.248816640E0
3.744342250E0,-1.294929495E0,-1.029371910E0,3.246046686E0,3.643249650E0
3.754312250E0,1.112877312E0,-1.196105264E0,-2.364740310E0,2.874223451E0
3.764282250E0,-5.197133545E-1,1.259954813E0,-1.340000564E0,1.911331895E0
3.774252250E0,-5.843205193E-1,-4.863872147E0,3.694415860E0,6.135747002E0
3.784222250E0,3.432070736E-2,-1.588564239E0,-1.015284213E0,1.885607671E0
3.794192250E0,1.242460674E0,1.247792897E0,1.216966376E0,2.140491252E0
3.804162250E0,5.636158211E-1,6.583309937E-1,2.977208083E0,3.100779008E0
3.814132250E0,-1.870813578E0,2.567059819E0,3.286950883E0,4.570972070E0
3.824102250E0,1.081711945E0,3.158493403E-1,1.892349020E0,2.202463700E0
3.834072250E0,2.206703081E0,8.393757007E-1,-3.078684171E0,3.879740491E0
3.844042250E0,-1.268534725E0,-1.155089093E0,-6.250214526E0,6.481403612E0
3.854012250E0,-3.774008744E0,-1.618059349E0,-3.990650423E0,5.725953969E0
3.863982250E0,-2.158099124E0,-4.048928744E0,3.437232512E0,5.732868666E0
3.873952250E0,-2.361443650E0,-3.507110247E0,4.474529153E0,6.156106687E0
3.883922250E0,-2.532976691E0,2.930494092E0,-1.721959986E0,4.238975434E0
3.893892250E0,1.187316607E-1,5.335083761E0,-3.845841204E0,6.577819586E0
3.903862250E0,1.655742315E0,-3.513790691E-1,-2.759765335E0,3.237476575E0
3.913832250E0,1.329518699E0,-1.573507659E0,1.385344552E0,2.482483807E0
3.923803250E0,2.753548503E-1,1.153981046E0,6.670503616E-1,1.361046925E0
3.933773250E0,1.330989566E0,3.982927128E0,2.809476024E-1,4.208820891E0
3.943743250E0,-6.947868118E-2,5.683761417E0,-4.535672902E0,7.272021714E0
3.953713250E0,7.484960823E-1,2.782070124E-1,-3.759522268E0,3.843390848E0
3.963683250E0,3.597245076E0,-8.233879513E-1,-5.332843108E0,6.485164260E0
3.973653250E0,-1.532198177E-1,-4.122632021E-1,2.088322545E0,2.134134090E0
3.983623250E0,5.862780941E-1,-2.640544116E-1,3.850929451E0,3.904241843E0
3.993593250E0,1.584717064E0,-9.012956679E-1,8.349806410E-1,2.005206903E0
4.003563250E0,1.517140939E0,-1.076090871E0,-3.894927410E0,4.316265483E0
4.013533250E0,2.692501598E0,2.626703757E-1,-6.800714677E0,7.319035503E0
4.023503250E0,1.578034720E0,-2.371268141E-1,6.149738896E-1,1.710150750E0
4.033473250E0,-1.382740787E0,-1.993544734E0,4.460509869E0,5.077631434E0
4.043443250E0,1.515288541E0,-2.132220517E0,1.299298330E1,1.325368170E1
4.053413250E0,1.480794208E0,5.706826928E-1,8.449128969E0,8.596872138E0
4.063383250E0,-7.799667471E-1,1.940998439E0,-1.803772473E-1,2.099609253E0
4.073353250E0,-1.787732391E0,-5.821256939E-1,-1.907800872E0,2.678537211E0
4.083323250E0,1.305543653E0,-2.054820631E0,2.727629038E0,3.656048717E0
4.093293250E0,-1.091343881E-1,9.970283291E-1,-1.033657919E0,1.440286255E0
4.103263250E0,-1.520597520E0,2.160471632E0,-1.716477637E0,3.150579307E0
4.113233250E0,-2.034607245E0,4.680894935E-1,-1.197639574E0,2.406880754E0
4.123203250E0,-3.116558341E0,-5.752154544E-1,-8.350221562E-1,3.277357276E0
4.133174250E0,-3.227286187E0,-1.505950391E-1,-1.096223711E0,3.411709458E0
4.143144250E0,-1.085859595E0,-1.949917197E0,-3.336148771E0,4.013870545E0
4.153114250E0,-1.590415176E0,-1.221496798E0,2.647866000E0,3.321546208E0
4.163084250E0,8.131040145E-1,-3.303148255E0,5.568788200E0,6.525590284E0
4.173054250E0,7.029885916E-1,-3.012731087E0,6.934821153E-1,3.170435145E0
4.183024250E0,4.300759406E-1,1.917466612E0,-2.684347363E0,3.326764838E0
4.192994250E0,3.117002730E0,2.421290779E0,-6.148401638E0,7.306243751E0
4.202964250E0,3.355217418E0,-1.502491471E0,-4.914957224E0,6.137733218E0
4.212934250E0,3.984611419E0,-1.805545641E0,-5.718864006E0,7.200175605E0
4.222904250E0,4.641167783E0,3.229475677E-2,-3.065183535E0,5.562088766E0
4.232874250E0,2.950531038E0,-3.390167688E0,-1.704326538E0,4.806620363E0
4.242844250E0,3.561934837E-1,-3.457050480E0,6.632929409E-1,3.538082721E0
4.252814250E0,2.545956048E0,-2.204066425E0,8.487254570E0,9.130897608E0
4.262784250E0,7.614688611E-1,4.791094485E-1,1.012317453E1,1.016307253E1
4.272754250E0,2.182888395E-1,8.392953014E0,4.019359667E0,9.308306100E0
4.282724250E0,2.030572958E0,9.618214835E0,-1.422386078E0,9.932596101E0
4.292694250E0,1.753030921E0,-1.933442959E0,-3.160566241E-1,2.628918195E0
4.302664250E0,-2.769609342E-1,-4.692022771E0,6.758954448E-1,4.748538691E0
4.312634250E0,4.711074242E-1,1.115653424E0,-7.651911986E-1,1.432530048E0
4.322604250E0,1.004441648E0,1.972443303E0,3.325340778E-1,2.238306172E0
4.332575250E0,-1.491207222E0,4.252693685E0,-7.077814227E0,8.390742326E0
4.342545250E0,-1.665093475E0,2.632792170E0,-7.880487832E0,8.473855047E0
4.352515250E0,-1.184237390E0,-9.788855883E-1,-5.762605273E0,5.963912702E0
4.362485250E0,-2.392609163E0,-6.547410371E0,4.314649905E0,8.198131798E0
4.372455250E0,-9.311386140E-1,-7.966208598E-1,6.250590502E0,6.369576559E0
4.382425250E0,7.186358868E-1,1.066830343E0,4.577931899E0,4.755210300E0
4.392395250E0,-6.717323003E-1,-4.962330195E0,2.544068567E0,5.616781117E0
4.402365250E0,2.883430438E0,-2.825535109E0,5.959450618E0,7.198115824E0
4.412335250E0,3.138119072E0,-1.321133353E0,-5.371983200E-1,3.446993862E0
4.422305250E0,2.395434245E0,-2.659208721E0,4.144611704E-1,3.602953553E0
4.432275250E0,2.552893184E0,-1.964159260E0,-1.843416011E0,3.711248819E0
4.442245250E0,1.941019635E0,-4.924378842E-1,-6.120482352E0,6.439748172E0
4.452215250E0,8.371745894E-1,-9.551444310E-1,-2.472898012E0,2.779997618E0
4.462185250E0,-1.558823839E-1,-2.358659790E0,3.865812954E0,4.531234392E0
4.472155250E0,-9.287962195E-1,6.282043844E-1,2.812719474E0,3.027985140E0
4.482125250E0,-2.667865232E-1,7.081361732E0,2.544006586E-2,7.086431135E0
4.492095250E0,-4.082080118E-2,4.148958524E0,2.221111643E-1,4.155100064E0
4.502065250E0,8.697047697E-1,7.936133444E-3,-2.694130924E0,2.831040587E0
4.512035250E0,1.580951165E-1,-1.278819685E0,-4.193848184E0,4.387338195E0
4.522005250E0,-8.802912267E-1,-2.860616649E0,-8.198860538E-1,3.103264958E0
4.531975250E0,-1.569255856E0,1.309793848E0,2.319247802E0,3.091445331E0
4.541946417E0,-8.128386240E-1,-1.190551579E-1,-7.644895327E-1,1.122196509E0
4.551916417E0,-1.666548555E-1,4.131838462E-1,2.746066478E0,2.781973371E0
4.561886417E0,-6.240544693E-1,-1.509004977E0,6.203979422E0,6.415286484E0
4.571856417E0,-2.910644549E-1,-3.699391256E0,5.134061165E0,6.334729531E0
4.581826417E0,-5.665499539E-1,-4.268080341E0,1.746094953E0,4.646109795E0
4.591796417E0,3.483850608E0,2.764335519E0,-4.488328582E-1,4.469923585E0
4.601766417E0,6.693218880E0,4.597739050E0,-7.063489133E0,1.076249330E1
4.611736417E0,4.029997507E0,1.066688256E0,-2.716393028E0,4.975690387E0
4.621706417E0,1.831607559E0,8.387158424E-2,5.057432234E-2,1.834224210E0
4.631676417E0,-2.191998941E0,-2.896592813E0,5.501418920E0,6.592474453E0
4.641646417E0,-2.495785183E0,-2.034010975E0,6.737470023E0,7.467238220E0
4.651616417E0,-5.208190995E0,5.073816133E0,-1.794481832E0,7.489260887E0
4.661586417E0,-3.658661014E0,-1.645177274E0,8.835066837E-1,4.107674857E0
4.671556417E0,-1.977753451E0,-1.386922423E0,-7.267586195E-1,2.522546454E0
4.681526417E0,-9.895124643E-1,-7.082065737E-1,2.399173393E0,2.690116064E0
4.691496417E0,-2.465540168E0,1.714213010E0,-1.893061795E0,3.549802463E0
4.701466417E0,2.326616975E-1,7.172566018E0,-6.980035332E0,1.001103032E1
4.711436417E0,1.154934288E0,-2.034933373E-1,-5.752092564E0,5.870421757E0
4.721406417E0,1.141054899E-1,-8.579770385E0,-6.760315679E0,1.092370578E1
4.731376417E0,-1.219639869E0,-1.783480004E0,-5.261839784E0,5.688170202E0
4.741346417E0,-1.336008377E-1,7.838905942E-1,1.027819124E1,1.030890628E1
4.751316417E0,3.894483533E-1,1.459751540E-1,4.970634996E0,4.988004714E0
4.761287417E0,4.836993666E-1,4.038784410E0,-1.250134706E0,4.255417885E0
4.771257417E0,3.746216051E-2,3.336137661E-1,1.717280459E-1,3.770836514E-1
4.781227417E0,7.688234890E-1,4.195619890E-1,3.868352399E0,3.966266772E0
4.791197417E0,1.001437130E0,2.142530912E0,2.894496294E0,3.737836785E0
4.801167417E0,1.011195548E0,4.556735158E-1,-1.585315819E0,1.934781909E0
4.811137417E0,1.454418734E0,-2.464250272E0,-6.966515985E0,7.531281978E0
4.821107417E0,6.789328540E-1,-2.655207764E0,-5.348227133E0,6.009543373E0
4.831077417E0,5.962009652E-1,-3.343558947E0,-2.607029046E0,4.281523382E0
4.841047417E0,-3.301980420E-1,4.794547266E-1,4.487936819E-1,7.350669022E-1
4.851017417E0,-1.961141366E0,7.441295278E-1,2.285181339E0,3.101911985E0
4.860987417E0,-5.456223671E-1,1.433685238E0,2.988072794E0,3.358829581E0
4.870957417E0,1.649960004E0,7.798753113E-2,4.938534951E0,5.207454036E0
4.880927417E0,-3.108436851E-1,-3.015532196E0,2.669170330E0,4.039124716E0
4.890897417E0,-2.339314204E-1,-2.050764710E-1,-4.340914428E-1,5.340558483E-1
4.900867417E0,5.956826095E-1,2.840835519E0,-1.310116614E0,3.184586277E0
4.910837417E0,3.840872971E-1,-2.889638427E-1,-1.827091169E-1,5.142040214E-1
4.920807417E0,3.092279533E-1,-2.024019253E0,-2.336559069E0,3.106732069E0
4.930777417E0,-2.436786924E0,-1.524321758E0,-3.343472993E-1,2.893661253E0
4.940747417E0,-1.673758464E0,3.359494364E-1,3.671502376E0,4.048982479E0
4.950717417E0,-6.717959619E-1,-3.469784546E-1,5.012028605E0,5.068740928E0
4.960687417E0,-1.132095795E0,1.323485688E0,1.002363621E0,2.009474579E0
4.970657417E0,-3.865332239E-1,5.822086658E0,-4.020334983E-1,5.848737635E0
4.980627417E0,-1.209204562E-1,6.138000610E-1,8.893731952E-2,6.318877420E-1
4.990598417E0,1.460631108E0,-1.547220039E0,-1.190686650E0,2.438250968E0
5.000568417E0,2.349908262E-1,-2.958941089E0,5.736352444E-1,3.023178865E0
5.010538417E0,6.901010359E-1,1.971901266E0,-1.391749592E0,2.510298980E0
5.020508417E0,1.792009922E0,1.525498510E0,-1.697327421E0,2.901614316E0
5.030478417E0,-1.934937398E-1,-3.767301988E0,1.428995771E0,4.033860807E0
5.040448417E0,8.558566627E-1,-4.951350878E0,-4.059079803E0,6.459450054E0
5.050418417E0,2.017964607E0,-1.711879679E0,-7.285236016E0,7.750959747E0
5.060388417E0,1.443720083E0,1.537104356E0,-5.632028176E0,6.013880516E0
5.070358417E0,-9.937575428E-1,-1.446232778E-1,-9.450404423E-1,1.378974758E0
5.080328417E0,2.531512913E-1,-2.071339600E0,5.202493469E0,5.605396650E0
5.090298417E0,6.970745349E-2,1.516606942E-1,8.471862359E0,8.473506472E0
5.100268417E0,2.515090643E-1,3.782889788E0,5.506666796E0,6.685573361E0
5.110238417E0,-1.858212098E0,3.619272415E0,-1.472752824E0,4.326787017E0
5.120208417E0,-2.742830045E0,2.548810951E0,-5.506335844E0,6.658775288E0
5.130178417E0,-1.534160576E0,-2.954393417E-1,-7.692298704E-1,1.741449876E0
5.140148417E0,-2.284233652E0,-2.181389169E0,3.571027915E0,4.767433529E0
5.150118417E0,8.545181619E-1,2.266013874E0,3.010426700E0,3.863636769E0
5.160088417E0,-7.596001641E-1,3.250515421E0,-1.999624962E-1,3.344073550E0
5.170058417E0,-1.892836093E0,-6.119728062E-1,-2.786740295E0,3.423924745E0
5.180028417E0,-1.006808674E0,-5.431399682E-1,-1.111458047E0,1.594993330E0
5.189998417E0,5.264838455E-1,-2.392020787E0,2.180506824E0,3.279261913E0
5.199968417E0,-2.792320476E-1,-4.224293466E0,2.306223130E0,4.820922209E0
5.209938417E0,1.831936757E0,-2.737648827E0,8.340363157E-1,3.397989105E0
5.219908417E0,3.478618227E-1,6.737667659E-1,-1.783281491E0,1.937798333E0
5.229878417E0,-2.206286613E0,-6.751662970E-2,-4.546506039E0,5.054005963E0
5.239849417E0,-5.020624925E-3,-3.079804498E0,-3.125837873E0,4.388175402E0
5.249819417E0,-1.940610330E0,-2.048381092E0,-4.003540025E0,4.897975733E0
5.259789417E0,-7.958332399E-1,-2.799817301E0,1.111158085E-1,2.912846406E0
5.269759417E0,-1.251652936E0,-3.334221821E0,2.133661855E0,4.151648244E0
5.279729417E0,-1.635276330E0,-1.829349656E0,3.339168858E0,4.143754035E0
5.289699417E0,-1.422738519E0,3.442223695E-1,1.030589768E1,1.040933240E1
5.299669417E0,-7.632878568E-1,5.630549415E0,3.989627160E0,6.942825070E0
5.309639417E0,3.590798886E-2,5.124932492E0,3.639923319E0,6.286116782E0
5.319609417E0,-7.444420615E-1,2.653849456E0,-7.888712525E-1,2.866954616E0
5.329579417E0,1.868478785E0,-2.731193501E-1,-7.875941037E0,8.099151460E0
5.339549417E0,-2.200877792E0,-3.137183810E0,-1.126057258E1,1.189480055E1
5.349519417E0,6.106172023E-1,-3.200157445E0,-5.900618858E0,6.740264383E0
5.359489417E0,9.691303130E-1,-4.254660396E0,6.343235541E0,7.699219816E0
5.369459417E0,-1.862517256E0,8.843793806E-1,1.092492135E1,1.111777873E1
5.379429417E0,8.845232221E-1,3.750350910E0,6.704440856E0,7.732854613E0
5.389399417E0,-6.375289392E-1,-3.538252518E-1,-1.813809804E0,1.954876329E0
5.399369417E0,-1.996461983E-1,-3.274824343E0,1.103803457E0,3.461605863E0
5.409339417E0,-3.573130428E-1,-3.328494766E0,1.327182298E0,3.601105784E0
5.419309417E0,-4.617729292E-1,2.646853262E-1,-1.714819366E0,1.795521657E0
5.429279417E0,3.120398793E-1,2.001748378E0,-7.673020434E-1,2.166360515E0
5.439249417E0,-2.260050445E-1,-2.606120973E0,1.943953621E-1,2.623115393E0
5.449219417E0,1.018328128E0,-3.862623005E0,1.121877201E0,4.149151372E0
5.459189417E0,1.575150873E0,2.092978975E0,-5.526758414E0,6.116103321E0
5.469159417E0,7.279646078E-1,2.381693142E0,-5.907299302E0,6.410817400E0
5.479129417E0,-1.195608032E0,3.014546648E-1,-5.055710814E0,5.203899049E0
5.489100417E0,-7.312994210E-1,-4.505776674E-2,-2.408923625E0,2.517884445E0
5.499070417E0,-1.422795822E0,2.866231730E0,-1.890534044E0,3.716685520E0
5.509040417E0,-1.564380302E0,6.922806294E0,1.669511046E0,7.291076727E0
5.519010417E0,-7.221435584E-1,5.152155958E0,5.098672062E0,7.284412065E0
5.528980417E0,1.277179541E0,1.070521983E0,3.159169341E0,3.571772084E0
5.538950667E0,3.079017170E0,-7.104846489E-1,2.111797947E0,3.800634913E0
5.548920667E0,2.040728110E0,-1.289409285E0,1.174965826E0,2.684714550E0
5.558890667E0,-5.931253298E-1,-6.294551039E-1,-4.383832991E-1,9.696346227E-1
5.568860667E0,1.006943891E-1,4.009724625E0,-3.276258080E0,5.178986188E0
5.578830667E0,2.131196377E0,3.580177639E0,-3.405071071E0,5.380908745E0
5.588800667E0,1.682652956E0,1.419900427E0,-1.005401834E0,2.420386548E0
5.598770667E0,-8.842884564E-1,-4.580817208E0,3.992494050E0,6.140509841E0
5.608740667E0,9.671821669E-1,-9.618785523E0,5.609774258E0,1.117703196E1
5.618710667E0,5.562877981E-1,-4.516615950E0,2.838141999E0,5.363238365E0
5.628680667E0,-3.940543878E-1,-8.854546836E-1,-3.979720808E0,4.096033028E0
5.638650667E0,6.190480833E-1,-3.291092466E0,3.688803703E0,4.982146416E0
5.648620667E0,8.889971461E-1,-8.024443942E-1,2.066732286E0,2.388642978E0
5.658590667E0,-7.872072811E-1,1.184729506E0,-2.152859434E0,2.580326152E0
5.668560667E0,1.892375698E-1,-2.241182211E0,9.221310514E-1,2.430850517E0
5.678530667E0,-2.690075698E-1,-2.214718298E0,2.709544770E0,3.509839750E0
5.688500667E0,-1.915873976E0,2.973996207E-1,-6.269788080E-1,2.037675650E0
5.698470667E0,-1.545728415E0,1.166515722E0,-4.122702772E0,4.554856025E0
5.708440667E0,-2.748400395E0,-1.781900963E-1,-3.520501540E0,4.469830817E0
5.718410667E0,-8.340750535E-1,1.072414434E-1,-4.963848132E0,5.034577460E0
5.728380667E0,-7.943664658E-1,1.218720833E0,-3.430628666E0,3.726326824E0
5.738350667E0,-1.367992355E0,-8.179789844E-1,1.576384782E0,2.241758613E0
5.748320667E0,1.053951558E0,-4.853709394E-1,8.421585075E0,8.501146629E0
5.758291667E0,-1.197004712E0,1.596874010E0,5.390727035E0,5.748283644E0
5.768261667E0,-1.304620524E0,2.988469528E0,1.959498444E0,3.804289550E0
5.778231667E0,1.058762921E-1,6.587473154E-3,-2.424822205E0,2.427141510E0
5.788201667E0,-1.083866206E0,-2.553458610E0,-2.150388401E0,3.509855709E0
5.798171667E0,7.113770071E-1,-3.254481587E0,-2.199925427E0,3.992164767E0
5.808141667E0,1.448228871E0,-3.670984313E-1,-2.773223287E0,3.150062780E0
5.818111667E0,-7.805350234E-1,1.058989227E0,1.326630321E0,1.868325751E0
5.828081667E0,1.769517730E0,-2.002110321E0,8.335918688E0,8.753695169E0
5.838051667E0,5.278952537E-1,1.985624681E0,2.741069448E0,3.425615345E0
5.848021667E0,-1.967488811E0,1.823829300E0,-3.079513307E0,4.084209561E0
5.857991667E0,-1.384933767E-1,-6.439126369E-1,-2.152878730E0,2.251375296E0
5.867961667E0,-7.584226079E-1,-2.214895176E0,-7.242279446E-1,2.450606376E0
5.877931667E0,-1.836212241E0,7.810216579E-1,-1.977373967E0,2.809213062E0
5.887901667E0,-1.014383669E0,4.913566171E0,-3.061675206E0,5.877581289E0
5.897871667E0,-2.667676367E0,8.627362043E-2,-2.647853136E-2,2.669202399E0
5.907841667E0,-1.467564298E0,-2.556870753E0,2.879259619E0,4.120857795E0
5.917811667E0,-8.080731433E-1,-2.760607919E0,5.573557774E0,6.272039903E0
5.927781667E0,5.451150480E-1,2.855749134E0,-1.039911516E0,3.087696471E0
5.937751667E0,-7.572897830E-1,4.171736061E0,-3.551389457E0,5.530753715E0
5.947721667E0,7.382406507E-1,-3.021969688E-1,-1.398583233E0,1.610079913E0
5.957691667E0,7.513656764E-1,9.272871262E-1,-2.135863917E0,2.446697052E0
5.967661667E0,-6.923877358E-1,-1.194808352E-1,-3.166861353E0,3.243869183E0
5.977631667E0,6.182181441E-1,4.353366074E-1,-3.040610611E-1,8.149630448E-1
5.987601667E0,-6.636696660E-2,-3.334779938E0,4.734715632E0,5.791605470E0
5.997571667E0,-2.849047056E0,-5.401904572E0,4.990779823E0,7.887047951E0
6.007541667E0,-8.438587609E-1,-2.408610799E0,-2.595175570E-1,2.565317320E0
6.017511667E0,-3.181474056E-1,1.732515965E0,-1.568516183E0,2.358616619E0
6.027481667E0,-9.419338167E-1,1.713925912E0,1.103435667E0,2.245518118E0
6.037452667E0,-3.846521381E-2,2.520263967E-1,4.035782742E0,4.043827298E0
6.047422667E0,3.884094858E-1,-2.234885929E0,2.930085956E0,3.705533802E0
6.057392667E0,-1.820406340E0,1.368442298E0,1.578745887E0,2.771092229E0
6.067362667E0,-2.416141867E0,2.861541679E0,-1.072917295E0,3.895807210E0
6.077332667E0,-8.258623467E-1,-1.017711685E0,-2.104849116E0,2.479551469E0
6.087302667E0,-1.387458028E0,-1.535106070E0,-5.616797349E0,5.985816810E0
6.097272667E0,5.325542421E-1,-1.372981784E-1,-4.847987309E0,4.879082471E0
6.107242667E0,2.486848299E0,-1.710040437E0,-5.650031753E0,6.405584405E0
6.117212667E0,2.608625920E0,-3.376806800E0,-4.950611790E0,6.535771604E0
6.127182667E0,3.095921178E0,-3.385511258E0,1.415557700E0,4.801064259E0
6.137152667E0,5.917067952E-2,-2.651450343E0,9.255513217E0,9.627991224E0
6.147122667E0,-1.494173003E-1,1.585890892E0,9.564542073E0,9.696279726E0
6.157092667E0,-4.071365461E-1,1.063509417E0,6.708404099E0,6.804373446E0
6.167062667E0,-1.074133515E0,-2.907197616E-1,5.713561751E0,5.820916481E0
6.177032667E0,-3.124198021E-1,-7.672769004E-1,1.807526971E0,1.988334409E0
6.187002667E0,-4.590204986E-1,8.280133912E-1,-4.017475694E0,4.127519467E0
6.196972667E0,-1.345168406E-1,1.058309780E0,-4.452010356E0,4.578046590E0
6.206942667E0,7.343208236E-1,-6.093857056E-1,-3.754761465E0,3.874120760E0
6.216912667E0,6.337881830E-1,-1.338635531E0,-1.769671512E-1,1.491626602E0
6.226882667E0,2.326164766E0,1.016640767E0,2.089105487E0,3.287698695E0
6.236852667E0,2.572672561E0,1.723784317E0,-7.933689308E-1,3.196796950E0
6.246822667E0,3.724205377E0,9.492574543E-1,-8.854921643E0,9.653001228E0
6.256792667E0,3.291806704E0,6.547370026E-1,-1.168950210E1,1.216178981E1
6.266762667E0,2.505626632E0,-3.552724376E-1,-1.082911706E1,1.112088844E1
6.276732667E0,4.083410360E0,-2.043588714E0,-7.144267833E0,8.478859467E0
6.286702667E0,3.755610773E0,-3.859401774E0,4.133740561E0,6.788770533E0
6.296672667E0,3.633526757E0,-4.361806822E0,1.251806075E1,1.374517080E1
6.306642667E0,2.435193119E0,1.247026327E0,9.506417241E0,9.892280270E0
6.316612667E0,4.085235422E-1,7.635692979E0,2.852172393E-1,7.651930974E0
6.326582667E0,-1.639479454E0,1.685266661E0,-5.014314866E-1,2.404048697E0
6.336552667E0,-7.480641192E-1,-1.181106864E0,1.294382926E0,1.905266519E0
6.346522667E0,-2.556204609E-1,2.980607361E0,1.094652565E0,3.185533911E0
6.356492667E0,-1.050896315E0,4.082605491E0,2.106116207E0,4.712512720E0
6.366463667E0,6.374768259E-1,4.085376194E0,-1.375621802E-1,4.137100277E0
6.376433667E0,4.139233728E-1,-1.161530971E0,2.585353417E0,2.864356655E0
6.386403667E0,3.700512021E-1,-6.832998909E0,6.574284759E0,9.489364155E0
6.396373667E0,-8.747881928E-1,-2.638770656E0,7.372972317E0,7.879662794E0
6.406343667E0,-1.687505122E0,1.717190120E0,1.780811042E0,2.994612398E0
6.416313667E0,8.280304943E-1,-1.228881832E0,3.268354983E0,3.588583196E0
6.426283667E0,-3.866602913E-2,-1.955367386E0,2.096764755E-1,1.966957270E0
6.436253667E0,5.160166351E-1,-1.830923142E0,-3.536434034E0,4.015584440E0
6.446223667E0,6.717835365E-1,3.740493089E-2,-4.123933611E0,4.178459127E0
6.456193667E0,2.056525971E0,-2.583722629E0,6.896670409E0,7.646501450E0
6.466163667E0,4.449948920E-1,-4.420014100E0,8.263298609E0,9.381718872E0
6.476133667E0,2.055202015E0,-4.053535473E0,7.269675990E0,8.573400385E0
6.486103667E0,-7.470887306E-1,-6.970380995E-1,3.343739042E0,3.496368754E0
6.496073667E0,2.813258003E0,-1.260343945E-1,-7.265450792E0,7.792116559E0
6.506043667E0,3.574977125E0,-1.127284706E-2,-8.950539991E0,9.638088744E0
6.516013667E0,3.358583368E0,1.651072437E0,-1.037304126E1,1.102751592E1
6.525983667E0,1.434924263E0,4.984073067E0,-1.460317551E1,1.549686184E1
6.535953667E0,6.427513799E-1,4.306364400E0,-1.748122417E1,1.801530189E1
6.545923292E0,1.253303897E0,-1.105152994E-2,-1.102285286E1,1.109388020E1
6.555893292E0,-1.163227760E0,-5.467068282E0,2.513751689E1,2.575144054E1
6.565863292E0,-8.455695831E-1,-1.682418190E0,2.026469061E1,2.035198281E1
6.575833292E0,4.404245036E0,2.525233808E0,2.081250338E0,5.486873708E0
6.585803292E0,2.880293992E0,4.242900768E0,-8.555838901E0,9.975002742E0
6.595773292E0,2.315221995E0,4.873165419E0,-7.102098298E0,8.918957020E0
6.605743292E0,3.827829295E-1,4.498786327E0,-4.451504572E0,6.340464821E0
6.615713292E0,9.006641686E-1,1.464927203E0,-4.457285714E-1,1.776480120E0
6.625683292E0,-5.359558598E-1,-4.263295856E0,5.005344653E0,6.596697305E0
6.635653292E0,-6.534726883E-1,-7.012682676E0,8.341581132E0,1.091726709E1
6.645623292E0,-7.325692170E-1,-1.710796482E0,4.550518398E0,4.916370608E0
6.655593292E0,1.695779955E0,2.821703721E0,-2.806436641E0,4.325941304E0
6.665563292E0,1.853712958E0,1.289634110E0,-6.680235722E0,7.051592527E0
6.675533292E0,6.948078983E-1,-6.232163587E0,-1.076610162E1,1.245919600E1
6.685503292E0,1.184185350E0,-7.972630595E0,-1.084118806E0,8.132677734E0
6.695473292E0,-2.645216919E0,-6.515369968E0,9.789746999E0,1.205347936E1
6.705443292E0,-1.130981608E-1,-5.095351428E0,9.992507973E0,1.121720165E1
6.715414292E0,-7.989994340E-1,9.781304204E-1,5.143756433E0,5.296543161E0
6.725384292E0,-2.778997997E0,-6.498118928E-1,-2.435757083E-1,2.864334912E0
6.735354292E0,-1.821895334E0,-5.984924598E0,2.989271473E0,6.933568272E0
6.745324292E0,-2.595915535E0,-5.872762138E0,5.115354168E0,8.209443395E0
6.755294292E0,3.874735659E-1,1.388561397E0,-2.144203216E-1,1.457468556E0
6.765264292E0,1.285603624E0,7.341785608E0,-1.365397945E0,7.577526255E0
6.775234292E0,8.519599320E-1,1.043413180E1,-2.286232084E-1,1.047135190E1
6.785204292E0,5.228588276E-1,9.668317872E0,-2.501213154E0,1.000029095E1
6.795174292E0,-1.088862652E0,1.522880127E0,-4.803616297E0,5.155532493E0
6.805144292E0,-2.290873896E0,-3.696868767E0,-4.195788290E0,6.043143326E0
6.815114292E0,-8.978582360E-1,-5.029943889E0,-4.214287126E0,6.623194163E0
6.825084292E0,-3.878435046E0,-1.161803743E0,-2.521684256E0,4.769794317E0
6.835054292E0,-3.359604877E0,-5.348661581E-1,-3.038458836E-1,3.415457371E0
6.845024292E0,5.775185265E-1,3.642511296E-1,-1.811460977E0,1.935871227E0
6.854994292E0,-2.617561343E0,3.090851058E0,-3.528757224E0,5.371881904E0
6.864964292E0,-1.561049435E0,2.578966796E0,-4.178218576E0,5.152228212E0
6.874934292E0,-1.756963758E0,-1.120993102E0,-4.526832497E-1,2.132714070E0
6.884904292E0,-4.281791038E-1,-5.843165871E0,1.363914506E0,6.015495617E0
6.894874292E0,1.334659717E0,-7.135467188E0,7.334402913E0,1.031938344E1
6.904844292E0,1.042845576E0,-3.962907139E0,8.335866063E0,9.288639454E0
6.914814292E0,1.825048006E0,1.356987310E0,3.340939980E0,4.041546082E0
6.924784292E0,3.125514229E0,6.618677990E0,-1.942620456E-1,7.322122320E0
6.934754292E0,4.675262897E0,6.510090517E0,-2.735456121E-1,8.019612765E0
6.944724292E0,2.282557255E0,2.301370525E-1,7.456568205E-1,2.412267560E0
6.954694292E0,1.866568353E0,1.286401769E0,1.522012693E-1,2.272019401E0
6.964664292E0,2.129272058E0,1.100677243E0,-2.636649871E0,3.563314810E0
6.974634292E0,2.444624093E0,2.766691947E-1,-9.223164082E-1,2.627432274E0
6.984604292E0,2.697436355E0,1.613267264E-1,-4.357657930E0,5.127511272E0
6.994574292E0,1.096703183E0,-4.181890920E0,-9.728673416E-1,4.431415169E0
7.004544292E0,1.529550046E0,-2.433907024E0,1.127720323E0,3.087908656E0
7.014514292E0,-7.493076027E-1,-2.990961903E-1,6.055540836E0,6.109050273E0
7.024484292E0,-1.775345065E0,-2.415812230E-1,6.939917001E0,7.167472328E0
7.034454292E0,5.058211376E-1,2.139724541E0,7.201441907E0,7.529610991E0
7.044424292E0,1.967656187E0,3.857707836E0,1.202384005E0,4.494364016E0
7.054394292E0,3.840549474E0,-1.963804919E0,-2.298027087E0,4.887461357E0
7.064364292E0,4.031752256E0,1.030742205E0,-2.994665530E0,5.126936452E0
7.074334292E0,-1.886462628E0,5.375316113E-1,-2.973972818E0,3.562610813E0
7.084304292E0,6.204335810E-1,-1.473521733E-1,-6.221873657E0,6.254467387E0
7.094274292E0,5.251567834E-1,1.476716652E0,-1.348065044E1,1.357145600E1
7.104244292E0,3.835406921E-1,-7.794616207E-1,-1.132658531E1,1.135985029E1
7.114214292E0,2.146796602E0,-2.069905278E0,-6.887838190E0,7.505701729E0
7.124185292E0,3.389022803E-1,-4.930784467E0,3.859379262E0,6.270749437E0
7.134155292E0,2.158280095E0,-5.217140744E0,2.259383775E1,2.328858593E1
7.144125292E0,3.989412568E0,8.569880989E-1,1.525803910E1,1.579422675E1
7.154095292E0,3.549456075E0,5.617320090E0,-3.411925178E0,7.469548637E0
7.164065292E0,1.106812873E0,2.482123456E0,-6.874310072E0,7.392030205E0
7.174035292E0,-4.789999228E-1,-3.622891257E0,1.347275670E0,3.894859909E0
7.184005292E0,3.166729937E-1,2.084333575E-1,1.217440000E0,1.275102507E0
7.193975292E0,4.415477391E-1,3.061594807E0,-1.702773517E-1,3.097954413E0
7.203945292E0,9.670479733E-1,1.447117462E0,-2.539362727E0,3.078586330E0
7.213915292E0,-6.082548541E-1,-8.723656914E-1,8.532379872E-1,1.363455511E0
7.223885292E0,-2.423376188E0,3.899350244E-1,-3.348215085E-1,2.477278126E0
7.233855292E0,-3.622821675E0,-1.848908885E0,5.437795951E0,6.790649878E0
7.243825292E0,-2.803666523E0,1.899297851E0,4.403049281E0,5.554702626E0
7.253795292E0,-2.802484216E0,-6.186333695E-1,2.461467290E0,3.780931928E0
7.263765292E0,-1.046963405E0,-2.408385974E0,9.200202066E-1,2.782605353E0
7.273735292E0,-1.642364617E0,-9.260019082E-1,-1.592277514E0,2.467830778E0
7.283705292E0,-1.972034436E0,-1.254499361E0,-3.356507607E0,4.090089458E0
7.293675292E0,1.891923196E0,-1.576959855E0,-9.121392708E0,9.448067565E0
7.303645292E0,3.899791343E-1,-4.585044745E0,-9.154921812E0,1.024633166E1
7.313615292E0,-2.369488030E-1,-6.295953201E0,-4.748425598E0,7.889405371E0
7.323585292E0,8.585740100E-1,-6.875601722E0,-1.822056717E0,7.164561330E0
7.333555292E0,2.510437721E0,1.694844693E-1,-7.338273185E-1,2.620977884E0
7.343525292E0,9.582578541E-1,3.998801734E0,6.335588552E0,7.553036193E0
7.353495292E0,8.081978352E-1,4.811360350E0,1.177765589E1,1.274815871E1
7.363465292E0,1.908993704E0,5.496623034E0,3.308356955E0,6.693455571E0
7.373435292E0,4.856279610E-1,3.962727337E0,-5.410228668E0,6.723809687E0
7.383405292E0,-1.232396447E0,-7.402785516E-1,-8.363980061E-1,1.663242304E0
7.393375292E0,-1.786973861E0,-1.509560170E0,5.917795054E0,6.363359630E0
7.403345292E0,-2.842912742E0,1.347674742E0,6.062848102E0,6.830556871E0
7.413315292E0,-1.436833963E0,6.034176865E0,8.051884925E-1,6.254926920E0
7.423285292E0,-1.785368070E0,5.964028988E0,-3.660573345E0,7.221978824E0
7.433255292E0,-2.608556923E0,7.425431782E-1,-6.645623129E0,7.177760540E0
7.443225292E0,-8.990266559E-1,2.148302114E-1,-6.749566158E0,6.812565175E0
7.453195292E0,-2.944473031E0,2.957673705E0,-7.529357269E0,8.608657042E0
7.463165292E0,-3.894978719E-1,-3.990962372E0,-7.347577860E0,8.370566866E0
7.473135292E0,-1.695540073E0,-6.676157874E0,-4.395753125E0,8.171204662E0
7.483105292E0,1.469276362E0,-7.194280238E0,2.833782899E-1,7.348247711E0
7.493075292E0,-1.412733056E0,-7.562818546E0,7.423699837E0,1.069127487E1
7.503045292E0,-2.633503521E-1,-3.697368412E0,8.098855024E0,8.906814205E0
7.513015292E0,-1.592872029E0,-2.124601595E0,1.105348525E1,1.136796857E1
7.522985292E0,-2.505946182E0,3.172582269E-2,8.218346969E0,8.591972980E0
7.532955292E0,-2.218048726E0,2.087998317E0,9.749227549E0,1.021405477E1
7.542926125E0,-1.560107887E0,1.925762933E0,4.524361464E0,5.158715552E0
7.552896125E0,-2.961373530E0,2.616164151E0,3.004755485E-1,3.962869365E0
7.562866125E0,-2.249210438E0,7.317302731E0,-3.383404214E0,8.369545443E0
7.572836125E0,-2.926554823E0,7.261945387E0,-1.180468874E1,1.416514208E1
7.582807125E0,1.551225528E0,1.855051385E0,-9.897342199E0,1.018846892E1
7.592777125E0,2.553564152E0,-6.839341968E0,-6.927027399E0,1.006384604E1
7.602747125E0,-9.393079600E-2,-6.609566274E0,6.654674034E0,9.379758836E0
7.612717125E0,2.145103102E0,2.970197856E0,7.282980745E0,8.152628481E0
7.622687125E0,6.140718981E0,4.410089036E0,2.246248823E-1,7.563581906E0
7.632657125E0,-4.865741136E-1,-1.989024252E0,-5.630120230E0,5.990928613E0
7.642627125E0,1.880630761E0,-4.019123147E0,-8.958079391E0,9.996864974E0
7.652597125E0,2.662341659E0,-5.378399935E0,-7.326130857E0,9.470345417E0
7.662567125E0,-1.596830887E0,-6.877135447E0,5.192502331E0,8.763956943E0
7.672537125E0,-1.103281154E0,-5.507010612E0,1.756728115E1,1.844325791E1
7.682507125E0,-1.740066474E0,-1.384707790E0,1.101735648E1,1.123954584E1
7.692477125E0,6.478508098E-1,3.352750478E0,-2.709719017E0,4.359268699E0
7.702447125E0,3.186788079E0,2.392006753E0,-7.094173567E0,8.136621729E0
7.712417125E0,1.395108671E0,7.108881068E-1,-1.648828860E0,2.273835243E0
7.722387125E0,8.347074299E-1,5.323682860E0,-3.748687962E0,6.564373323E0
7.732357125E0,1.112199109E0,8.107739868E0,-4.917675594E0,9.547563348E0
7.742327125E0,-3.433947838E0,2.730249468E0,-2.048870212E0,4.841913780E0
7.752297125E0,1.349579619E0,-4.351275402E0,6.390482213E0,7.848135172E0
7.762267125E0,2.596573347E0,-5.917485151E0,8.220488804E0,1.045635022E1
7.772237125E0,3.113507849E-1,-5.958502784E0,5.607704929E0,8.188226261E0
7.782207125E0,-4.271397612E-1,-1.142662883E-2,-1.795780499E0,1.845916180E0
7.792177125E0,-1.000550911E0,4.598406510E0,-6.410345789E0,7.952293864E0
7.802147125E0,1.008793219E0,1.179231077E0,-8.766449761E-1,1.782345675E0
7.812117125E0,2.125272563E0,3.737001132E0,-4.490205538E-1,4.322450738E0
7.822087125E0,1.946864073E0,3.673108022E0,-2.418330041E0,4.809399385E0
7.832057125E0,2.607049073E-1,5.577384192E-1,-4.877147958E0,4.915853069E0
7.842027125E0,2.605287782E-1,-3.670207803E0,4.595923197E0,5.887343254E0
7.851997125E0,1.019917693E0,-4.615568088E0,1.345895142E0,4.914787341E0
7.861967125E0,1.633166800E0,-3.809658049E0,4.791738263E0,6.335730726E0
7.871937125E0,-1.410558184E-1,1.896204966E0,-1.096886786E0,2.195142510E0
7.881907125E0,-2.772119917E0,5.900342284E0,-2.925973610E0,7.145628697E0
7.891877125E0,5.302437148E-1,5.896511189E0,-2.950727212E-1,5.927653035E0
7.901847125E0,1.666321792E-1,-1.940632403E-2,3.223453045E-2,1.708272622E-1
7.911817125E0,2.404813617E-2,-4.144022597E0,-3.455188141E0,5.395537665E0
7.921787125E0,1.518000333E0,-1.172698860E0,-7.053724283E0,7.309895614E0
7.931757125E0,-8.786961794E-1,-2.376095310E0,-3.266703145E0,4.133918884E0
7.941727125E0,1.506847208E0,-4.123526352E0,8.682976080E0,9.729754966E0
7.951697125E0,-9.192396033E-1,-2.010568026E-1,9.429964312E0,9.476795461E0
7.961667125E0,7.069279338E-1,4.098655221E0,1.833470482E-1,4.163212445E0
7.971637125E0,3.063144611E0,4.939423728E0,3.975767505E-1,5.825704159E0
7.981607125E0,-3.343875720E-1,2.671747490E0,-3.696690427E0,4.573354329E0
7.991577125E0,1.226091394E0,-2.019837909E0,-3.757917207E0,4.439029964E0
8.001547125E0,5.119264347E-1,-5.516042222E0,-2.740605179E0,6.180591170E0
8.011517125E0,-8.127147362E-2,-4.538132241E0,5.065512502E0,6.801519404E0
8.021487125E0,1.347755799E-1,-3.210567536E0,6.744808279E0,7.471167718E0
8.031457125E0,7.082275506E-1,-4.340967346E0,1.172439478E1,1.252226084E1
8.041427125E0,-1.077345903E0,2.190268750E0,3.381885692E0,4.170743606E0
8.051397125E0,-6.045821814E-1,4.139060943E0,-2.501364596E0,4.873824981E0
8.061367125E0,2.602631136E-1,-2.445124322E-1,-5.747084423E0,5.758168336E0
8.071337125E0,3.186525247E0,5.974395517E-1,-7.458249865E0,8.132426957E0
8.081307125E0,3.715061355E-1,-2.466281595E0,-6.454923207E0,6.920014113E0
8.091277125E0,2.239611357E0,-5.087189299E0,-4.374565739E0,7.073342873E0
8.101247125E0,-3.619344628E-1,-2.298734308E0,4.732344586E-1,2.374684574E0
8.111217125E0,-7.272547558E-3,1.376128755E0,5.669576656E0,5.834199405E0
8.121187125E0,-1.209738632E0,3.006498540E0,-2.202129827E0,3.918147114E0
8.131157125E0,-6.566808363E-1,-3.156066808E-1,-4.518038285E0,4.576407679E0
8.141127125E0,-2.139318013E0,-2.928437042E0,-3.026253358E0,4.723413433E0
8.151098125E0,-8.448305681E-1,4.405214797E0,6.191963394E0,7.645918308E0
8.161068125E0,3.344780577E-1,9.679401854E0,7.441361936E0,1.221378579E1
8.171038125E0,1.973819006E0,5.039939704E0,9.658910286E-1,5.498172348E0
8.181008125E0,1.511314773E0,-2.728989393E0,-1.992755653E0,3.701692929E0
8.190978125E0,-1.641695257E0,-6.532240940E0,-1.439984443E0,6.887589579E0
8.200948125E0,-1.987219801E0,-1.608140133E0,2.060410277E0,3.283359215E0
8.210918125E0,1.185294640E0,4.083565603E0,4.701389426E-1,4.278020809E0
8.220888125E0,-1.307115823E-2,3.129785620E0,-4.525120432E0,5.502039968E0
8.230858125E0,-1.059695351E0,1.278207189E-1,-2.282608564E0,2.519840120E0
8.240828125E0,-4.439694000E-1,-6.400048842E0,7.788790627E0,1.009073800E1
8.250798125E0,-2.402573549E0,-3.476333720E0,4.479587579E0,6.158243311E0
8.260768125E0,2.849165462E-3,1.571921894E0,-6.363118998E0,6.554405384E0
8.270738125E0,2.944418651E0,-2.622748700E0,-3.530552319E0,5.292750856E0
8.280708125E0,-2.860349724E-1,-4.856838531E0,3.005258930E0,5.718590540E0
8.290678125E0,-1.625781475E0,-7.936916971E-1,4.778683185E0,5.109689315E0
8.300648125E0,-1.521580291E0,2.019323062E0,4.048436701E-1,2.560619184E0
8.310618125E0,2.314422973E0,3.565100301E0,-7.392141829E0,8.527030824E0
8.320588125E0,-6.230534260E-1,-1.064412519E-1,2.036819100E-2,6.324082344E-1
8.330558125E0,-1.657381436E0,-7.854833758E-1,2.831390803E0,3.373525047E0
8.340528125E0,-1.033596012E0,-1.933863374E0,2.759243764E0,3.524425402E0
8.350498125E0,-1.839042147E0,-6.748324209E-1,4.176274377E0,4.612888736E0
8.360468125E0,5.533366718E-1,2.483874405E0,-2.140114258E0,3.325041739E0
8.370438125E0,1.509206413E0,1.306530517E0,2.230935550E0,2.993626466E0
8.380408125E0,6.745599407E-1,2.656547946E-1,5.064945322E0,5.116568645E0
8.390378125E0,-1.114556340E0,-5.714404920E-1,1.447848948E0,1.914431155E0
8.400348125E0,2.009868406E0,2.494705787E-1,-7.029449567E0,7.315392525E0
8.410318125E0,2.022716932E0,-3.628908041E0,-1.487931612E1,1.544844346E1
8.420288125E0,8.522251032E-1,-5.240218534E0,-6.942409084E0,8.739749528E0
8.430258125E0,5.874347829E-1,-5.154920522E0,1.246403598E0,5.335897970E0
8.440228125E0,2.819379745E-1,-5.706329915E-1,1.049773430E1,1.051701177E1
8.450198125E0,1.032275930E0,4.033435670E-1,1.250511735E1,1.255413237E1
8.460168125E0,1.433014270E0,-1.294098167E0,1.096036717E1,1.112914501E1
8.470138125E0,2.392698187E0,6.724008563E-1,1.849747961E0,3.098176083E0
8.480108125E0,4.286123094E-1,-1.798214695E0,-2.567563264E0,3.163805575E0
8.490078125E0,1.944130792E0,1.449553996E-2,-1.923524035E0,2.734922187E0
8.500048125E0,3.012754184E0,2.177699283E0,-3.605817094E0,5.178897456E0
8.510018125E0,1.176763771E0,4.487724857E0,-2.955662262E0,5.500944171E0
8.519988125E0,-4.915118314E-1,4.943430240E0,-4.280493979E0,6.557569300E0
8.529958125E0,-4.393545947E-1,3.240217597E0,-8.093815894E0,8.729369866E0
8.539928125E0,-6.577095808E-1,3.195925231E0,-7.312703311E0,8.007630717E0
8.549897500E0,-1.338297708E0,1.468520610E0,5.481723744E-1,2.061088666E0
8.559867500E0,-1.841826153E0,5.694696879E-1,5.431800216E0,5.763772453E0
8.569837500E0,-1.083218188E0,-1.343151044E0,4.524103017E0,4.841995919E0
8.579807500E0,4.441480690E-1,5.979972006E0,-1.741800758E0,6.244293602E0
8.589777500E0,-1.173652906E0,6.036911023E-1,1.014117109E0,1.664433118E0
8.599747500E0,-1.086885927E-1,-4.685646383E0,3.115260260E0,5.627783020E0
8.609717500E0,1.368273313E-1,-2.315290699E0,9.805277789E-1,2.518080115E0
8.619687500E0,-2.315464362E0,-1.134006080E0,-3.105739823E0,4.036454490E0
8.629657500E0,9.012159265E-1,-2.114966260E0,-2.115607408E0,3.124270656E0
8.639627500E0,-3.038298220E-1,-4.176856760E0,9.010576862E-1,4.283730840E0
8.649597500E0,-1.824334792E0,-1.183429670E0,1.710398871E0,2.766616619E0
8.659567500E0,-4.894406380E-1,2.351760368E0,2.906545066E0,3.770720513E0
8.669537500E0,-1.773370606E0,2.176310277E-1,2.765773934E0,3.292675512E0
8.679507500E0,7.405122209E-2,-3.882691526E-1,1.555101501E0,1.604548908E0
8.689477500E0,2.482454993E0,-2.634400155E0,-2.852080007E0,4.608362761E0
8.699447500E0,1.157869079E0,-3.214625796E0,-9.722457826E-1,3.552427575E0
8.709417500E0,5.084414211E-1,-2.325486489E0,7.026306689E-2,2.381456905E0
8.719387500E0,-6.998609159E-1,-4.288975658E0,2.326159211E0,4.929110891E0
8.729357500E0,-4.259028558E-1,-1.595818003E0,1.598522925E0,2.298543861E0
8.739327500E0,-2.015127831E0,6.738761088E-1,1.588839351E0,2.653160317E0
8.749297500E0,-8.772786681E-1,-3.404067689E-1,2.029351621E0,2.236909170E0
8.759267500E0,-1.300147111E0,-8.356062931E-1,2.344364517E0,2.807964633E0
8.769237500E0,-1.180107429E0,5.018954632E-1,-2.081036915E0,2.444435976E0
8.779207500E0,-1.706283601E0,1.248392529E0,-2.775392604E-1,2.132349801E0
8.789177500E0,-4.035414660E0,-1.196058487E0,2.920539207E0,5.122955850E0
8.799147500E0,-1.106488498E0,-2.923817741E0,3.845321971E0,4.955757061E0
8.809117500E0,-9.634314705E-2,4.756397107E-1,-1.436314146E0,1.516084913E0
8.819087500E0,-2.546301033E0,3.147175240E0,-4.449394897E0,6.015436467E0
8.829057500E0,-1.188400535E0,2.758557593E0,-5.839069896E0,6.566328737E0
8.839027500E0,-1.423525262E0,-3.692221985E0,-4.345907950E0,5.877571205E0
8.848998500E0,-2.149855281E-1,-3.940229883E0,-1.502824470E0,4.222571692E0
8.858968500E0,2.542704484E-1,2.781352963E0,1.842018526E0,3.345685284E0
8.868938500E0,5.022550669E-1,5.391687732E0,4.748741933E0,7.202298709E0
8.878908500E0,3.486647623E0,5.562160966E-1,4.584782497E0,5.786736433E0
8.888878500E0,-8.476541886E-1,1.161521323E0,7.419414997E-1,1.618062606E0
8.898848500E0,-9.982560982E-1,-1.166697278E0,-4.048001084E0,4.329435362E0
8.908818500E0,-3.650300372E0,1.910132449E0,-5.857904947E0,7.161588452E0
8.918788500E0,-3.363667522E0,2.212706856E0,-2.082000536E0,4.532665558E0
8.928758500E0,-3.962762420E0,-1.758155128E0,9.831297898E-1,4.445350339E0
8.938728500E0,4.235947040E-1,-1.481992595E0,5.723149431E-1,1.644165113E0
8.948698500E0,-1.121266167E0,-1.861475721E-1,4.143793094E0,4.296848839E0
8.958668500E0,-2.982256276E0,-1.042583986E0,4.490133033E0,5.490184744E0
8.968638500E0,-1.033653972E0,-2.875678200E-1,-1.695849829E0,2.006749219E0
8.978608500E0,3.861505968E-1,-1.387645139E0,-5.511851522E0,5.696944665E0
8.988578500E0,-8.311485220E-1,-4.075627716E0,-4.173636698E0,5.892435187E0
8.998548500E0,-1.748306809E0,-2.817612717E0,2.412773432E0,4.100852808E0
9.008518500E0,-1.495983374E0,-1.454321231E0,8.486422511E0,8.739129449E0
9.018488500E0,-1.182565963E0,-3.529297507E-1,6.725203734E0,6.837498587E0
9.028458500E0,-1.435927645E0,1.682887137E-2,1.134676756E0,1.830208390E0
9.038428500E0,2.997684374E-1,-1.519288767E0,7.040994895E-1,1.701133612E0
9.048398500E0,-4.071624566E-2,1.550426652E0,1.995795035E-1,1.563749531E0
9.058368500E0,-3.640227081E0,7.592515969E-1,-7.368760568E-1,3.790870944E0
9.068338500E0,-4.096409890E0,9.803646415E-2,-2.784425383E0,4.954110399E0
9.078308500E0,-2.656459360E0,-6.490038076E-1,-4.753852399E0,5.484258829E0
9.088278500E0,-1.412537613E0,-2.666419508E0,-5.126528782E-1,3.060697383E0
9.098248500E0,-7.007553206E-1,-1.319732653E0,2.354973705E0,2.789023744E0
9.108218500E0,1.410417851E-2,-1.244196859E-1,5.389190387E0,5.390644879E0
9.118188500E0,-9.472235003E-1,1.945357246E0,2.293949824E0,3.153387538E0
9.128158500E0,-1.643862089E0,-8.956419951E-1,6.204702723E-1,1.972166451E0
9.138128500E0,3.318311694E-1,-2.467896304E-1,-3.078323983E0,3.105977397E0
9.148098500E0,-1.150201259E0,-3.436732282E0,-5.643316226E0,6.706795788E0
9.158068500E0,-2.285227971E0,-1.628754492E0,-4.576634402E0,5.368490526E0
9.168038500E0,-1.618831913E0,-2.471581804E0,4.366541605E0,5.272192994E0
9.178008500E0,-9.137776460E-1,-1.574122494E0,7.817609214E0,8.026697019E0
9.187978500E0,1.111110284E0,2.910089941E0,-2.735644986E0,4.145713813E0
9.197948500E0,2.608699303E0,2.753826318E0,-7.033381820E0,7.991078229E0
9.207918500E0,3.377958044E-1,3.510507479E-1,-2.136097806E0,2.190948760E0
9.217888500E0,1.792625634E0,-3.339889820E0,4.999213847E0,6.273795483E0
9.227858500E0,4.493850546E-1,2.634395769E0,3.439620515E0,4.355798122E0
9.237828500E0,1.986783014E-1,6.236711551E0,-3.393314075E0,7.102860300E0
9.247798500E0,8.605858176E-1,3.852642685E-1,-7.932812226E-1,1.232205991E0
9.257768500E0,2.966335185E0,-3.630987311E0,-1.543879525E0,4.936271596E0
9.267738500E0,1.751612678E0,-1.872053334E-1,1.995303869E-2,1.761701148E0
9.277708500E0,1.308606278E0,2.572773718E0,7.326444268E-2,2.887383361E0
9.287678500E0,-1.372535641E0,4.050473579E0,2.163161058E0,4.792646040E0
9.297648500E0,4.071815697E-1,1.731455280E0,4.715625642E0,5.039926528E0
9.307618500E0,1.568000751E0,5.022523187E0,-3.769522176E0,6.472531418E0
9.317588500E0,-1.441804152E-1,2.663141266E0,-7.059839886E0,7.546817118E0
9.327558500E0,-1.318925591E0,-5.031900367E-1,-1.944419060E0,2.402817181E0
9.337528500E0,4.398878973E-1,-5.506848060E0,1.018959773E0,5.617575628E0
9.347498500E0,2.409121261E0,-5.783378676E0,6.428557527E0,8.976507452E0
9.357468500E0,3.785026653E0,5.459165186E-1,3.532195972E0,5.205848633E0
9.367438500E0,-4.773340511E-1,3.401025968E0,4.118094581E-1,3.458961182E0
9.377408500E0,-2.492066683E-1,1.652987107E0,-9.603402668E-1,1.927880642E0
9.387378500E0,-9.106841035E-1,-2.705529487E0,-2.162679248E0,3.581398731E0
9.397348500E0,6.049758086E-1,-1.842373745E0,-1.157986681E0,2.258599100E0
9.407318500E0,9.165031794E-1,1.091306788E-1,5.110349536E-1,1.055009150E0
9.417288500E0,1.632204933E0,-2.591345644E-1,-1.194864485E0,2.039349113E0
9.427258500E0,2.037932849E0,-2.031930828E-1,-2.984404251E0,3.619547825E0
9.437228500E0,1.416294010E0,-1.177344181E0,-1.778769779E-1,1.850315720E0
9.447198500E0,1.613019927E0,-9.648145562E-1,2.659018394E0,3.256236974E0
9.457168500E0,7.240934587E-1,-4.515452646E0,4.092883726E0,6.137207926E0
9.467138500E0,1.612165795E0,-2.232753157E0,2.679418160E0,3.842336124E0
9.477108500E0,1.697286929E0,1.587746214E0,2.269935894E-1,2.335218844E0
9.487078500E0,-3.595198916E-1,-8.849886605E-1,7.944214296E-1,1.242402869E0
9.497048500E0,9.921299703E-2,-2.114581221E-1,-1.227071534E0,1.249104601E0
9.507018500E0,2.296923352E-1,-1.912160556E0,-2.788923061E-1,1.945995241E0
9.516988500E0,3.719192048E-1,-4.379694040E0,3.134419831E0,5.398576799E0
9.526958500E0,9.148523643E-1,-2.358762994E0,4.151937096E0,4.862026261E0
9.536928500E0,6.444621290E-1,4.746597174E-1,2.442978394E-1,8.368480850E-1
9.546898375E0,-1.319134629E0,7.451425579E-1,3.329755425E0,3.658227001E0
9.556868375E0,-9.069539454E-2,1.723501897E-1,1.771702250E0,1.782374569E0
9.566838375E0,7.673262363E-1,4.916034865E0,-3.009433258E-1,4.984651967E0
9.576808375E0,-2.543246448E-2,3.520427281E-1,-5.329613691E0,5.341288514E0
9.586778375E0,1.065137940E-1,-1.228979188E0,-9.705793846E0,9.783872915E0
9.596748375E0,-1.852653734E-3,-3.379685677E0,-6.699875935E0,7.504039995E0
9.606718375E0,-3.624115225E-2,1.835476077E-1,-2.857374660E0,2.863493163E0
9.616688375E0,3.298984453E-2,2.176272855E0,3.614551665E0,4.219269559E0
9.626658375E0,-1.504868218E0,4.238920569E0,5.470525156E0,7.082352817E0
9.636628375E0,6.086381391E-1,5.312382531E-1,2.222308568E0,2.364595069E0
9.646598375E0,3.647724089E0,8.118896940E-1,-1.638879822E0,4.080561601E0
9.656568375E0,1.365711941E0,3.615114460E0,-1.691162117E0,4.218323241E0
9.666538375E0,8.401842244E-2,1.386420439E0,1.460059689E0,2.015191064E0
9.676508375E0,1.645954661E0,4.168906008E0,-6.207883608E-1,4.524856046E0
9.686478375E0,1.647584865E0,9.134938368E-1,2.146378380E-1,1.896068638E0
9.696448375E0,-3.661248699E-1,-3.531241121E0,4.313888597E-1,3.576284053E0
9.706418375E0,-2.411954530E0,1.167895373E0,-5.253868275E0,5.897850125E0
9.716388375E0,5.704398141E-1,-1.813810973E0,-1.039322000E1,1.056571502E1
9.726358375E0,-6.436336517E-1,-4.751548304E0,-3.881943083E0,6.169356341E0
9.736328375E0,-2.408723212E-1,-8.344341018E0,1.362996727E1,1.598318036E1
9.746298375E0,-1.416321346E0,-3.827713958E0,2.419378096E1,2.453561488E1
9.756268375E0,2.205420640E-1,2.473973899E0,7.758876856E0,8.146738963E0
9.766238375E0,6.029106159E0,4.889466872E0,-1.042826821E1,1.300022251E1
9.776208375E0,-5.277779440E-1,4.128894389E-1,-1.083339138E1,1.085409582E1
9.786178375E0,-3.387953932E0,-5.900655695E0,-2.106372900E0,7.122694453E0
9.796148375E0,-4.457386579E-1,-3.775483412E0,2.448050854E0,4.521715485E0
9.806118375E0,3.268728767E-1,-1.234259516E-2,4.547170283E0,4.558920464E0
9.816088375E0,1.194359578E-2,3.126195430E0,1.533957385E0,3.482278819E0
9.826058375E0,7.407556113E-1,2.806974000E0,3.308658671E-1,2.921864839E0
9.836028375E0,-3.120821985E-1,-7.704466760E-2,5.667098022E-1,6.515298760E-1
9.845998375E0,-1.947778431E-1,-8.677867368E-1,1.595496991E0,1.826637040E0
9.855968375E0,1.083579838E0,2.496584790E0,-2.054986399E-1,2.729342516E0
9.865938375E0,9.561867703E-1,1.804868826E-1,5.697181946E-1,1.127584798E0
9.875908375E0,1.457149383E0,-3.003643345E0,-2.047861567E0,3.916490095E0
9.885878375E0,4.458344060E-1,-1.285501006E0,-3.211335275E0,3.487686253E0
9.895848375E0,4.767546286E-1,2.217232600E0,-2.245944768E0,3.191815045E0
9.905818375E0,1.780576276E0,-3.369905039E0,5.915926868E0,7.037393165E0
9.915788375E0,-1.287078584E0,-5.082043750E0,3.652198963E0,6.389232913E0
9.925758375E0,-3.970429728E-1,-9.912895793E-1,-3.828250440E0,3.974392983E0
9.935729375E0,2.109760923E0,1.958944421E0,-7.026089172E0,7.593054949E0
9.945698375E0,1.389301801E0,1.004825299E0,-2.441218967E0,2.983183437E0
9.955668375E0,2.692153835E-1,2.058685640E0,1.192359538E0,2.394239912E0
9.965639375E0,-1.575765561E0,7.833397865E-1,1.063341309E0,2.056052788E0
9.975609375E0,-8.392758594E-1,1.089867203E0,3.150554638E0,3.437759302E0
9.985579375E0,2.738324180E-1,-1.239866411E0,3.858631988E0,4.062178446E0
9.995549375E0,4.769426458E0,-2.512749418E0,8.982200325E-1,5.465174983E0
1.000551937E1,2.712127777E0,3.485148982E0,-1.722067575E0,4.739980721E0
1.001548937E1,1.679601586E0,5.652823799E0,-1.834700151E0,6.175888846E0
1.002545937E1,1.265672220E-1,3.362060415E0,-2.032719033E0,3.930828941E0
1.003542938E1,-5.909063480E-1,-1.103787962E0,-1.187263690E0,1.725431322E0
1.004539938E1,5.833900446E-1,2.716715795E-1,-9.825438988E-1,1.174539018E0
1.005536937E1,-1.634731515E0,2.516389602E0,-2.594561613E0,3.966902282E0
1.006533937E1,1.005060795E0,-2.023123460E0,1.163943239E0,2.541247646E0
1.007530938E1,6.514958178E-1,-4.342746361E0,3.451671626E0,5.585510699E0
1.008527938E1,2.647053529E-1,-2.869538331E0,1.442864782E0,3.222759366E0
1.009524937E1,1.732567566E0,-1.160105712E0,-5.405949676E-1,2.154037732E0
1.010521937E1,-1.508687985E-1,1.420689509E0,-7.261148411E-1,1.602611256E0
1.011518938E1,-2.860055170E-1,-2.123160841E0,-2.219720006E0,3.084925934E0
1.012515938E1,-3.141136674E-1,-7.691429808E0,3.965443076E0,8.659185798E0
1.013512937E1,-2.005406031E-1,-3.092252343E0,5.525920508E0,6.335458827E0
1.014509937E1,8.457549398E-1,1.943244646E0,3.533247886E0,4.120114294E0
1.015506938E1,7.325001468E-1,1.601642999E0,-8.549137992E-1,1.957726836E0
1.016503938E1,1.076469039E0,3.265956455E-1,-1.114178756E0,1.583301806E0
1.017500937E1,-1.228832277E0,-1.345325623E0,6.620135701E-1,1.938605623E0
1.018497937E1,6.042265976E-1,-2.065320184E0,2.951840522E0,3.652943979E0
1.019494937E1,1.315186296E0,3.833693321E0,-1.959473301E0,4.501827972E0
1.020491938E1,1.793476257E-1,5.673191405E0,-3.207205971E0,6.519465962E0
1.021488938E1,4.409257416E-1,8.146092340E-1,-6.294227103E0,6.362020005E0
1.022485937E1,-2.421198978E-1,-5.008072379E0,-5.768716782E-1,5.046998309E0
1.023482937E1,1.517616171E0,-3.133335465E0,2.887478465E0,4.523105335E0
1.024479938E1,-9.479188073E-2,2.797015607E-1,1.071506946E0,1.111461020E0
1.025476938E1,-1.341449796E0,1.512965004E0,-8.039699328E-1,2.175986744E0
1.026473937E1,7.510350164E-1,-1.325212955E-1,-2.358439935E0,2.478679974E0
1.027470937E1,1.674382654E0,-8.937586069E-1,-2.355965393E0,3.025381737E0
1.028467938E1,-1.116197508E0,-2.515632972E-1,5.265844542E-1,1.259552363E0
1.029464938E1,5.833113265E-1,-1.881674635E0,4.502204025E0,4.914345594E0
1.030461937E1,1.714400413E0,-4.513123700E-1,4.307001747E0,4.657586895E0
1.031458937E1,-6.860169750E-1,-1.220591649E-1,1.288267908E0,1.464633720E0
1.032455938E1,3.790260569E-1,-2.429708138E-1,-2.438617541E0,2.479828840E0
1.033452938E1,-3.296788093E-1,2.768532650E0,-2.494920965E0,3.741402381E0
1.034449937E1,1.587851610E-2,4.293677404E0,-9.529435390E-1,4.398183621E0
1.035446937E1,-5.432381649E-1,1.913898641E0,-1.247883528E-1,1.993411107E0
1.036443938E1,9.210672967E-2,7.113702098E-1,-1.082771607E0,1.298816992E0
1.037440938E1,1.934261423E0,-2.011009490E0,1.036946393E0,2.976706947E0
1.038437938E1,1.153495142E0,-1.812038974E0,1.946319990E0,2.898654479E0
1.039434937E1,9.427984737E-2,2.295183294E0,4.682660794E-1,2.344360929E0
1.040431937E1,-1.084693221E0,2.204886205E0,5.314963492E0,5.855503350E0
1.041428938E1,-9.342497713E-1,-1.116093720E0,-2.224282588E0,2.658179990E0
1.042425938E1,-7.736078270E-2,-2.696160785E0,-5.775346355E0,6.374158234E0
1.043422937E1,-7.239746140E-1,-1.427837730E0,-6.026891819E0,6.235886851E0
1.044419937E1,2.470867859E0,1.421090920E0,-3.898552684E0,4.829430650E0
1.045416938E1,-1.935872404E-1,-2.328612411E0,4.057534969E-1,2.371612886E0
1.046413938E1,2.351529257E0,-5.875567047E0,9.438594802E0,1.136393637E1
1.047410937E1,-1.756052250E-1,-2.112616557E0,8.859291852E0,9.109392846E0
1.048407937E1,7.063717905E-2,2.286082688E0,-6.714749497E-1,2.383703479E0
1.049404938E1,1.892923509E-1,1.355806757E0,-5.528625430E0,5.695589759E0
1.050401938E1,-4.202542701E0,-8.817314690E-1,-1.818139082E0,4.663093958E0
1.051398937E1,-3.336065156E0,-3.335427225E-1,1.475529082E0,3.663027101E0
1.052395937E1,-2.211703181E0,-2.629764774E-1,2.440379891E0,3.303973608E0
1.053392938E1,-1.310260309E0,1.429145167E0,1.218045187E0,2.289731876E0
1.054389900E1,2.342503641E0,1.546525683E0,4.112656671E-1,2.836935749E0
1.055386900E1,-2.741302971E-1,-1.265987385E0,1.451725067E0,1.945604572E0
1.056383900E1,-8.627402973E-1,-6.766643536E-1,2.409313050E0,2.647070993E0
1.057380900E1,3.190170693E-1,4.521128538E-1,-2.144896111E0,2.215120143E0
1.058377900E1,1.134778095E-1,-1.114168231E0,-2.717151997E0,2.938905074E0
1.059374900E1,9.009416190E-1,-3.399085861E-1,-7.667582524E-1,1.230915052E0
1.060371900E1,-5.105797479E-1,-1.393034810E-1,-5.211623311E-3,5.292677014E-1
1.061368900E1,-5.776062347E-1,-5.206211128E0,5.143069970E0,7.340942173E0
1.062365900E1,-2.624567477E0,-1.023746012E0,4.001039171E0,4.893334731E0
1.063362900E1,5.264649517E-1,1.387672036E0,2.391996521E-1,1.503334793E0
1.064359900E1,-6.700116840E-1,-2.712242967E0,-1.774931082E0,3.309918113E0
1.065356900E1,-1.515368209E0,-4.164306296E0,-3.795434697E0,5.834647571E0
1.066353900E1,-1.124200153E0,-2.889056629E0,-1.056406512E0,3.275128838E0
1.067350900E1,-1.669774025E0,4.224513906E-1,-1.408851528E0,2.225190576E0
1.068347900E1,-1.612519551E0,4.856775089E0,-3.059687737E0,5.962396550E0
1.069344900E1,-1.102169891E0,2.124632877E0,-1.826222858E0,3.010636687E0
1.070341900E1,-4.200432149E-1,-4.312572097E0,3.930676702E0,5.850208007E0
1.071338900E1,1.969539429E0,-4.553860374E0,7.467169207E0,8.965229827E0
1.072335900E1,3.260800965E0,1.420255353E0,2.479010106E0,4.335370724E0
1.073332900E1,1.121841021E0,4.319902751E0,-2.284628778E0,5.013942132E0
1.074329900E1,-6.802368562E-1,2.258113409E0,2.776198350E0,3.642674241E0
1.075326900E1,3.347581393E-1,1.597227182E0,-3.210829491E0,3.601752865E0
1.076323900E1,-4.354064268E-2,2.868941330E0,-2.778301009E0,3.993955012E0
1.077320900E1,5.336181795E-1,3.660918331E0,-1.396755393E0,3.954490741E0
1.078317900E1,5.745904236E-1,1.827261031E0,-7.332823581E-1,2.051033897E0
1.079314900E1,7.758161011E-1,-1.939161243E0,1.794028088E0,2.753320492E0
1.080311900E1,7.533838429E-1,1.224638215E0,1.642191101E0,2.182685865E0
1.081308900E1,-3.689012741E-1,3.376994204E0,-1.195953822E0,3.601455754E0
1.082305900E1,1.447636402E0,2.590311564E0,-7.512372277E0,8.077196443E0
1.083302900E1,2.378179843E0,9.280551580E-1,-7.531121959E0,7.952032677E0
1.084299900E1,-5.407200797E-2,-4.351423921E0,-5.062788284E0,6.676049665E0
1.085296900E1,1.350915561E0,-8.233589491E0,4.073413668E0,9.284916137E0
1.086293900E1,1.259774134E0,-4.545854367E0,9.821137776E0,1.089525447E1
1.087290900E1,-7.719442028E-2,1.616649878E-1,9.256750488E0,9.258483901E0
1.088287900E1,1.412476071E0,1.842150966E0,3.833221743E0,4.481316521E0
1.089284900E1,-7.449177325E-1,4.644504789E-1,-2.126338803E0,2.300420261E0
1.090281900E1,-1.188459464E-1,-5.169350865E-1,-3.150959850E0,3.195292509E0
1.091278900E1,1.581196163E0,3.724574044E-1,-5.153483861E0,5.403452760E0
1.092275900E1,5.783791270E-1,-1.063561457E0,-3.255243772E0,3.473081830E0
1.093272900E1,7.675245300E-1,-2.811415545E0,2.755675208E0,4.010847432E0
1.094269900E1,1.086416396E0,2.830213174E-1,1.379882668E0,1.778897925E0
1.095266900E1,2.156860793E-1,-2.235489947E-1,-4.011478790E0,4.023488129E0
1.096263900E1,-3.852187333E-1,-1.718381198E0,-3.068735134E0,3.538129836E0
1.097260900E1,-4.193185987E-1,-4.795070007E0,2.479210666E0,5.414333752E0
1.098257900E1,-4.272198681E-1,-5.758506374E0,7.386290520E0,9.375510660E0
1.099254900E1,1.099887357E0,-2.245330811E-1,9.231173598E0,9.299179173E0
1.100251900E1,2.164407977E0,3.426482990E0,5.931113257E0,7.183561237E0
1.101248900E1,7.564809669E-1,1.851972826E0,2.885946495E0,3.511517332E0
1.102245900E1,7.681661157E-1,-4.452151859E-1,-2.410041613E0,2.568383990E0
1.103242900E1,-1.579699130E0,4.461305675E-1,-8.174862396E0,8.338036760E0
1.104239900E1,-2.075749424E0,-1.551266897E0,-7.473514606E0,7.910030671E0
1.105236900E1,-1.588094708E0,-4.108382941E0,-2.707528065E0,5.170257577E0
1.106233900E1,-1.736971250E0,1.561253942E0,-6.696770478E0,7.092342197E0
1.107230900E1,3.927542960E-1,6.662184198E0,-5.350537952E0,8.553783409E0
1.108227900E1,1.568974605E-1,1.306095192E0,-1.248227929E0,1.813442700E0
1.109224900E1,-3.021016226E-1,-3.153656586E0,6.863924248E0,7.559779847E0
1.110221900E1,5.014966465E-1,-2.485202308E0,1.424382201E1,1.446769487E1
1.111218900E1,1.733138108E0,2.380705840E0,7.725546557E0,8.267744409E0
1.112215900E1,2.496968075E0,5.380254087E0,-3.035429978E-1,5.939202131E0
1.113212900E1,1.212746952E0,3.370475143E0,-5.922095681E0,6.921132502E0
1.114209900E1,-4.186585065E0,1.656999174E0,-1.451052638E0,4.730612490E0
1.115206900E1,-3.884600935E0,4.235053220E0,-1.367957856E0,5.907377497E0
1.116203900E1,-1.670016831E0,3.077057476E0,5.879761255E-1,3.550064063E0
1.117200900E1,-3.434729903E0,1.716454248E0,-2.362321901E0,4.508231301E0
1.118197900E1,-3.702897685E-1,-5.250641781E-1,-2.079782102E0,2.176763767E0
1.119194900E1,-2.424997475E-1,2.772953146E0,-6.076742840E0,6.683926901E0
1.120191900E1,-3.542129952E-1,3.456998147E0,-6.237329017E0,7.140068368E0
1.121188900E1,8.087288354E-1,-4.642660577E0,-5.899513149E-1,4.749355968E0
1.122185900E1,-1.707569696E-2,-8.771039241E0,7.187443673E0,1.133978692E1
1.123182900E1,2.852990710E0,-4.948527258E0,7.620176223E0,9.523369345E0
1.124179900E1,2.273609115E0,-1.549777904E0,1.065933380E0,2.950817502E0
1.125176900E1,3.211868541E0,2.376434156E-1,-5.062183097E0,5.999855967E0
1.126173900E1,1.865198643E0,-2.307874676E0,-2.135654587E0,3.655991249E0
1.127170900E1,-9.106106479E-2,-3.811864203E0,-1.502152625E0,4.098178050E0
1.128167900E1,-1.008756674E0,-3.025737926E0,-1.284961308E0,3.438576099E0
1.129164900E1,-2.412743173E0,1.354881728E-1,-1.177200047E0,2.688026528E0
1.130161900E1,-3.122296799E0,3.172698921E0,-1.813028031E0,4.806435933E0
1.131158900E1,-1.901629720E0,-1.116052204E0,3.805858528E0,4.398446004E0
1.132155900E1,-3.707095547E0,-3.084334336E0,1.009468222E1,1.118741636E1
1.133152900E1,-2.036878888E0,7.824665049E-1,7.535105082E0,7.844675777E0
1.134149900E1,4.615392233E-1,1.611971228E0,2.355189468E0,2.891087533E0
1.135146900E1,1.851084634E0,-2.245019446E0,-8.284808761E-1,3.025393726E0
1.136143900E1,3.939711527E0,-4.525109323E0,-2.697710590E0,6.578418026E0
1.137140900E1,2.754401100E0,-2.602279645E0,-1.121276107E0,3.951688864E0
1.138137900E1,3.067658077E0,1.588558685E0,8.834675074E-1,3.565748113E0
1.139134900E1,3.055273966E-1,5.483132923E-1,2.669396033E0,2.742201604E0
1.140131900E1,-1.184607884E-1,-1.190764710E0,2.163336475E0,2.472241545E0
1.141128900E1,-1.508595818E0,-2.873999464E0,2.814377160E0,4.296097422E0
1.142125900E1,-2.023136031E0,3.476877218E-1,-3.896964580E-1,2.089456743E0
1.143122900E1,7.119488648E-1,4.078382339E0,-2.133893990E0,4.657636445E0
1.144119900E1,1.590426285E0,4.350478134E0,-7.195806946E0,8.557789046E0
1.145116900E1,1.404371684E0,1.204634306E0,-7.819920618E0,8.035829895E0
1.146113900E1,1.919767783E0,-3.107635783E0,-1.584560943E0,3.981675763E0
1.147110900E1,-2.867930639E-1,-4.263477997E0,3.999117191E0,5.852557834E0
1.148107900E1,-6.427979384E-1,2.469027740E-1,2.025783650E0,2.139614350E0
1.149104900E1,-3.152376484E-2,4.490906912E0,-4.596838871E0,6.426520540E0
1.150101900E1,7.630151573E-1,5.438666017E0,-9.778622671E0,1.121529052E1
1.151098900E1,4.079686780E-1,1.509211676E0,-9.795324658E0,9.919301562E0
1.152095900E1,1.019847527E0,6.996310472E-1,-8.994537365E0,9.079167087E0
1.153092900E1,4.851030273E-1,5.825687374E0,-1.011974222E1,1.168687900E1
1.154089900E1,9.195180038E-1,1.804683470E0,-2.309831446E-1,2.038565426E0
1.155086900E1,1.384046178E0,-3.091399527E0,2.127659104E1,2.154450420E1
1.156083900E1,2.360502102E0,-2.788425463E0,2.610953463E1,2.636389739E1
1.157080900E1,4.514365064E0,9.590535870E-1,1.103184120E1,1.195829402E1
1.158077900E1,3.917049181E0,6.279703789E0,-8.393373429E0,1.119047235E1
1.159074900E1,6.891778336E-1,1.358775096E0,-8.834826517E0,8.965232592E0
1.160071900E1,-1.157019259E0,-5.292359911E0,1.559259456E0,5.637291641E0
1.161068900E1,4.719972608E-1,-3.653353788E0,1.306453333E0,3.908528576E0
1.162065900E1,-6.708405268E-1,-2.278798811E0,5.288616523E0,5.797621561E0
1.163062900E1,-5.117726529E-1,-3.804555184E-1,5.537664641E0,5.574261146E0
1.164059900E1,1.747184144E0,-1.083070984E0,2.340317075E0,3.114928442E0
1.165056900E1,1.786963190E0,-3.230255696E0,1.813371263E0,4.112919235E0
1.166053900E1,7.242007551E-1,9.294614133E-1,-5.593249442E0,5.716012996E0
1.167050900E1,3.987479113E-1,1.157358982E0,-1.146506959E1,1.153023419E1
1.168047900E1,-6.714708567E-1,-1.070369370E0,-1.324260678E1,1.330275152E1
1.169044900E1,5.044044303E-1,-3.481193048E0,-1.134632785E1,1.187906917E1
1.170041900E1,1.643275174E0,-5.103276744E0,-4.613004084E0,7.072735927E0
1.171038900E1,1.190165882E0,-9.816189862E0,1.578981062E1,1.863041056E1
1.172035900E1,4.288916309E0,-6.570192293E0,2.823172308E1,2.930174769E1
1.173032900E1,2.319654769E0,1.289710124E0,1.518426478E1,1.541447526E1
1.174029900E1,9.069385964E-1,7.462728247E0,-8.481256496E0,1.133342677E1
1.175026900E1,-1.492027074E-1,1.274946197E0,-5.837001151E0,5.976481548E0
1.176023900E1,-1.860170915E0,2.297846408E0,1.751615310E-1,2.961590031E0
1.177020900E1,-1.585349367E-1,7.512516119E0,-1.251735674E0,7.617734175E0
1.178017900E1,2.212806989E0,7.699738702E0,-2.736087620E-1,8.016068400E0
1.179014900E1,1.267707490E0,7.453089112E-1,-3.594506240E0,3.883689324E0
1.180011900E1,2.223239007E0,9.714207405E-1,-6.535535846E0,6.971346981E0
1.181008900E1,1.452401006E0,-6.694883582E-1,-7.490593153E0,7.659417023E0
1.182005900E1,-5.253883697E-1,-4.502453993E0,-4.365950451E0,6.293619646E0
1.183002900E1,-2.630028484E0,-1.710323442E0,5.112817061E-1,3.178626289E0
1.183999900E1,-2.529394102E0,3.554774410E0,2.023448272E0,4.809220159E0
1.184996900E1,-9.759289438E-1,6.239487809E0,1.863034589E0,6.584416702E0
1.185993900E1,-2.293968243E0,3.875011209E-1,3.122740602E0,3.894092486E0
1.186990900E1,-1.841398941E-1,-5.236155304E0,-8.206005836E-1,5.303264578E0
1.187987900E1,1.035932925E0,-4.033409649E0,-3.153380013E-1,4.176240951E0
1.188984900E1,-1.908139426E0,1.960620233E0,-2.845609478E0,3.947470211E0
1.189981900E1,2.746144539E0,3.346592191E0,9.471004164E-1,4.431476990E0
1.190978900E1,2.116468118E0,4.752865974E0,-4.410198087E0,6.820485277E0
1.191975900E1,1.707429509E0,6.604495568E0,-3.417906879E0,7.629991132E0
1.192972900E1,2.402698972E0,8.126841552E0,-4.231998342E0,9.472503678E0
1.193969900E1,7.861742243E-2,6.020880881E-1,-2.516320020E-1,6.572742421E-1
1.194966900E1,-1.656661790E0,-1.023749228E1,2.206780702E0,1.060286081E1
1.195963900E1,-1.688872493E0,-1.521178412E1,8.987604906E0,1.774901993E1
1.196960900E1,-2.494111125E0,-9.266653333E0,7.167989987E0,1.197796037E1
1.197957900E1,-1.551730289E0,-2.809564025E0,5.427242897E0,6.305274170E0
1.198954900E1,-2.359880835E0,-1.724391551E0,3.591330618E0,4.630358451E0
1.199951900E1,2.528737167E0,-3.608117389E0,4.002907941E0,5.952839217E0
1.200948900E1,1.117667863E0,-1.493738189E0,2.472468241E0,3.097343125E0
1.201945900E1,-2.934270589E-1,-1.837634284E0,4.700547427E-1,1.919362045E0
1.202942900E1,1.437385648E0,2.616335767E0,-5.177504808E0,5.976440946E0
1.203939900E1,-1.972071127E0,3.107508898E0,-1.230970106E1,1.284812890E1
1.204936900E1,-1.869631564E0,-2.683492208E0,-8.736664045E0,9.328770082E0
1.205933900E1,-3.331268100E0,-2.993651915E0,-3.375989360E-1,4.491466574E0
1.206930900E1,-2.088367276E0,-1.545346299E0,9.805115236E0,1.014345394E1
1.207927900E1,-5.321215335E0,-7.558678132E-1,9.354227082E0,1.078833783E1
1.208924900E1,-3.273255827E0,2.947035280E0,-2.044999355E0,4.856052205E0
1.209921900E1,-2.970797780E0,3.810159740E-1,-2.825836533E0,4.117786388E0
1.210918900E1,-2.859421478E0,-2.658418178E0,7.988073676E0,8.891164123E0
1.211915900E1,-1.990508275E0,1.039239671E0,1.098988626E1,1.121693997E1
1.212912900E1,-2.394298277E0,3.383769665E0,2.784937599E0,4.993840087E0
1.213909900E1,-2.734279661E0,2.902523936E0,-4.970508111E0,6.372352889E0
1.214906900E1,1.763372599E0,2.016483654E0,-1.354394304E1,1.380630589E1
1.215903900E1,1.270208198E0,-1.776270095E0,-1.199125234E1,1.218846574E1
1.216900900E1,-4.441807403E-1,-3.012339324E-1,-4.201272393E0,4.235413573E0
1.217897900E1,5.670723843E-2,2.594056998E0,1.804685808E0,3.160575626E0
1.218894900E1,4.202926717E-1,6.888324094E0,2.583100485E0,7.368721929E0
1.219891900E1,2.225319446E0,4.974478371E0,5.293653899E0,7.597384636E0
1.220888900E1,3.694998243E0,7.060077283E-1,-4.136913260E0,5.591557051E0
1.221885900E1,3.418407401E0,6.505480573E-1,-4.513553470E0,5.699200546E0
1.222882900E1,1.985072119E0,1.226248538E0,-2.444544863E0,3.379348515E0
1.223879900E1,-4.661519821E-1,-4.512053660E-1,6.032766516E0,6.067549406E0
1.224876900E1,-4.185945672E-1,2.390359300E-1,2.896604800E0,2.936439843E0
1.225873900E1,-4.820082057E-1,4.919541441E0,-1.913954481E0,5.300701996E0
1.226870900E1,7.583992191E-1,6.725293196E0,-4.727368605E0,8.255467999E0
1.227867900E1,4.534965097E0,5.254050123E0,-2.867693827E0,7.509635078E0
1.228864900E1,3.693855112E0,5.943437433E0,-1.163153865E0,7.093795953E0
1.229861900E1,3.327734043E0,-4.291891372E-1,-2.395483800E0,4.122664165E0
1.230858900E1,3.491162259E0,-4.019312305E0,1.789306462E-1,5.326828465E0
1.231855900E1,6.341060961E0,-2.689763054E0,2.655614730E0,7.382152058E0
1.232852900E1,7.598909900E0,-3.018353770E0,-3.019490469E-1,8.181996356E0
1.233849900E1,3.959298091E-1,-5.649809559E0,1.098177266E-1,5.664730214E0
1.234846900E1,-1.674920159E0,-1.393829680E1,6.440532625E0,1.544545033E1
1.235843900E1,1.977820548E0,-9.952628793E0,7.352389534E0,1.253093077E1
1.236840900E1,-1.528137505E0,-1.763381662E0,5.428134012E-1,2.395697290E0
1.237837900E1,-1.800923125E0,-5.542175183E-1,1.663409477E0,2.513446289E0
1.238834900E1,7.152847014E-1,-2.115901230E0,6.909826060E0,7.261843182E0
1.239831900E1,-5.405461434E-1,-2.304034224E0,3.745505907E0,4.430527998E0
1.240828900E1,-5.602744297E-1,-3.708274931E-2,1.899723528E0,1.980967453E0
1.241825900E1,-2.197905945E0,2.831968801E0,-8.438210464E-1,3.682780443E0
1.242822900E1,-2.251935533E0,1.098414078E0,-1.533349859E0,2.937497051E0
1.243819900E1,-8.989114657E-1,-4.160228448E0,-3.446617293E0,5.476742949E0
1.244816900E1,-2.560294298E0,-8.045327273E-1,-6.015563423E0,6.587061795E0
1.245813900E1,-1.563758012E0,1.750972408E0,-2.351520340E0,3.322783683E0
1.246810900E1,-1.308880220E0,4.784998763E-1,-9.586720562E-1,1.691502786E0
1.247807900E1,-1.685508005E0,-1.972133108E0,6.264882267E-2,2.595028151E0
1.248804900E1,-1.255699063E0,-1.836950160E0,5.667647660E-1,2.296168183E0
1.249801900E1,-7.111124206E-1,-9.514261866E-1,6.127765059E-1,1.336558158E0
1.250798900E1,5.027248176E-1,1.028027635E0,3.096800015E0,3.301475942E0
1.251795900E1,1.652200364E0,1.175582999E0,-3.588867770E0,4.122103020E0
1.252792900E1,1.786720238E0,1.543905545E0,2.775071592E0,3.643766716E0
1.253789900E1,1.559515272E0,-8.669225183E-1,4.313630151E0,4.668088218E0
1.254786975E1,2.028122537E0,1.411772797E0,1.259423009E0,2.773541016E0
1.255783875E1,4.094386753E0,4.454873738E0,-4.019291840E0,7.263925233E0
1.256780975E1,3.736703508E0,4.708938766E0,-5.944870586E0,8.454498430E0
1.257777975E1,1.336591929E0,6.897711799E-1,-3.854773411E0,4.137818304E0
1.258774975E1,-1.127045262E0,-7.399952540E-1,4.030748874E-1,1.407228966E0
1.259771975E1,-1.217900615E0,2.731396399E0,2.633844377E0,3.985090262E0
1.260768975E1,-2.775423009E0,3.012365052E0,-1.199646923E0,4.268075541E0
1.261765975E1,-1.728696125E0,4.122152257E0,-5.323601584E0,6.951349750E0
1.262762875E1,-2.592099569E-1,2.123714572E-1,-2.455787305E0,2.478544477E0
1.263759875E1,-1.578622219E0,-8.830643418E-1,-1.220474120E0,2.182065036E0
1.264756875E1,-1.513785953E0,-2.954454812E-1,-1.330681856E0,2.037044463E0
1.265753875E1,2.766041079E-1,2.955567245E0,-2.624902815E-1,2.980065221E0
1.266750875E1,6.297363549E-1,-1.103382750E0,7.067595633E0,7.180872468E0
1.267747875E1,-1.294905813E0,-4.452050117E0,1.169866001E1,1.258396509E1
1.268744875E1,-3.530976389E-1,1.068935925E0,3.859473403E0,4.020303086E0
1.269741875E1,3.131429857E0,4.936849784E0,-3.854472864E0,7.002520960E0
1.270738875E1,2.106543931E0,2.564709238E0,-5.988365684E0,6.846589251E0
1.271735875E1,2.152224719E0,-2.948730096E0,-4.385000095E0,5.705725743E0
1.272732875E1,-5.098388325E-1,-3.297331445E0,-7.011448914E-1,3.409389161E0
1.273729875E1,-1.549779804E0,7.687363654E-2,3.881444315E0,4.180112076E0
1.274726875E1,-1.241645134E0,5.969773293E-1,3.574693535E0,3.830991835E0
1.275723875E1,-2.581040511E0,-1.013833227E0,2.162676324E0,3.516645677E0
1.276720875E1,-1.352824531E0,-2.439570344E0,6.811538458E-1,2.871516714E0
1.277717875E1,-1.087902173E0,-1.959042946E0,-3.837645746E0,4.443974041E0
1.278714875E1,4.584426109E-1,1.196392655E0,-6.469503239E0,6.595149519E0
1.279711875E1,7.224644244E-2,-1.404886824E0,-2.668080994E0,3.016219940E0
1.280708875E1,-8.147171883E-1,-4.622635325E0,1.404411737E0,4.899478929E0
1.281705875E1,-2.551463540E0,-4.640111483E0,6.108854579E0,8.084473084E0
1.282702875E1,-2.308812277E0,-1.228820144E0,2.093434766E0,3.350086893E0
1.283699875E1,-1.860495435E0,2.042071069E0,-1.835581911E0,3.316754207E0
1.284696875E1,-1.706006735E0,-1.821049534E0,-1.039471221E0,2.703179758E0
1.285693875E1,-1.454663440E0,-5.323009261E0,1.737286708E0,5.785208589E0
1.286690875E1,-1.126758895E0,-1.945853674E0,3.539916050E0,4.193678311E0
1.287687875E1,3.028992194E-1,4.790736928E0,3.288693354E0,5.818798177E0
1.288684875E1,1.633447759E0,5.756901314E0,1.065246917E0,6.078224684E0
1.289681875E1,1.777282832E0,-1.819220817E-1,-6.207246262E-1,1.891329948E0
1.290678875E1,1.358326322E0,-5.675641973E0,-2.324260620E0,6.281731420E0
1.291675875E1,8.421896001E-1,-6.279185725E0,1.186419352E0,6.445544785E0
1.292672875E1,3.162166916E-1,1.283595398E0,1.505849819E0,2.003794855E0
1.293669875E1,4.431277884E0,7.160749964E0,4.730222046E-2,8.421092639E0
1.294666875E1,3.141009058E0,3.121438428E0,-2.303428161E0,4.991502484E0
1.295663875E1,3.030351672E0,-4.680152339E-1,-1.378085234E0,3.361724025E0
1.296660875E1,3.721889003E0,9.627273926E-1,-2.089453982E0,4.375513653E0
1.297657875E1,1.979476772E0,2.586777214E0,-1.535467136E-1,3.260877373E0
1.298654875E1,2.283107624E0,4.023867578E0,-3.733139046E0,5.944780723E0
1.299651875E1,2.704167378E0,1.896477154E-1,1.739820306E0,3.221096422E0
1.300648875E1,-3.630925769E-1,1.738071989E0,3.139471825E0,3.606801048E0
1.301645875E1,5.481531882E-1,4.334221120E0,-8.771530992E-1,4.455933370E0
1.302642875E1,7.452984593E-1,3.611426913E0,-1.327250125E0,3.919115594E0
1.303639875E1,1.124933686E0,3.594958230E0,-1.550421975E0,4.073451703E0
1.304636875E1,2.461400778E-1,5.389893222E-1,-1.371013611E0,1.493577165E0
1.305633875E1,-1.040409699E-2,-1.809981339E0,8.786377072E-1,2.012000227E0
1.306630875E1,1.151201060E0,9.474761000E-1,2.109994081E0,2.583611786E0
1.307627875E1,1.453429531E0,1.138883243E0,6.351795280E-1,1.952681611E0
1.308624875E1,1.981214711E0,-2.931754459E0,1.137286368E0,3.716694260E0
1.309621875E1,9.031504047E-1,-2.193335907E0,-1.154210549E0,2.637916801E0
1.310618875E1,1.572142334E0,-1.135269079E0,-6.756136090E-1,2.053514341E0
1.311615875E1,1.408460349E0,-2.379801860E0,-3.375597596E-3,2.765362335E0
1.312612875E1,9.401602831E-1,-2.158097954E0,4.070921000E0,4.702519104E0
1.313609875E1,7.064869076E-1,-3.043086907E-1,1.066414606E0,1.314902141E0
1.314606875E1,8.534431513E-1,-8.430591542E-1,-2.754462495E0,3.004359764E0
1.315603875E1,-4.692705214E-1,-2.148136345E0,1.514575034E0,2.669951707E0
1.316600875E1,-4.988103991E-1,-3.971987573E0,1.604041527E0,4.312591600E0
1.317597875E1,8.461070884E-1,-4.623160405E0,-1.744458902E0,5.013247071E0
1.318594875E1,-1.080456402E0,-4.215101058E0,2.506234742E0,5.021521239E0
1.319591875E1,1.878374905E-1,1.013761891E0,8.177243382E-1,1.315929021E0
1.320588875E1,1.673355006E0,9.592497611E-1,-3.716285616E-1,1.964277187E0
1.321585875E1,3.949169618E-1,-1.929522693E-2,-3.365031677E0,3.388180914E0
1.322582875E1,1.885006744E-1,-3.223268565E0,-2.568885904E0,4.126035329E0
1.323579875E1,-1.794991783E-1,-3.795285593E0,-3.900127923E-1,3.819492461E0
1.324576875E1,-1.265381029E0,3.543921393E-1,2.417589199E0,2.751639597E0
1.325573875E1,1.603279927E0,2.033779718E0,1.252337353E0,2.876650015E0
1.326570875E1,-7.514005405E-1,1.829161961E0,-2.132190111E0,2.908035578E0
1.327567875E1,-2.487721288E-1,8.417780292E-1,1.414207578E0,1.664470155E0
1.328564875E1,-1.244873309E-1,9.495556623E-2,1.623115729E0,1.630649664E0
1.329561875E1,-8.666447756E-1,5.183433884E-1,7.324631631E-1,1.247499628E0
1.330558875E1,1.441000616E-1,1.272987379E0,1.829179795E0,2.233195114E0
1.331555875E1,8.403251423E-1,3.725594968E0,4.078825850E0,5.587756663E0
1.332552875E1,5.773194288E-1,3.428332757E0,2.807029549E0,4.468352952E0
1.333549875E1,5.258160204E-1,4.912663361E0,-3.085749947E0,5.825169227E0
1.334546875E1,1.679435233E0,5.054406885E0,-6.541611688E0,8.435651435E0
1.335543875E1,1.403793979E0,-1.453825387E0,-1.499589790E0,2.516548297E0
1.336540875E1,2.639339590E-1,-2.918360243E0,8.671490979E-1,3.055885338E0
1.337537875E1,-1.212908773E-1,-5.129613188E-1,1.060357475E0,1.184144741E0
1.338534875E1,-5.484940078E-1,2.861770012E0,-1.013935261E0,3.085229002E0
1.339531875E1,-3.789982460E-3,-2.541989297E-1,8.641833901E-1,9.008020824E-1
1.340528875E1,-6.953845069E-1,-3.699219933E0,1.642564153E0,4.106799815E0
1.341525875E1,-1.596968881E-1,-1.109190204E0,-8.135932803E-1,1.384824910E0
1.342522875E1,-7.610743202E-1,1.166396731E0,-3.800562120E0,4.047713908E0
1.343519875E1,-1.170347549E0,-8.120955160E-1,-1.065352167E0,1.778816390E0
1.344516875E1,-1.188509147E0,-1.896575095E0,1.609582933E0,2.756865666E0
1.345513875E1,-2.046856577E0,5.195058149E-1,-1.521214548E0,2.602614424E0
1.346510875E1,-9.053328779E-1,1.783082393E0,7.760377836E-1,2.145051301E0
1.347507875E1,5.584244438E-2,1.063306226E0,1.219035121E0,1.618575032E0
1.348504875E1,8.812951206E-1,-6.975377440E-1,9.191226590E-1,1.451904424E0
1.349501875E1,-4.122833384E-1,-9.472068357E-1,-1.399640409E0,1.739589496E0
1.350498875E1,-6.765346916E-1,1.150516278E0,-2.578908032E0,2.903817062E0
1.351495875E1,9.224552795E-1,2.660053352E-1,-3.511796790E-1,1.022257183E0
1.352492875E1,-1.496690229E-1,-3.674950479E0,1.260868440E0,3.888116648E0
1.353489875E1,-1.096930932E0,-5.104361987E0,4.377746040E0,6.813400704E0
1.354486875E1,-1.759464758E0,-4.252874364E0,4.315284913E0,6.309068114E0
1.355483800E1,-2.965259736E-1,1.182076040E-1,-1.538405362E0,1.571175276E0
1.356480800E1,-4.379434423E-1,-2.764937490E0,4.815965617E-1,2.840529709E0
1.357477800E1,-7.943693163E-1,-3.931138924E0,4.351359310E0,5.917702569E0
1.358474800E1,1.685383021E0,-8.284633344E-1,4.076064211E0,4.487891139E0
1.359471800E1,1.114844974E0,-6.274995026E-1,4.965388289E0,5.127544812E0
1.360468800E1,3.779587573E-1,-1.383398598E0,1.495827107E0,2.072231463E0
1.361465800E1,-2.467954045E-1,-1.496500414E0,-4.726244186E0,4.963648412E0
1.362462800E1,2.112759814E-2,-3.135229670E0,-7.671073312E-1,3.227780215E0
1.363459800E1,1.010671637E0,2.693475451E0,-2.113880140E0,3.569979890E0
1.364456800E1,8.116198450E-1,2.699586084E0,-4.592383878E0,5.388550963E0
1.365453800E1,6.741529014E-1,-3.055044463E-1,-1.634820685E0,1.794562279E0
1.366450800E1,7.539972889E-1,-1.696309420E0,2.197676003E-2,1.856464527E0
1.367447800E1,8.777127508E-1,3.031281964E0,-2.183811670E0,3.837718518E0
1.368444800E1,2.146432650E-1,3.096858195E0,-1.245468628E-1,3.106785208E0
1.369441800E1,3.502462441E-1,5.025044507E0,-3.252250582E-1,5.047723850E0
1.370438800E1,-1.114321575E0,4.634161064E0,-7.982174420E-1,4.832629970E0
1.371435800E1,-1.971771311E0,1.191416090E0,-2.695047768E0,3.545509396E0
1.372432800E1,-1.318719074E-1,1.292002817E0,-7.261434925E-1,1.487933416E0
1.373429800E1,-5.863995700E-1,4.628534288E0,-3.323165613E-1,4.677352714E0
1.374426800E1,9.729894023E-1,4.443613755E0,-3.345262241E-1,4.561175218E0
1.375423800E1,4.999690249E-1,2.881311992E0,3.875867826E-1,2.949940903E0
1.376420800E1,1.543329448E-1,-1.422123246E0,4.013922341E0,4.261200036E0
1.377417700E1,-1.437547324E0,-3.291346235E0,6.783785818E0,7.675887726E0
1.378414700E1,1.324494186E0,9.449597508E-2,1.330560819E0,1.879788933E0
1.379411700E1,-9.394585441E-1,3.842817609E0,-4.391149027E0,5.910331574E0
1.380408700E1,7.877525340E-1,-1.066007932E0,-5.839529487E0,5.988074115E0
1.381405700E1,5.662366528E-1,-7.139145672E0,-6.059446192E0,9.381093381E0
1.382402700E1,2.450358019E0,-8.327369474E0,2.113778399E0,8.934058199E0
1.383399700E1,2.363834503E-1,-2.308398586E0,4.334722227E-1,2.360609950E0
1.384396700E1,-9.923327225E-1,-9.965842330E-1,2.599978473E0,2.955975715E0
1.385393700E1,1.097160435E0,-1.226367237E0,5.408362237E0,5.653151308E0
1.386390700E1,6.405977042E-1,-1.084063842E0,1.640226436E0,2.067825571E0
1.387387700E1,3.117124644E0,-1.694827444E0,-2.171767575E0,4.159985638E0
1.388384700E1,2.888794601E-1,-5.370974556E-1,3.184348036E0,3.242221065E0
1.389381700E1,-4.322880153E-1,-3.592535144E-1,4.657097937E0,4.690895139E0
1.390378700E1,-1.653595218E0,-1.376030522E0,2.299552626E0,3.148933061E0
1.391375700E1,-1.139260534E0,-7.081200349E-1,-3.720602615E0,3.955026216E0
1.392372700E1,-1.139469572E0,5.698459563E-1,-2.480039801E0,2.788137861E0
1.393369700E1,-2.384231418E0,1.746005783E0,-4.374219584E0,5.278910173E0
1.394366700E1,-3.156383435E0,-5.090459647E0,6.843639672E-1,6.028589375E0
1.395363700E1,-1.694485528E0,-2.745046139E0,1.129659845E0,3.417995154E0
1.396360700E1,-2.140057540E0,2.158146486E0,-5.412621349E-1,3.087135765E0
1.397357700E1,-2.773424650E-1,2.073956229E0,3.861705869E0,4.392150442E0
1.398354700E1,1.301792956E0,1.624384575E0,4.320970745E0,4.796256700E0
1.399351700E1,6.392027047E-1,1.559154207E0,9.332062626E-1,1.926243979E0
1.400348700E1,1.407739680E0,1.343586076E0,-4.908949209E0,5.280600050E0
1.401345700E1,1.567512217E0,-5.720088413E-1,-5.188868871E0,5.450564083E0
1.402342700E1,2.527899553E0,1.507640237E-1,-2.682487949E0,3.689003597E0
1.403339700E1,8.622121476E-1,1.623288222E0,-1.354060194E0,2.282970312E0
1.404336700E1,2.873910879E0,4.833216072E0,2.493515879E0,6.151175723E0
1.405333700E1,3.452556894E0,5.953862434E0,-2.346678845E0,7.271556133E0
1.406330700E1,9.030591881E-1,-5.474753863E-1,-2.543777960E0,2.754278763E0
1.407327700E1,-6.301864444E-1,-5.851232690E-1,-2.816542969E0,2.944897025E0
1.408324700E1,-1.169122411E0,1.343865573E-2,-2.578699871E0,2.831381435E0
1.409321700E1,-3.337304546E-1,-1.828625771E0,4.519117096E0,4.886478032E0
1.410318700E1,1.626847788E-1,4.107636836E-1,8.647217433E0,8.658496548E0
1.411315700E1,2.934663157E0,-6.419836405E-1,3.730751628E-1,3.027139890E0
1.412312700E1,7.035609609E-1,-1.207253858E0,-4.791987355E0,4.991553136E0
1.413309700E1,9.069062175E-1,1.232959095E0,2.815340781E-1,1.556254624E0
1.414306700E1,-9.410903558E-1,-2.899287795E0,-3.341113642E0,4.522671903E0
1.415303700E1,-1.854392404E0,-4.715445548E0,5.400196016E-2,5.067259034E0
1.416300700E1,-8.901497785E-2,5.254851776E-1,4.269560856E0,4.302697786E0
1.417297700E1,1.382615072E0,4.262967828E0,8.208619541E-1,4.556131416E0
1.418294700E1,-9.989509667E-1,-7.566127485E-1,2.163121297E0,2.499891924E0
1.419291700E1,-7.420999593E-1,-4.431291917E-1,1.721073548E0,1.925920556E0
1.420288700E1,-1.514122752E0,-1.112537735E0,1.846100467E-1,1.887958895E0
1.421285700E1,-3.471896853E0,-2.203901826E0,2.744621632E0,4.944107494E0
1.422282700E1,-1.870650879E0,1.024180752E0,-3.788352549E-2,2.133006350E0
1.423279700E1,-4.564994350E-3,4.469611645E-1,-1.872105374E0,1.924726904E0
1.424276700E1,2.057036945E-1,-1.238309882E0,-3.520236077E0,3.737350319E0
1.425273700E1,1.062395230E-2,-4.390127519E0,1.790774113E-1,4.393791212E0
1.426270700E1,-1.972586706E-1,-4.952815606E0,4.614390458E0,6.772140925E0
1.427267700E1,-7.250136642E-1,-4.508171108E-1,4.236679623E0,4.321843948E0
1.428264700E1,-1.640867218E-1,2.475092179E0,-1.086234328E0,2.707934779E0
1.429261700E1,-1.310910227E0,1.879810250E0,-2.552549368E0,3.430405294E0
1.430258700E1,-1.736945669E0,-3.078028114E0,8.775670820E-1,3.641615206E0
1.431255700E1,-2.914793441E0,-1.384528865E0,-9.179485381E-1,3.354932265E0
1.432252700E1,-1.012157122E0,9.595523545E-1,-2.380404416E0,2.758899771E0
1.433249700E1,-1.115994244E0,-6.173428890E-1,-5.142651894E0,5.298435986E0
1.434246700E1,3.687920773E-1,-3.780443313E0,-5.099052715E-1,3.832461692E0
1.435243700E1,-1.474496756E-1,-3.409454729E0,6.127623557E0,7.013835856E0
1.436240700E1,-1.500812699E-1,2.678541663E0,5.021915662E0,5.693570649E0
1.437237700E1,-4.723181999E-1,6.848667108E0,-1.255826971E0,6.978855710E0
1.438234700E1,1.450743612E0,5.923290267E0,-7.546634622E0,9.702665548E0
1.439231700E1,1.328523941E0,2.514394824E0,-8.620124944E0,9.077098173E0
1.440228700E1,1.797368749E0,3.452163962E-1,-3.822855214E0,4.238387756E0
1.441225700E1,1.251205332E0,-2.099316480E0,2.624179514E0,3.585939568E0
1.442222700E1,-4.494264968E-1,1.704822966E0,2.353927054E0,2.940982505E0
1.443219700E1,1.420809377E0,2.660437806E0,2.824153120E0,4.131884491E0
1.444216700E1,9.227017397E-1,-1.111287016E0,2.820758811E0,3.169072041E0
1.445213700E1,5.486217329E-1,3.292643148E-1,1.156992069E0,1.322131402E0
1.446210700E1,-1.222734069E0,2.897520474E0,4.612200676E0,5.582391833E0
1.447207700E1,-2.533797348E0,-1.244393618E0,5.228820557E0,5.942155240E0
1.448204700E1,-5.876373159E-1,2.308235449E0,-3.346832803E0,4.107865421E0
1.449201700E1,-1.041817416E0,-7.603906345E-1,-5.952599435E0,6.090732098E0
1.450198700E1,1.574867868E0,-3.203223433E0,-3.353692172E0,4.897764832E0
1.451195700E1,-1.006425042E-1,3.782639819E-1,-4.386871204E0,4.404299208E0
1.452192700E1,-1.713674920E0,-3.737446982E0,1.349071350E0,4.327260702E0
1.453189600E1,-1.332108285E-1,-4.746581386E0,4.840315762E0,6.780592648E0
1.454186600E1,-1.433640251E-1,8.697630957E-1,2.577312911E0,2.723891137E0
1.455183613E1,-1.480871099E0,4.853129935E0,-2.154114246E-1,5.078607236E0
1.456180612E1,1.326027728E-1,4.218622836E-1,1.729435067E0,1.785076170E0
1.457177612E1,-2.278464058E-1,-2.134881000E0,5.018197417E-2,2.147591465E0
1.458174613E1,2.203555671E0,-1.879917839E0,2.179861876E0,3.625127098E0
1.459171613E1,1.743824480E0,-1.623218932E0,-2.777140921E0,3.658999210E0
1.460168612E1,1.347863607E0,-6.649395168E-1,-8.045523155E-1,1.704753734E0
1.461165612E1,8.149525387E-1,-6.480208907E-1,2.077018708E-1,1.061705601E0
1.462162613E1,9.803049269E-1,-1.302179311E0,2.828752540E0,3.264737300E0
1.463159613E1,-4.325076879E-1,1.996464542E-1,3.608092831E0,3.639403177E0
1.464156612E1,-9.995199738E-1,1.485164709E0,-2.087695724E-1,1.802314935E0
1.465153612E1,-6.146949774E-1,1.741656332E0,1.970739716E-1,1.857432326E0
1.466150613E1,-3.812631285E-2,3.343280035E0,-1.784897661E-1,3.348258294E0
1.467147613E1,-7.120201278E-1,-3.441395729E0,7.522787923E-1,3.593897690E0
1.468144612E1,-1.524986185E-1,-2.105629134E0,-2.448685277E-1,2.125297738E0
1.469141612E1,8.751451653E-1,6.997626096E-1,-4.714084316E0,4.845424409E0
1.470138613E1,-1.816483735E0,6.012642154E-1,-7.316218657E0,7.562287171E0
1.471135613E1,-1.330993221E0,-9.702167988E-1,-6.116467654E0,6.334353965E0
1.472132613E1,-3.211640207E-1,-3.326136876E0,-3.294463386E0,4.692528300E0
1.473129612E1,3.678576192E-1,6.682408547E-1,3.443352208E0,3.526831367E0
1.474126612E1,1.406998984E0,3.450462422E0,9.729533542E0,1.041869282E1
1.475123613E1,1.424211871E0,4.398762687E0,1.030265832E1,1.129257549E1
1.476120613E1,2.519237781E0,3.674456097E0,2.812939330E0,5.268853222E0
1.477117612E1,1.998011715E0,4.570219714E0,-4.626087813E0,6.802914633E0
1.478114612E1,1.365986613E0,2.887331993E0,-6.113695489E0,6.897816901E0
1.479111613E1,2.218037470E-1,2.035619252E0,-8.748514597E0,8.984956889E0
1.480108613E1,7.107273815E-1,-1.395165243E0,-7.171661453E0,7.340595852E0
1.481105612E1,1.254913636E0,-4.358306094E0,8.862566292E-2,4.536242360E0
1.482102612E1,5.617920380E-1,-3.242947954E0,4.795828391E0,5.816553248E0
1.483099613E1,2.993256643E0,2.310954112E-1,3.117639492E0,4.328125047E0
1.484096613E1,3.013281018E0,-1.702230311E0,5.201654978E0,6.247772806E0
1.485093612E1,1.626825787E0,-6.210704890E-1,2.348120769E0,2.923347711E0
1.486090612E1,4.946001846E-1,-5.887815794E-1,-3.938193297E0,4.012562715E0
1.487087613E1,-1.230212512E0,-1.146679628E0,1.392758821E0,2.183592024E0
1.488084613E1,-1.446951108E0,3.415680259E-2,4.343131692E0,4.577950097E0
1.489081613E1,-1.706656215E0,-3.452910066E0,5.623819270E0,6.816348476E0
1.490078612E1,-8.700434697E-1,-8.637302309E-1,-3.029927748E-1,1.262857938E0
1.491075612E1,-7.885426390E-1,-1.040134880E-1,-9.319485265E-1,1.225212780E0
1.492072613E1,-1.992235397E0,4.762910905E-1,5.688849664E-1,2.125908084E0
1.493069613E1,-3.206616280E0,3.396040047E0,-5.877665613E0,7.507491526E0
1.494066612E1,-1.445579936E0,2.224318256E0,-6.530945781E0,7.049152138E0
1.495063612E1,-1.540046968E0,-4.278816998E-1,-1.906541966E0,2.487916735E0
1.496060613E1,-9.825561780E-1,-6.357148406E-1,5.351401001E0,5.477868443E0
1.497057613E1,1.179289988E0,-4.926596691E0,5.428543902E0,7.425036615E0
1.498054612E1,-6.034606123E-1,-5.226006292E0,4.146373470E0,6.698337065E0
1.499051612E1,3.665017595E-1,-1.699766294E0,7.490213084E-1,1.893293933E0
1.500048613E1,4.410811679E-1,-9.439511061E-1,6.621433783E-1,1.234516157E0
1.501045613E1,2.013627874E0,-1.008004430E-1,-9.800828058E-1,2.241744912E0
1.502042612E1,3.290027103E0,2.157834537E0,-1.537876773E0,4.224404479E0
1.503039612E1,1.370483268E0,2.240185261E-2,-3.347134520E0,3.616909693E0
1.504036613E1,-3.354469559E0,-1.903031883E-1,-4.402867432E0,5.538404369E0
1.505033613E1,-2.031411303E0,-1.623324767E0,6.175314617E-1,2.672669132E0
1.506030612E1,-5.459935922E-1,-2.683167395E0,3.626341406E0,4.543990346E0
1.507027612E1,1.904745117E0,1.519096979E0,2.171620810E-1,2.445990384E0
1.508024612E1,1.957766645E0,1.967440425E0,-6.490546199E0,7.059097819E0
1.509021613E1,1.227056916E0,2.212145815E0,-6.631458249E0,7.097569745E0
1.510018613E1,-4.043406999E-1,1.711114570E-1,-2.801468847E0,2.835665395E0
1.511015612E1,9.192440618E-2,1.229833174E-1,5.350364875E0,5.352567541E0
1.512012612E1,1.254906034E0,-4.127637237E-1,1.413069242E1,1.419230888E1
1.513009613E1,2.685312592E-1,4.122469760E0,3.676081915E0,5.529958789E0
1.514006613E1,5.665756816E-1,7.680689058E0,-6.849304454E0,1.030664659E1
1.515003612E1,7.809780961E-1,2.231423500E0,-2.872124262E0,3.719983253E0
1.516000512E1,6.660307534E-1,2.352952615E0,-1.262700958E0,2.752162183E0
1.516997512E1,3.929746629E-1,4.952201064E0,-3.489603099E0,6.070918732E0
1.517994513E1,3.614947156E-1,1.537855724E0,-5.403278668E0,5.629484792E0
1.518991513E1,7.780258369E-1,-2.493190481E0,-4.207133058E0,4.951897772E0
1.519988512E1,1.584763257E0,-2.432626191E0,-3.454259019E0,4.512322034E0
1.520985512E1,1.130290905E-1,-3.446965787E0,3.375865983E0,4.826056345E0
1.521982513E1,-3.223204538E-3,-5.066670835E0,9.040118750E0,1.036315158E1
1.522979513E1,-1.974336339E0,-2.135060509E0,4.532062247E0,5.384800420E0
1.523976512E1,-1.494817731E0,1.222828794E0,-8.837779945E-1,2.123877080E0
1.524973512E1,-2.473349015E-1,5.383736104E-1,-1.348745075E0,1.473137460E0
1.525970513E1,-1.917761311E0,-1.325419362E0,2.722685217E0,3.584349275E0
1.526967513E1,-1.961323689E-1,-7.665857595E-1,1.729708132E0,1.902107214E0
1.527964512E1,2.698607333E-1,1.499664050E0,-1.236631147E0,1.962415265E0
1.528961512E1,-9.618038249E-1,-5.784504265E-2,-2.397052608E0,2.583461603E0
1.529958513E1,-1.187957169E0,-1.721089628E0,-7.730919564E-1,2.229588060E0
1.530955513E1,1.533729490E0,2.558130828E0,1.599955493E0,3.384703393E0
1.531952513E1,-1.385589112E-2,4.170125445E0,-6.290077919E-1,4.217320123E0
1.532949512E1,-1.517171198E-1,2.762338987E0,-3.210978010E0,4.238385842E0
1.533946512E1,7.553323545E-2,-2.499639376E0,-2.837767777E0,3.782436811E0
1.534943513E1,1.273777631E0,-7.496075503E0,-8.204871476E-1,7.647670008E0
1.535940513E1,1.440984317E0,-5.438890550E0,6.202609420E-1,5.660626278E0
1.536937512E1,3.236609280E0,-3.531316843E0,6.529704418E0,8.098325633E0
1.537934512E1,1.469019962E0,-2.026405502E0,1.116185755E1,1.143902980E1
1.538931513E1,1.005336199E0,2.556321992E0,4.012433640E0,4.862623440E0
1.539928513E1,1.244797368E0,1.673339218E0,-3.082432237E0,3.721689552E0
1.540925512E1,-4.900102299E-1,3.709111083E0,-7.083232841E0,8.010605628E0
1.541922512E1,-6.597523056E-3,3.596432313E0,-8.804956600E0,9.511131880E0
1.542919513E1,8.268205592E-1,1.850009623E0,-5.483832834E0,5.846245838E0
1.543916513E1,1.196198674E0,-2.069645661E0,2.765776273E0,3.655659014E0
1.544913512E1,3.823533784E-1,-5.675462463E-1,7.770985855E0,7.801059159E0
1.545910512E1,2.721722766E0,5.276087694E0,5.318820316E-1,5.960517986E0
1.546907513E1,3.764169050E0,4.724846409E0,-6.012995326E0,8.523453233E0
1.547904513E1,1.391946497E0,-5.029526398E-1,-2.631788496E0,3.019401778E0
1.548901513E1,-8.545793384E-2,-1.697486757E0,4.188524294E-1,1.750486135E0
1.549898512E1,-5.676928287E-1,2.937263414E0,-1.435433555E0,3.318171334E0
1.550895512E1,-2.967630051E-2,2.199125235E0,-8.396934968E-1,2.354170268E0
1.551892513E1,9.247838601E-1,-1.663124717E0,7.617559594E-1,2.049751486E0
1.552889513E1,7.464114037E-1,-2.482729520E0,1.410889283E0,2.951556271E0
1.553886512E1,1.011621518E0,-6.427855276E0,2.914714211E0,7.129955153E0
1.554883479E1,-1.642976236E-2,1.026016485E0,-3.044315992E0,3.212606360E0
1.555880479E1,8.179991573E-1,1.611619226E0,7.657829368E-1,1.962871024E0
1.556877479E1,-1.703526346E0,-3.294783229E-1,1.905293586E0,2.576955884E0
1.557874479E1,4.749895003E-1,3.339181137E-1,5.794128782E-1,8.202655762E-1
1.558871479E1,-8.801837111E-1,-1.766714575E0,7.928064287E-2,1.975421265E0
1.559868479E1,-2.116856958E0,-4.641417459E0,3.142683701E0,5.991685927E0
1.560865479E1,-4.973059105E-1,-2.973604444E0,3.588816315E-1,3.036187178E0
1.561862479E1,-2.220720318E0,-1.866238278E-1,-8.032823002E-1,2.368900513E0
1.562859479E1,-2.418214412E0,9.603434828E-1,-1.475919092E-1,2.606108962E0
1.563856479E1,-1.788022998E0,1.170295655E0,1.118747771E0,2.412097580E0
1.564853479E1,-8.656346691E-1,6.132258645E-1,2.230512212E0,2.469929972E0
1.565850479E1,-1.526134541E0,-2.426162387E0,3.160981978E0,4.266984606E0
1.566847479E1,-3.470733549E0,-5.879726171E-2,-2.310332553E0,4.169782367E0
1.567844479E1,-2.568881519E0,-5.407961118E-1,-4.135237448E0,4.898142652E0
1.568841479E1,-1.821922815E0,-2.150636322E0,-3.318528771E-2,2.818819008E0
1.569838479E1,-9.304127553E-1,-4.240063992E0,4.709831051E0,6.405179082E0
1.570835379E1,9.981124029E-3,-2.178036960E0,4.830744454E0,5.299059974E0
1.571832379E1,3.980237702E-1,3.661567372E-1,3.782893004E0,3.821357502E0
1.572829379E1,7.688680009E-1,2.122470577E0,-1.637327971E0,2.788706195E0
1.573826379E1,-1.578964756E-1,2.801696303E-1,-3.685164980E0,3.699171157E0
1.574823379E1,-1.053800919E0,-3.304431719E0,-8.691896592E0,9.358356252E0
1.575820379E1,-8.805896540E-1,-5.944144946E-1,-6.294615943E0,6.383647593E0
1.576817379E1,-7.664949815E-1,-1.058861465E0,9.341605282E-1,1.606660528E0
1.577814379E1,-1.935010670E-1,2.653007164E0,4.331403347E0,5.083005472E0
1.578811379E1,5.206941884E-2,5.960059898E0,5.799981844E0,8.316538619E0
1.579808379E1,-1.243738218E-1,4.078754807E0,1.249501453E0,4.267664877E0
1.580805379E1,1.435125407E0,2.806572589E0,-3.361896400E0,4.608555309E0
1.581802379E1,6.836576235E-1,2.166362117E0,-4.685032425E0,5.206730393E0
1.582799379E1,2.266809388E0,3.519750465E0,-1.048767709E0,4.315898730E0
1.583796379E1,1.255328788E0,3.690088921E0,-3.756329688E0,5.413189386E0
1.584793379E1,7.832876001E-1,4.425211690E0,2.745858902E0,5.266476913E0
1.585790379E1,1.376787006E0,4.795375232E0,3.474397414E0,6.079687777E0
1.586787379E1,1.293654802E0,3.500911614E0,1.110970974E-2,3.732297992E0
1.587784379E1,-3.118359576E-1,7.052613312E-1,-6.359180313E-1,9.995133578E-1
1.588781379E1,1.806571974E0,-1.853695123E0,-2.859516495E-1,2.604161334E0
1.589778379E1,9.664883948E-1,-1.089883283E0,-1.591857684E0,2.157766501E0
1.590775379E1,4.098905116E-1,1.395233071E0,8.267764127E-1,1.672795501E0
1.591772379E1,6.396291129E-1,-6.711439973E-1,-1.521327984E0,1.781571919E0
1.592769379E1,-6.199507472E-1,-3.734143305E0,-1.870672222E0,4.222271866E0
1.593766379E1,1.093306535E-1,-6.075438327E0,3.767033601E-1,6.088087505E0
1.594763379E1,8.313549288E-1,-3.701479297E0,2.667514399E0,4.637643051E0
1.595760379E1,6.197345464E-1,1.280767977E0,2.626528341E0,2.987153937E0
1.596757379E1,1.721530216E0,5.072515712E0,1.880387955E0,5.677141956E0
1.597754379E1,1.035258521E0,2.479161549E0,-1.860444857E0,3.267913288E0
1.598751379E1,1.920568267E0,-3.193415898E0,-2.303323495E-1,3.733569413E0
1.599748379E1,1.491771186E0,-5.409725808E0,1.696043372E0,5.862344045E0
1.600745379E1,2.110450748E0,-4.295046822E0,2.146599990E0,5.244932896E0
1.601742379E1,7.104038843E-1,3.118996630E0,-1.579065145E0,3.567388455E0
1.602739379E1,-2.020794989E-1,-1.176664149E0,-7.739655304E-1,1.422813159E0
1.603736379E1,-1.759553928E0,-3.293879249E0,-2.798283868E0,4.666482952E0
1.604733379E1,-5.736597296E-1,-6.001740021E-1,-1.060597211E0,1.346907852E0
1.605730379E1,-2.239202051E0,-3.972793611E0,3.458059709E0,5.723223904E0
1.606727379E1,-8.578599919E-2,-1.914971020E0,4.028055646E0,4.460908600E0
1.607724379E1,1.160936382E0,-2.588704457E0,3.970769890E0,4.880182124E0
1.608721379E1,2.731680647E-1,1.125346646E0,-4.226724154E-1,1.232752139E0
1.609718379E1,6.652195253E-1,2.678099321E0,-2.504608632E0,3.726633519E0
1.610715379E1,-8.208957218E-1,-6.121596247E-2,6.391035944E-1,1.042147103E0
1.611712379E1,7.099901207E-1,-2.537836604E0,-1.296291457E0,2.936847314E0
1.612709379E1,-1.027301265E0,1.758041692E0,-2.876138375E0,3.523950969E0
1.613706379E1,4.860512629E-1,5.180126114E0,-4.121118761E0,6.637286512E0
1.614703379E1,4.184357056E-1,4.899121209E0,-2.351966482E0,5.450525057E0
1.615700379E1,-4.405876263E-1,1.179892105E0,-1.799473016E0,2.196443937E0
1.616697379E1,1.122202233E0,-7.310212398E-1,-2.110219198E-1,1.355824529E0
1.617694379E1,9.201670448E-1,1.429687496E0,1.874883971E0,2.530988667E0
1.618691379E1,1.756781325E-1,3.556036239E0,-8.965430510E-1,3.671518212E0
1.619688279E1,-6.962378349E-2,5.606400999E-1,9.573786521E-1,1.111637835E0
1.620685279E1,7.925096825E-1,-8.091952971E-1,1.884727174E0,2.198878156E0
1.621682279E1,2.155367743E-1,-2.102691785E0,1.781729640E0,2.764476326E0
1.622679279E1,-2.502910527E-1,-2.672189832E0,1.995707912E0,3.344561882E0
1.623676279E1,8.423429433E-1,-7.133661568E-2,-9.415479004E-1,1.265362792E0
1.624673279E1,9.126002361E-1,-1.815610161E-1,-5.581846787E0,5.658870660E0
1.625670279E1,4.867640750E-1,-1.231589970E0,5.625360596E-1,1.438818938E0
1.626667279E1,-5.334802949E-1,-1.650681550E0,3.552233795E0,3.953190577E0
1.627664279E1,-2.086142265E0,-6.862248436E-1,5.085219957E0,5.539165650E0
1.628661279E1,-5.684408338E-1,8.378519163E-1,1.367088375E0,1.701191183E0
1.629658279E1,-6.137104525E-1,4.079157972E-1,2.184678812E0,2.305614306E0
1.630655279E1,-7.686778933E-1,-2.752011927E0,7.136678731E-1,2.945124307E0
1.631652279E1,-6.191583033E-1,3.015239543E-1,-2.999521642E0,3.077564586E0
1.632649279E1,-4.029058736E0,2.754046466E0,-3.536078523E0,6.026768417E0
1.633646279E1,-5.229475591E-1,-3.754815844E-1,3.538208079E0,3.596300457E0
1.634643279E1,-3.176071595E0,-1.685518384E0,3.613856431E0,5.097878118E0
1.635640279E1,-4.162364947E-1,-5.917975733E-1,1.087378628E0,1.306089380E0
1.636637279E1,-6.100984812E-1,2.414976663E0,-3.015740649E0,3.911396695E0
1.637634279E1,-6.570189516E-1,1.039806266E0,3.779318601E-1,1.286741414E0
1.638631279E1,-9.830008587E-1,-1.674403704E0,-1.365108508E-1,1.946420732E0
1.639628279E1,-1.048078871E-1,-2.416200778E0,9.580721319E-1,2.601329103E0
1.640625279E1,4.470513578E-1,-7.304107904E-1,-2.795842656E0,2.924053863E0
1.641622279E1,8.348256898E-1,1.596558845E0,-4.352384326E0,4.710539608E0
1.642619279E1,1.368470657E0,-1.657925373E0,-3.273877679E0,3.916593359E0
1.643616279E1,-8.540875145E-1,-5.624919131E0,2.040249077E0,6.044153954E0
1.644613279E1,6.850296727E-1,-8.513730177E-1,-8.809824407E-1,1.403649432E0
