"Time (s)","Linear Acceleration x (m/s^2)","Linear Acceleration y (m/s^2)","Linear Acceleration z (m/s^2)","Absolute acceleration (m/s^2)"
2.518083318E-3,4.772794893E-1,1.108714826E0,5.289543307E-1,1.317891103E0
1.248908334E-2,5.740734566E-1,1.378837770E-1,-2.559092402E-2,5.909544525E-1
2.246008336E-2,-5.201009884E-1,4.246490666E-1,2.331676644E-1,7.107735417E-1
3.243108332E-2,-3.697463064E-1,3.537273109E-3,5.760653472E-1,6.845262067E-1
4.240208335E-2,-1.048272158E0,-2.497743416E-1,3.360149252E-1,1.128790400E0
5.237287504E-2,-1.184958717E0,2.830081612E-1,-4.748763567E-1,1.307565805E0
6.234387500E-2,-1.247116666E0,1.970751411E-1,-8.184885693E-1,1.504680075E0
7.231487503E-2,-1.391073361E0,4.918417606E-1,-1.289530322E0,1.959561651E0
8.228587499E-2,-1.229761545E0,-6.983209786E-1,-1.554938364E-1,1.422724141E0
9.225587500E-2,-1.640212841E0,-3.771813700E-1,-4.831180072E-1,1.750990280E0
1.022268750E-1,-1.292248839E0,4.649863762E-1,-9.158692682E-1,1.650737989E0
1.121978750E-1,-1.317633210E0,2.267903987E-1,-2.135221893E-1,1.353950843E0
1.221688750E-1,-1.381266850E0,3.391347072E-1,-3.470796114E-1,1.464026884E0
1.321388750E-1,-1.263335234E0,4.764039418E-1,2.697343969E-1,1.376856302E0
1.421098750E-1,-1.143317698E0,2.851570129E-1,6.538222057E-1,1.347580557E0
1.520808750E-1,-9.539199509E-1,3.311026794E-1,5.501996040E-2,1.011246485E0
1.620518750E-1,-9.937343001E-1,7.002759951E-1,-3.209355408E-1,1.257336053E0
1.720218750E-1,-8.764999652E-1,5.925299370E-1,-2.467659491E-1,1.086387292E0
1.819928750E-1,-8.271965352E-1,5.831480795E-1,-6.001085132E-1,1.176624842E0
1.919638750E-1,-4.659986023E-1,4.733151501E-1,-9.403457129E-1,1.151274072E0
2.019348750E-1,-3.261894102E-1,1.676554602E-1,-1.320481973E0,1.370467266E0
2.119048750E-1,-6.337014981E-1,-3.010819048E-2,-5.616355884E-1,8.473007884E-1
2.218758750E-1,-6.921058269E-1,-3.202549249E-2,-3.208659589E-1,7.635385199E-1
2.318468750E-1,-7.705230553E-1,-8.033489585E-3,5.242958540E-1,9.320174130E-1
2.418178750E-1,-6.754629701E-1,1.625113723E-1,7.991091424E-1,1.058884126E0
2.517878750E-1,-5.364565276E-1,6.264250767E-1,-1.500424773E-1,8.382760451E-1
2.617588750E-1,-5.929005774E-1,-9.076048136E-2,4.794266599E-1,7.678661875E-1
2.717298750E-1,-4.011708878E-1,-3.084499812E-1,-7.130971849E-2,5.110426089E-1
2.817008750E-1,-7.520886116E-1,-2.854113668E-2,-4.257825494E-1,8.647211432E-1
2.916708750E-1,-1.132676277E0,-2.907232699E-1,6.258491260E-1,1.326334308E0
3.016418750E-1,-9.919134772E-1,-2.951671538E-1,5.040826142E-1,1.151136515E0
3.116128750E-1,-1.376432226E0,-3.114949188E-1,3.230995953E-1,1.447752778E0
3.215838750E-1,-1.081662683E0,-3.382994324E-2,1.697084177E-1,1.095417533E0
3.315538750E-1,-1.088207471E0,2.960872132E-1,2.432570350E-1,1.153705822E0
3.415248750E-1,-8.720383935E-1,1.002054888E-1,4.810252887E-1,1.000938274E0
3.514958750E-1,-3.624946991E-1,-2.376478010E-1,-2.002911097E-1,4.774886521E-1
3.614668750E-1,-5.868230180E-1,2.167387426E-2,-3.282007062E-1,6.727159243E-1
3.714368750E-1,3.649539649E-2,1.194571540E-1,3.711713094E-1,3.916249053E-1
3.814078750E-1,-1.641211473E-1,4.480233112E-1,9.816375804E-1,1.091454524E0
3.913788750E-1,-2.153390653E-2,6.261555201E-1,7.278409392E-1,9.603576819E-1
4.013498750E-1,4.093845082E-1,-2.832040429E-2,7.539306307E-1,8.583758598E-1
4.113198750E-1,2.980189870E-1,1.716713279E-1,-1.053387594E-1,3.596979507E-1
4.212908750E-1,4.865219638E-1,3.118141767E-1,3.529589868E-1,6.771349558E-1
4.312618750E-1,6.754908174E-1,5.495154798E-2,-2.917070639E-1,7.378350278E-1
4.412328750E-1,3.173827726E-1,3.078459638E-1,-5.848554665E-1,7.331827047E-1
4.512028750E-1,1.503872072E-1,1.339708203E-1,-1.898123145E-1,2.767547787E-1
4.611738750E-1,-5.906027678E-2,1.479026887E-1,4.061475992E-2,1.643559562E-1
4.711448750E-1,-4.422563120E-1,4.444453999E-1,2.280940354E-1,6.671950600E-1
4.811158750E-1,-5.916592501E-1,1.526386410E-2,6.001196229E-1,8.428743771E-1
4.910858750E-1,-6.168983544E-1,-9.517425209E-2,4.315186679E-1,7.588346847E-1
5.010568750E-1,-8.105908813E-1,-1.283086690E-1,4.220543647E-1,9.228491632E-1
5.110278750E-1,-1.663852403E0,-2.367771506E-2,8.833505630E-1,1.883951611E0
5.209988750E-1,-1.205217127E0,1.253245425E-1,3.262617695E-1,1.254871032E0
5.309688750E-1,-1.526542677E0,-7.457205552E-1,-1.298087722E-1,1.703901995E0
5.409398750E-1,-1.532140947E0,-9.271473777E-1,1.161140084E-2,1.790863749E0
5.509108750E-1,-1.484203281E0,-3.076839960E-1,-2.585615373E-1,1.537654996E0
5.608818750E-1,-1.642691769E0,-5.148093313E-2,2.663190383E-1,1.664936144E0
5.708518750E-1,-1.670875860E-1,4.836290538E-2,3.041300583E-1,3.503602779E-1
5.808228750E-1,-4.804571221E-2,3.557080552E-1,3.691528505E-1,5.148887628E-1
5.907938750E-1,5.551387836E-1,8.811616579E-1,-1.794457859E-1,1.056799757E0
6.007648750E-1,7.066019516E-1,6.690208733E-1,-4.911134899E-2,9.743136925E-1
6.107348750E-1,9.299366458E-1,4.523865035E-1,-2.895973885E-1,1.073919160E0
6.207058750E-1,1.224003646E0,8.713433057E-1,-6.162772340E-1,1.623952496E0
6.306768750E-1,6.076306638E-1,9.353811345E-1,-5.854173839E-2,1.116951219E0
6.406478750E-1,2.934695609E-1,3.662011760E-1,7.943074089E-1,9.225789638E-1
6.506188750E-1,1.512331714E-1,-1.004566267E-1,4.886752009E-2,1.880187238E-1
6.605888750E-1,-2.210134227E-1,6.339229614E-2,-1.410579965E0,1.429196052E0
6.705598750E-1,-5.161116524E-1,6.523738503E-3,-1.227486686E0,1.331592040E0
6.805308750E-1,-8.867693570E-1,-3.074565393E-1,-6.793938339E-2,9.410128457E-1
6.905018750E-1,-8.531958872E-1,-5.599284938E-1,6.354169250E-1,1.202172121E0
7.004718750E-1,-3.249780133E-1,-2.429985881E-2,1.094394118E-1,3.437705298E-1
7.104428750E-1,-3.660075236E-1,-3.232887527E-1,1.717754084E-1,5.176716294E-1
7.204138750E-1,-1.970704633E-1,-7.724525633E-1,5.880708504E-1,9.906296256E-1
7.303838750E-1,-1.009450519E-2,-7.664617985E-1,-1.287667984E-1,7.772685997E-1
7.403548750E-1,-4.283960355E-1,-4.259006631E-1,9.400100827E-2,6.113515582E-1
7.503258750E-1,-2.765521042E-1,7.236572564E-2,-4.084373689E-1,4.985368079E-1
7.602968750E-1,-6.057925550E-1,-5.877358049E-2,-5.398710823E-1,8.135722088E-1
7.702668750E-1,-1.022565459E0,-5.390828776E-1,-3.162244391E-1,1.198435798E0
7.802378750E-1,-6.087146645E-1,-3.103409708E-2,-4.743442601E-1,7.723335646E-1
7.902088750E-1,-9.060411950E-1,1.324476206E-1,4.541678578E-1,1.022116169E0
8.001798750E-1,-4.590302196E-1,6.179185474E-1,7.195495874E-1,1.053699996E0
8.101508750E-1,-3.159936569E-1,9.695855919E-1,3.567544144E-1,1.080380453E0
8.201208750E-1,-2.372356272E-1,6.116067705E-1,-6.160374981E-1,8.999143201E-1
8.300918750E-1,1.709900360E-1,2.800865999E-1,-3.476444525E-1,4.780614617E-1
8.400628750E-1,-8.448152192E-1,9.882303160E-1,-5.250144768E-1,1.402124143E0
8.500338750E-1,-5.698146371E-1,3.662204719E-1,-5.144275081E-1,8.505538289E-1
8.600038750E-1,-8.227165447E-1,9.227005702E-1,-8.546869272E-1,1.502906717E0
8.699748750E-1,-1.254963630E0,1.045834453E0,-2.554905796E-1,1.653474781E0
8.799458750E-1,-7.632654912E-1,7.757188180E-1,1.256975949E-1,1.095497047E0
8.899168750E-1,-7.896391381E-1,-1.503751838E-1,3.352851927E-1,8.709528258E-1
8.998868750E-1,-3.654653770E-1,-9.652232766E-2,2.199833626E-1,4.373490384E-1
9.098578750E-1,-4.879919903E-1,-1.819770455E-2,7.075744897E-1,8.597261178E-1
9.198288750E-1,-8.263411606E-1,1.463274488E-1,4.165462875E-1,9.368896657E-1
9.297998750E-1,-6.232991552E-1,-3.078363159E-1,4.131782913E-1,8.086911244E-1
9.397698750E-1,-1.325484559E0,-1.589857936E-1,-2.132923937E-1,1.351916951E0
9.497408750E-1,-7.861276659E-1,-5.242938074E-1,5.306166941E-1,1.083713421E0
9.597118750E-1,-5.167653711E-1,-9.590223044E-2,4.925308549E-1,7.202987780E-1
9.696828750E-1,-7.047131547E-1,1.179134890E-1,3.012953281E-1,7.754373580E-1
9.796528750E-1,-1.622715633E-1,-4.638903156E-1,2.172901350E-1,5.373465250E-1
9.896238750E-1,-3.487327655E-1,-4.723129374E-1,-4.669095254E-1,7.501323599E-1
9.995948750E-1,-2.035215684E-1,-4.522879779E-2,-3.899630910E-1,4.421966591E-1
1.009565875E0,-3.508287365E-2,-4.270937875E-1,-1.025344348E-1,4.406282125E-1
1.019535875E0,-2.188272584E-1,-2.572871366E-1,1.880879706E-1,3.865994366E-1
1.029506875E0,1.186844170E-1,-1.514507791E-1,9.835712546E-1,1.002215417E0
1.039477875E0,-5.662577393E-1,2.832303554E-2,1.002186450E0,1.151445918E0
1.049448333E0,-9.495164859E-1,-3.175339231E-1,5.271522188E-1,1.131502899E0
1.059418333E0,-1.661872829E0,-1.127212785E0,2.232291520E-2,2.008215196E0
1.069389333E0,-5.216369788E-1,-1.180118684E0,-1.186850291E-1,1.295712693E0
1.079360333E0,-6.549482332E-1,-6.545645097E-1,4.576229775E-1,1.032874956E0
1.089331333E0,-9.584136093E-1,-5.428712887E-1,3.045990050E-1,1.142823887E0
1.099301333E0,-1.429959520E-1,8.296585053E-2,5.163337004E-1,5.421546503E-1
1.109272333E0,-4.239895007E-1,-3.299262196E-2,-6.060931385E-1,7.404083348E-1
1.119243333E0,-7.814500395E-2,-2.678331748E-1,-5.717658895E-1,6.362055356E-1
1.129214333E0,4.513422822E-2,4.611000243E-1,-3.027495307E-1,5.534506385E-1
1.139184333E0,-3.251670246E-1,4.865769276E-1,-9.566980362E-2,5.929952881E-1
1.149155333E0,-3.668647619E-1,1.109401581E0,-5.404739302E-1,1.287429101E0
1.159126333E0,1.213206799E-2,3.037698698E-1,-6.667351967E-1,7.327749610E-1
1.169097333E0,3.904936527E-1,-2.226178256E-1,-6.303275084E-1,7.741813463E-1
1.179067333E0,3.139402974E-1,-2.527608070E-1,2.447118223E-1,4.715192593E-1
1.189038333E0,5.082467088E-1,4.995831817E-1,5.520063937E-1,9.014483519E-1
1.199009333E0,6.592833589E-1,1.111177088E0,4.557495296E-2,1.292844208E0
1.208980333E0,4.917907436E-1,5.433662555E-1,-7.860353529E-1,1.074689071E0
1.218950333E0,4.887562580E-1,-4.425775069E-1,-3.160741657E-1,7.312047644E-1
1.228921333E0,4.725963081E-1,-6.528471825E-1,-2.406275421E-1,8.411054203E-1
1.238892333E0,-1.987349829E-3,2.319245464E-1,8.214110076E-2,2.460489894E-1
1.248863333E0,1.350524090E-2,6.940001786E-2,3.965488100E-1,4.028023246E-1
1.258833333E0,1.393878910E-1,2.562936947E-1,5.869359058E-1,6.554458022E-1
1.268804333E0,4.048562416E-1,6.632827082E-1,9.881367606E-1,1.257086626E0
1.278775333E0,-1.017873342E-1,-6.249024618E-1,1.073390334E0,1.246206467E0
1.288746333E0,-1.082682053E-1,-8.879347801E-2,-1.037079710E-1,1.742458874E-1
1.298716333E0,1.062773746E-1,4.840673026E-1,-6.038384521E-1,7.811766190E-1
1.308687333E0,-2.076015180E-1,-6.051341951E-2,-1.501880729E-1,2.632806895E-1
1.318658333E0,3.238655075E-1,7.568644711E-1,-8.481544179E-1,1.181989260E0
1.328629333E0,3.639836926E-3,1.157217480E0,-6.134606302E-1,1.309770777E0
1.338599333E0,3.178527060E-1,-1.317778221E-1,1.545565277E-1,3.772047950E-1
1.348570333E0,2.916828711E-1,-1.748396417E-1,1.335299402E-1,3.653464692E-1
1.358541333E0,1.632879921E-1,9.832458571E-1,-4.020615649E-1,1.074750616E0
1.368512333E0,3.439169256E-1,2.704550663E-1,1.435929984E-1,4.604820775E-1
1.378482333E0,-3.409811117E-1,3.416779536E-1,-5.147713244E-2,4.854501392E-1
1.388453333E0,-1.977804066E-1,-2.185657051E-1,7.950225234E-2,3.053009414E-1
1.398424333E0,8.368878566E-2,1.167627570E-1,-6.086027634E-1,6.253276564E-1
1.408395333E0,-4.026767286E-1,1.182766011E-1,4.450198889E-2,4.220406723E-1
1.418365333E0,-2.317874474E-1,5.929962525E-1,-7.257295096E-1,9.654290742E-1
1.428336333E0,-8.637093271E-1,7.666342914E-2,-4.612657928E-1,9.821594651E-1
1.438307333E0,-7.311092404E-1,-1.286609638E0,-8.972084641E-2,1.482543393E0
1.448278333E0,-1.276980297E0,-7.178866392E-1,1.440251076E-1,1.471999707E0
1.458248333E0,-1.452820836E0,-2.220667255E-1,5.690989745E-1,1.576031616E0
1.468219333E0,-1.143515626E0,3.025171039E-1,2.955416679E-1,1.219216742E0
1.478190333E0,-1.528602797E0,8.843328953E-3,8.527257711E-1,1.750384517E0
1.488161333E0,-1.275725631E0,-3.227385297E-1,4.966654211E-1,1.406525003E0
1.498131333E0,-1.599274000E0,-4.609573522E-1,4.075339741E-1,1.713546891E0
1.508102333E0,-1.126280519E0,-4.064399600E-1,3.860799551E-2,1.197994919E0
1.518073333E0,-1.148407261E0,-7.035358179E-1,1.293743241E-1,1.352974353E0
1.528044333E0,-1.289622416E0,-1.070311775E0,7.989337260E-1,1.856606681E0
1.538014333E0,-5.007078937E-1,-6.090699559E-1,1.169850681E0,1.410753424E0
1.547985333E0,-1.045322091E0,-1.581224522E-1,8.556148803E-1,1.360065369E0
1.557956333E0,-3.859798215E-1,3.974124438E-1,5.262418073E-1,7.640991512E-1
1.567927333E0,-3.760960902E-1,2.397264862E-1,-3.653626853E-1,5.765474387E-1
1.577897333E0,8.203723960E-2,-8.062257886E-2,-1.081415053E0,1.087514885E0
1.587868333E0,5.787236376E-1,-6.952409577E-1,-1.306601268E-1,9.139765351E-1
1.597839333E0,7.246243127E-1,-5.600495312E-1,2.601572424E-1,9.520596950E-1
1.607810333E0,6.744131025E-1,2.607530737E-1,5.725453234E-1,9.222978616E-1
1.617780333E0,9.014127036E-2,6.309832737E-1,2.911831534E-1,7.007517172E-1
1.627751333E0,4.459369150E-1,9.850810057E-1,-7.297559023E-2,1.083775695E0
1.637722333E0,-1.482296211E-1,7.821089476E-1,-4.001103491E-1,8.909291318E-1
1.647693333E0,-9.931561567E-2,7.816835627E-1,-8.111514831E-1,1.130866708E0
1.657663333E0,1.800094940E-1,3.145097432E-1,-7.338629866E-1,8.184587219E-1
1.667634333E0,-4.558090067E-2,8.080685386E-1,-1.090719143E0,1.358204929E0
1.677605333E0,-2.558886654E-1,3.804911864E-1,-5.749725026E-1,7.354222805E-1
1.687575333E0,-3.566911914E-1,3.042695144E-1,4.273642212E-1,6.343884622E-1
1.697546333E0,1.404765969E-1,2.882873198E-1,7.433571106E-1,8.095820199E-1
1.707517333E0,-1.164974761E-1,-5.501192048E-1,3.323358572E-1,6.531844482E-1
1.717488333E0,-1.589998817E-1,-8.083009654E-1,-7.560508311E-2,8.272530095E-1
1.727458333E0,-2.057352329E-1,-5.886675587E-1,-3.202110708E-2,6.244051826E-1
1.737429333E0,1.219141997E-1,9.074440151E-2,4.090033793E-1,4.363271511E-1
1.747400333E0,9.103428637E-2,-1.673198301E-1,6.578614622E-1,6.848831070E-1
1.757371333E0,-4.053134939E-1,3.040081438E-1,-2.899599159E-1,5.837608523E-1
1.767341333E0,-2.942599583E-1,-4.846438381E-1,-2.724065745E-1,6.290261637E-1
1.777312333E0,-2.327960739E-1,-3.169033009E-1,-1.139826983E-1,4.094066067E-1
1.787283333E0,-5.011644881E-2,-1.033562610E-1,-1.065508872E-1,1.566756736E-1
1.797254333E0,-6.464541292E-1,-4.628442487E-1,1.234259516E-1,8.045879102E-1
1.807224333E0,-7.835258742E-1,-1.509487957E-2,3.356722784E-1,8.525353537E-1
1.817195333E0,-4.053605274E-1,2.381261033E-1,3.182563466E-1,5.677220274E-1
1.827166333E0,-3.958066522E-1,7.193542904E-1,-1.158684254E-1,8.291917709E-1
1.837137333E0,-3.724386568E-1,5.401131570E-1,-1.272365820E-1,6.682977804E-1
1.847107333E0,-4.538380017E-1,4.247937852E-1,-3.251934832E-1,7.015479266E-1
1.857078333E0,-1.071953052E-1,-1.640991837E-2,-2.951002032E-1,3.143950521E-1
1.867049333E0,-1.156036561E-2,-2.763043284E-2,-2.593474030E-1,2.610711749E-1
1.877020333E0,4.396869358E-1,7.123566350E-1,3.572409028E-1,9.101635236E-1
1.886990333E0,6.196794364E-1,3.961623091E-1,5.155022264E-2,7.372954662E-1
1.896961333E0,8.071548381E-1,3.670557466E-1,2.133380020E-1,9.119988798E-1
1.906932333E0,8.532535554E-1,2.769826055E-2,-2.266725773E-1,8.832832392E-1
1.916903333E0,6.315812977E-1,-1.426194370E-1,7.124598384E-2,6.513917635E-1
1.926873333E0,5.955286085E-1,-6.046956539E-2,3.114577889E-2,5.994004933E-1
1.936844333E0,-5.171091143E-2,-1.881829879E-1,2.239273095E-1,2.970358484E-1
1.946815333E0,3.341713712E-1,-6.272305307E-1,4.062177658E-2,7.118558651E-1
1.956786333E0,1.249268588E-1,-5.329137728E-1,-5.598112571E-1,7.829383455E-1
1.966756333E0,-1.439644062E-1,-1.447653651E-1,1.235955209E-1,2.386600385E-1
1.976727333E0,2.150474355E-2,-1.956530982E-1,2.511355734E-1,3.190794024E-1
1.986698333E0,1.020518933E-1,-6.153258920E-2,1.451156133E-1,1.877748378E-1
1.996669333E0,3.572502949E-1,-4.571762502E-2,-1.411307359E-1,3.868278157E-1
2.006639333E0,3.935581785E-1,-6.198902285E-1,-9.529792070E-3,7.343315002E-1
2.016610333E0,3.944483440E-1,-6.707569116E-1,5.518958813E-1,9.539881521E-1
2.026581333E0,-7.720115371E-3,-6.783810961E-1,-3.991315252E-1,7.871254577E-1
2.036552333E0,-1.393340692E-1,-7.164950019E-1,-2.300171846E-1,7.653018854E-1
2.046521958E0,7.118086047E-2,-1.264223573E-1,5.234228647E-1,5.431581930E-1
2.056492958E0,-6.508054809E-1,-2.396694759E-1,5.337291670E-1,8.751320217E-1
2.066463958E0,-1.882279018E-1,-2.614953777E-1,3.739528298E-1,4.936094555E-1
2.076434958E0,7.006590609E-2,-2.683059222E-1,1.219816893E-1,3.029469122E-1
2.086404958E0,4.728709810E-1,5.012657180E-1,1.193486881E-1,6.993699980E-1
2.096375958E0,1.170128351E-1,5.837518045E-1,1.611609578E-1,6.167909104E-1
2.106346958E0,-2.208229131E-1,6.054683635E-1,-9.806891620E-2,6.518989265E-1
2.116317958E0,3.076285570E-1,3.201017278E-1,7.298617369E-1,8.542825061E-1
2.126287958E0,5.254543701E-1,6.445584619E-1,-3.979410321E-1,9.219083311E-1
2.136258958E0,6.187472440E-1,8.630665720E-2,-4.365221304E-1,7.621342148E-1
2.146229958E0,4.592997031E-1,6.561257163E-1,-8.623894644E-1,1.176933626E0
2.156200958E0,2.523818343E-1,1.637614485E0,-7.809108531E-1,1.831747677E0
2.166170958E0,5.791113811E-1,1.218017120E0,-4.634491432E-1,1.426085834E0
2.176141958E0,2.114121849E-1,1.324391422E-1,-2.617447615E-1,3.615875530E-1
2.186112958E0,4.783311841E-1,-6.487997398E-1,-6.836155236E-2,8.089592857E-1
2.196083958E0,2.698879960E-1,1.874959400E-1,-3.172827852E-1,4.567960417E-1
2.206053958E0,2.995454758E-1,7.074370801E-2,4.097541618E-1,5.124750115E-1
2.216024958E0,9.839135360E-2,-1.131085396E-2,2.703267199E-1,2.878981232E-1
2.225995958E0,1.177162186E-1,-1.350306574E0,5.857231933E-1,1.476569203E0
2.235965958E0,3.687247612E-1,-7.164257124E-1,-3.936304647E-1,8.967545337E-1
2.245936958E0,1.215637231E-1,-7.553015104E-1,-9.136508346E-2,7.704581032E-1
2.255907958E0,1.464276920E-1,-2.298069772E-1,3.070957661E-3,2.725100852E-1
2.265878958E0,3.860368319E-3,-5.869560787E-1,7.682598174E-2,5.919751450E-1
2.275848958E0,5.669233717E-2,-8.214525229E-1,4.498321474E-2,8.246343178E-1
2.285819958E0,7.893331826E-2,-4.220771688E-1,5.156677026E-1,6.710385865E-1
2.295790958E0,2.308744595E-1,-2.009480444E-1,4.946171415E-1,5.816607682E-1
2.305761958E0,7.222374062E-1,3.531513602E-2,2.692929322E-1,7.716169471E-1
2.315731958E0,6.402569577E-1,-1.902666432E-1,1.512891036E-1,6.848494435E-1
2.325702958E0,6.415445146E-1,-7.095312604E-1,3.737674731E-1,1.026993718E0
2.335673958E0,5.460377021E-1,-4.465667698E-1,3.107485217E-1,7.708071716E-1
2.345644958E0,6.895568063E-1,3.710759997E-2,5.477086902E-3,6.905762533E-1
2.355614958E0,3.823424149E-1,-2.393779922E-1,2.448363680E-1,5.132566535E-1
2.365585958E0,5.929485611E-1,1.652779824E-1,1.633443081E-1,6.368564757E-1
2.375556958E0,4.085092896E-1,8.398531258E-2,-1.955718219E-2,4.175115038E-1
2.385527958E0,-1.491877970E-1,6.154557002E-1,-3.416340995E-1,7.195530388E-1
2.395497958E0,1.393152302E-1,2.534797221E-2,4.087905407E-2,1.473850404E-1
2.405468958E0,1.317830846E-2,-6.273214549E-1,-7.064290202E-1,9.448533411E-1
2.415439958E0,-3.524037205E-1,-1.550096869E-2,-8.834347630E-1,9.512547728E-1
2.425410958E0,-1.031271086E0,-6.504296511E-1,5.650714123E-1,1.343832015E0
2.435380958E0,-1.336733432E0,-6.672822037E-1,6.915501952E-1,1.646318159E0
2.445351958E0,-1.285881075E0,6.910064042E-2,8.146709222E-1,1.523795835E0
2.455322958E0,-1.719776051E0,3.457838684E-1,7.266925460E-1,1.898757016E0
2.465293958E0,-1.632267060E0,7.714982978E-1,6.874226457E-1,1.931852808E0
2.475263958E0,-1.857876467E0,6.001377493E-1,7.596117854E-2,1.953878294E0
2.485234958E0,-1.502248373E0,-1.373575276E-1,-7.487499976E-1,1.684115145E0
2.495205958E0,-1.473718784E0,6.585982114E-2,-9.075387400E-1,1.731996286E0
2.505176958E0,-1.138243923E0,-1.828520814E-1,-7.521934229E-1,1.376527899E0
2.515146958E0,-1.155676081E0,-6.679274440E-2,-4.265754318E-1,1.233699750E0
2.525117958E0,-8.779284400E-1,-6.137930444E-1,1.821641564E-2,1.071369257E0
2.535088958E0,-6.981037545E-1,-8.566282028E-1,3.599031401E-1,1.162192325E0
2.545059958E0,-1.319725344E0,-4.741787839E-1,3.822523677E-1,1.453491443E0
2.555029958E0,-1.328285083E0,-1.209461474E-1,7.182345486E-1,1.514869664E0
2.565000958E0,-1.491138517E0,1.980390546E-1,5.162711352E-1,1.590361415E0
2.574971958E0,-1.417203983E0,1.585186011E-1,1.643243015E-1,1.435478232E0
2.584942958E0,-1.807865524E0,-1.578189817E-1,1.753860641E-1,1.823196330E0
2.594912958E0,-1.760824382E0,-4.331029710E-1,6.932096350E-1,1.941293457E0
2.604883958E0,-1.638764632E0,2.545678890E-1,1.335486513E-1,1.663787719E0
2.614854958E0,-1.740241598E0,5.244964135E-1,3.344063562E-1,1.848070594E0
2.624824958E0,-1.987061049E0,3.528663084E-1,-3.258822852E-1,2.044290955E0
2.634795958E0,-2.411118524E0,1.715304101E-1,-2.902212864E-1,2.434572573E0
2.644766958E0,-2.404484858E0,1.743674791E-1,-4.492754924E-1,2.452305021E0
2.654737958E0,-2.212001535E0,2.442832214E-1,-3.396039462E-1,2.251212101E0
2.664707958E0,-2.152191536E0,4.342969725E-1,-3.346431684E-1,2.220929606E0
2.674678958E0,-2.096774988E0,2.540173736E-1,2.551789230E-1,2.127464796E0
2.684649958E0,-1.975963911E0,-6.097532031E-1,1.105738885E0,2.344971392E0
2.694620958E0,-1.580449181E0,3.442840576E-3,1.331210445E0,2.066386391E0
2.704590958E0,-1.477646944E0,9.551251352E-2,4.186764282E-1,1.538782988E0
2.714561958E0,-1.495013467E0,-1.580590099E-2,-5.737796706E-1,1.601417560E0
2.724532958E0,-1.285831520E0,-5.233266780E-1,-9.883402437E-1,1.704127327E0
2.734503958E0,-1.010507915E0,-1.187615692E0,-1.618140918E-1,1.567718431E0
2.744473958E0,-6.094851083E-1,-7.835219273E-1,4.033461982E-1,1.071478821E0
2.754444958E0,-6.904333770E-1,-4.372109324E-2,3.746369541E-2,6.928299290E-1
2.764415958E0,-2.117899882E-1,-4.917332947E-1,9.746869951E-1,1.112057270E0
2.774386958E0,8.338856768E-2,-7.977265683E-1,1.187368940E0,1.432887410E0
2.784356958E0,2.115203950E-1,2.010644040E-1,8.690272236E-1,9.167202885E-1
2.794327958E0,-1.348706520E-1,6.352485251E-1,8.444613165E-1,1.065291367E0
2.804298958E0,-1.640629492E-1,3.749845710E-1,6.589484596E-1,7.757210531E-1
2.814269958E0,6.194186506E-1,-8.016921499E-1,7.790087539E-1,1.277984510E0
2.824239958E0,7.117703055E-1,-8.831111196E-1,-4.541251731E-1,1.221774075E0
2.834210958E0,9.967184266E-1,-1.040460277E0,1.552008909E-1,1.449169599E0
2.844181958E0,7.324133887E-1,-1.083893395E0,-2.421501571E-1,1.330372490E0
2.854151958E0,1.273272139E0,-1.506356188E0,-2.262656111E-1,1.985327941E0
2.864122958E0,8.984652501E-1,-1.043402889E0,-3.392016578E-1,1.418092789E0
2.874093958E0,1.528849988E0,-3.335830683E-1,2.118528092E-1,1.579095172E0
2.884064958E0,1.385478014E0,-9.831537634E-2,-3.700164843E-1,1.437403020E0
2.894034958E0,1.239217370E0,-2.113780153E-1,-4.374231863E-1,1.331044477E0
2.904005958E0,1.722767194E0,-6.622892663E-1,1.012012696E-1,1.848457620E0
2.913976958E0,1.217988030E0,2.070484444E-1,4.702295744E-1,1.321922749E0
2.923947958E0,1.333055826E0,1.713783824E-1,1.100248350E0,1.736938346E0
2.933917958E0,1.471365134E0,-2.892813465E-1,6.204480529E-1,1.622823108E0
2.943888958E0,1.508585878E0,-5.113591817E-1,6.004020435E-1,1.702293211E0
2.953859958E0,1.214763072E0,3.451137775E-1,3.411113584E-1,1.308093956E0
2.963830958E0,1.182070997E0,1.317282085E0,7.954885465E-1,1.940444784E0
2.973800958E0,7.184065298E-1,1.626918173E0,4.645238614E-1,1.838138489E0
2.983771958E0,4.705023471E-1,9.950443688E-1,-6.071579164E-1,1.257030823E0
2.993742958E0,8.750993378E-1,-9.839840680E-2,-1.135690663E0,1.437106252E0
3.003713958E0,1.447410407E0,-1.892392874E-1,-1.113946037E0,1.836214630E0
3.013683958E0,1.696859790E0,-4.771912694E-2,-9.542895681E-1,1.947377426E0
3.023654958E0,1.627571307E0,-5.499987522E-1,-3.872780496E-1,1.761099451E0
3.033625958E0,2.260294712E0,-5.478437608E-1,-3.382164019E-1,2.350203248E0
3.043596958E0,1.891285850E0,-3.728702179E-1,7.603847873E-1,2.072240186E0
3.053567458E0,1.670555651E0,-5.437308294E-1,1.459224122E0,2.283798248E0
3.063538458E0,1.589711463E0,-7.271802038E-2,8.529122972E-1,1.805527578E0
3.073509458E0,1.591082197E0,2.775798985E-1,-7.256201667E-1,1.770626382E0
3.083480458E0,8.503618149E-1,-5.697836834E-1,-1.664924490E-1,1.037057567E0
3.093450458E0,7.180786472E-1,-7.875953901E-1,-4.746892458E-1,1.166736184E0
3.103421458E0,1.088506702E0,-4.988756686E-2,2.523061860E-1,1.118478440E0
3.113392458E0,1.258941783E0,-8.969219506E-2,3.359020740E-1,1.306066348E0
3.123362458E0,1.572960944E0,4.271113291E-1,-2.988055837E-1,1.657080263E0
3.133333458E0,1.660893420E0,-2.390204349E-1,1.471750027E-1,1.684445963E0
3.143304458E0,1.230448155E0,-1.671672177E-1,8.512791699E-1,1.505531058E0
3.153275458E0,1.204679402E0,2.344230616E-1,3.456020200E-1,1.275008780E0
3.163245458E0,1.180561830E0,2.246494406E-1,4.930366391E-1,1.298952938E0
3.173216458E0,1.320453907E0,-1.747089565E-2,2.903510946E-1,1.352112240E0
3.183187458E0,1.404799846E0,2.682775632E-1,1.802509475E-1,1.441501253E0
3.193158458E0,1.346572103E0,2.217688099E-1,4.054272223E-1,1.423660447E0
3.203128458E0,1.267958335E0,3.668373531E-1,2.088929486E-1,1.336384768E0
3.213099458E0,1.333823273E0,3.433523038E-1,-8.598915339E-2,1.379988936E0
3.223070458E0,1.813118663E0,2.411868283E-1,-4.670229614E-1,1.887771389E0
3.233041458E0,1.600055334E0,-1.707503915E-1,-7.858073115E-3,1.609159568E0
3.243011458E0,1.888988186E0,2.204838842E-2,-2.110213351E-1,1.900866251E0
3.252982458E0,1.303867402E0,8.006884754E-2,2.392622173E-1,1.328054077E0
3.262953458E0,1.351222540E0,5.631468013E-1,3.532291281E-1,1.505890929E0
3.272924458E0,1.140874658E0,8.589916474E-1,4.756394184E-1,1.505222406E0
3.282894458E0,1.737766033E0,-2.461774269E-1,8.902584636E-1,1.967992440E0
3.292865458E0,1.220780953E0,-3.416653821E-1,-3.619017184E-1,1.318337674E0
3.302836458E0,1.627379811E0,-2.194957048E-1,-1.805573416E-1,1.652012218E0
3.312806458E0,1.563839727E0,-3.345686164E-1,4.076620281E-2,1.599747709E0
3.322777458E0,1.136080526E0,-6.827644613E-1,7.480810761E-2,1.327570158E0
3.332748458E0,1.106138835E0,-1.343035854E0,3.535577416E-2,1.740269651E0
3.342719458E0,1.036342084E0,-1.765082032E0,7.032241613E-1,2.164265167E0
3.352689458E0,8.052379015E-1,-1.060016290E0,1.632318662E0,2.106301694E0
3.362660458E0,4.544279127E-1,-4.951849061E-1,1.789570756E0,1.911616151E0
3.372631458E0,6.276329653E-1,-1.508429611E-1,7.955288923E-1,1.024472038E0
3.382602458E0,5.351710904E-1,2.650279731E-2,7.287127590E-1,9.045069261E-1
3.392572458E0,6.118608320E-1,-5.920033953E-1,7.554456443E-1,1.138217826E0
3.402543458E0,4.073654281E-1,-9.752921820E-2,2.631831765E-3,4.188859832E-1
3.412514458E0,6.638791242E-1,4.128181028E-1,-3.950326270E-1,8.759024226E-1
3.422485458E0,6.894207855E-1,-1.151141346E-1,1.388783884E-1,7.126285780E-1
3.432455458E0,9.106975521E-1,-5.236760491E-1,5.127306461E-2,1.051777335E0
3.442426458E0,1.014073694E0,1.421589687E-1,7.861751014E-1,1.290978667E0
3.452397458E0,7.470196603E-1,5.855767205E-1,1.069195542E0,1.429726399E0
3.462368458E0,1.719923401E0,9.358456957E-1,7.776785123E-1,2.106828787E0
3.472338458E0,1.421836440E0,1.167464433E0,3.192702538E-1,1.867224025E0
3.482309458E0,1.685474822E0,2.226277658E-1,-3.874394327E-1,1.743702329E0
3.492280458E0,1.227467390E0,-4.514927566E-2,-9.787777072E-1,1.570579655E0
3.502250458E0,1.361385586E0,-8.472293884E-2,-4.639520037E-1,1.440763739E0
3.512221458E0,1.081710776E0,1.513662869E-1,-1.442443782E-1,1.101733360E0
3.522192458E0,8.207770233E-1,6.636157072E-1,-2.337611568E-1,1.081066606E0
3.532163458E0,8.273703437E-1,-3.984380454E-2,1.819916636E-1,8.480861866E-1
3.542133458E0,3.651181255E-1,2.754696384E-1,-4.220257133E-1,6.223346929E-1
3.552104458E0,4.531926153E-1,9.938044667E-2,-7.323275077E-1,8.669276777E-1
3.562075458E0,2.678445768E-1,3.248426503E-1,-6.599968654E-1,7.828533241E-1
3.572046458E0,2.483623121E-1,-5.218347609E-3,-2.097524893E-1,3.251264000E-1
3.582016458E0,1.268147054E-1,-2.301133713E-1,-1.144270867E-1,2.865792933E-1
3.591987458E0,4.070458777E-2,2.166150740E-1,-2.455421269E-2,2.217698426E-1
3.601958458E0,-2.858038612E-2,2.456605330E-1,-9.575166464E-2,2.652061787E-1
3.611929458E0,1.937262945E-1,-3.716309005E-1,2.014839417E-1,4.650109484E-1
3.621899458E0,2.663917630E-1,-2.732377562E-1,-4.656991518E-1,6.020790170E-1
3.631870458E0,2.291627602E-1,-2.565033174E-1,-4.113662392E-1,5.362198292E-1
3.641841458E0,5.954759105E-1,-2.491694471E-1,5.506685507E-1,8.484767681E-1
3.651812458E0,5.187526204E-1,6.181983367E-1,3.833241624E-1,8.934264817E-1
3.661782458E0,6.332718008E-1,8.574465206E-1,-5.318679982E-1,1.191272965E0
3.671753458E0,5.828534529E-1,-6.699213445E-2,3.094749981E-1,6.633105367E-1
3.681724458E0,9.197384439E-1,-8.767958343E-2,1.272091001E-1,9.326246135E-1
3.691694458E0,5.578160410E-1,2.630109760E-1,-2.095852590E-1,6.513520475E-1
3.701665458E0,3.376880329E-1,-7.338109463E-2,-3.378357482E-1,4.832711303E-1
3.711636458E0,-1.984435357E-2,9.740262598E-2,1.571304721E-1,1.859329319E-1
3.721607458E0,-4.475144573E-1,1.781354249E-3,4.093273151E-1,6.064826573E-1
3.731577458E0,-3.323229202E-1,-3.392732862E-1,-9.412146091E-2,4.841525952E-1
3.741548458E0,-8.698895417E-2,-7.019246176E-1,1.024981821E-1,7.146825339E-1
3.751519458E0,-3.709459723E-1,-8.332799783E-1,5.642393535E-1,1.072530878E0
3.761490458E0,3.814394586E-2,-2.397928521E-1,1.197476436E0,1.221845075E0
3.771460458E0,2.865786172E-2,1.905125186E-1,9.532873553E-1,9.725600622E-1
3.781431458E0,4.316514728E-1,1.595178902E-1,1.072357131E0,1.166927062E0
3.791402458E0,6.626192685E-1,4.822944269E-1,-1.765134072E-1,8.383490873E-1
3.801373458E0,5.812121395E-1,-2.312567943E-1,-3.511761707E-1,7.173645927E-1
3.811343458E0,7.620849384E-1,-3.321581018E-1,-1.006603437E0,1.305508689E0
3.821314458E0,9.075442949E-1,-6.631376973E-1,-6.386720699E-1,1.292783921E0
3.831285458E0,1.058312631E0,-3.862039161E-1,-9.544714165E-1,1.476548263E0
3.841256458E0,7.261211269E-1,-1.843887296E-1,-1.980574733E-1,7.749050634E-1
3.851226458E0,7.717693162E-1,-2.665269068E-1,9.094724143E-1,1.222212969E0
3.861197458E0,6.285568985E-1,4.966662982E-1,7.207476819E-1,1.077607724E0
3.871168458E0,9.299618619E-1,1.034834379E-1,8.876687318E-1,1.289764965E0
3.881138458E0,8.331832069E-1,-1.910159639E-1,-1.433608639E-1,8.667373835E-1
3.891109458E0,1.155573681E0,-6.096698803E-1,-5.098807132E-1,1.402507126E0
3.901080458E0,9.791756833E-1,-1.059541204E0,4.433709741E-2,1.443391271E0
3.911051458E0,1.002297621E0,-5.580225939E-1,2.057494855E-1,1.165470972E0
3.921021458E0,1.096773057E0,-7.468674865E-1,1.708112025E-1,1.337870939E0
3.930992458E0,9.696039375E-1,-1.123572893E0,5.280848497E-1,1.575252821E0
3.940963458E0,1.425556439E0,-5.989308840E-1,1.225001035E0,1.972702942E0
3.950934458E0,3.225498109E-1,-4.461413848E-1,8.059778666E-1,9.760537061E-1
3.960904458E0,6.131266811E-1,3.389864802E-2,7.198893106E-1,9.462103703E-1
3.970875458E0,3.358723263E-1,8.509920716E-2,4.930167586E-1,6.025924152E-1
3.980846458E0,6.514236047E-1,4.031128943E-2,7.099560606E-1,9.643730196E-1
3.990817458E0,6.586355605E-1,6.034525359E-1,5.162734741E-1,1.031743216E0
4.000787458E0,8.296180134E-1,7.718918154E-1,9.431617320E-2,1.137092152E0
4.010758458E0,9.502215140E-1,3.728620318E-1,-4.707628405E-1,1.124083926E0
4.020729458E0,9.816042513E-1,5.432911187E-1,-9.735456187E-1,1.485430314E0
4.030700458E0,1.142636863E0,1.982969168E-1,-1.321784733E0,1.758424166E0
4.040670458E0,6.257629526E-1,2.207277131E-1,-5.295887536E-1,8.489783532E-1
4.050642000E0,4.018519422E-1,2.895684448E-1,-5.509550643E-1,7.408686460E-1
4.060613000E0,1.003374897E-1,4.839983055E-1,-4.001927948E-1,6.359844688E-1
4.070583000E0,2.127662905E-1,-2.937801942E-1,6.978306895E-1,7.864756628E-1
4.080554000E0,-1.495700953E-1,-9.523623258E-2,3.152193028E-1,3.616688572E-1
4.090525000E0,-1.026844159E-1,-1.879046604E-1,-5.274708921E-1,5.692783086E-1
4.100496000E0,1.375998947E-1,-1.186867833E-1,-4.884436512E-1,5.211501549E-1
4.110466000E0,-1.485213972E-1,-4.517085189E-1,-6.086676675E-1,7.723830144E-1
4.120437000E0,-5.750355063E-1,-6.576699659E-1,-9.907773632E-1,1.320922178E0
4.130408000E0,-4.937232484E-1,-4.887959459E-1,-4.734677625E-1,8.407471944E-1
4.140379000E0,4.973882832E-2,-5.757396573E-1,-3.285538781E-1,6.647539054E-1
4.150349000E0,5.178367272E-3,-2.661506385E-2,4.627387065E-1,4.635324019E-1
4.160320000E0,8.586337978E-1,7.782553402E-1,1.080044466E0,1.584117868E0
4.170291000E0,6.915738764E-1,6.235836223E-1,1.540721444E0,1.800264849E0
4.180261000E0,6.705475813E-1,3.862018695E-1,7.141993850E-1,1.053027400E0
4.190232000E0,6.342932363E-1,6.170970136E-1,-1.791575181E-1,9.029031233E-1
4.200203000E0,7.472299408E-1,7.134319380E-1,-2.600233412E-1,1.065340252E0
4.210174000E0,6.955825082E-1,-6.071047068E-2,5.122219384E-2,7.001032068E-1
4.220144000E0,4.401728395E-1,-6.968547893E-1,-3.237340182E-1,8.855294690E-1
4.230115000E0,5.088812048E-1,-1.199064540E0,-7.463713503E-1,1.501261485E0
4.240086000E0,2.293845159E-1,-9.612252429E-1,-6.530170441E-2,9.903714133E-1
4.250057000E0,4.424467485E-1,9.467636168E-2,6.527673680E-1,7.942467976E-1
4.260027000E0,1.235886504E-1,-5.991253039E-1,6.855784339E-1,9.188270094E-1
4.269998000E0,4.946614341E-1,-4.035309702E-1,1.798200077E-1,6.632212402E-1
4.279969000E0,-1.089030759E-1,-5.126838684E-3,3.504528701E-2,1.145178438E-1
4.289940000E0,-1.503798616E-1,-1.805409694E-1,2.366964591E-1,3.335181526E-1
4.299910000E0,-3.281768788E-1,-1.247009370E-1,3.105807066E-2,3.524414721E-1
4.309881000E0,-2.505892973E-1,-5.115986252E-1,-3.512960386E-1,6.692809992E-1
4.319852000E0,-1.743598777E-1,-5.547613093E-1,1.803333932E-1,6.088362752E-1
4.329822000E0,-6.643354263E-2,8.886013627E-2,-3.725787342E-2,1.170371246E-1
4.339793000E0,3.463506829E-2,-1.959977916E-1,3.806613404E-1,4.295553262E-1
4.349764000E0,-7.179807063E-2,-7.020050168E-1,-7.328081489E-2,7.094618273E-1
4.359735000E0,8.138443451E-2,-7.140862414E-1,4.314718902E-2,7.200029627E-1
4.369705000E0,1.884324447E-1,-1.359799236E-2,4.298872948E-3,1.889713521E-1
4.379676000E0,6.835370247E-1,2.210332301E-1,5.728675050E-1,9.188338975E-1
4.389647000E0,6.885022610E-1,9.602151364E-2,4.654026979E-1,8.365734670E-1
4.399618000E0,6.076836907E-1,-4.932219958E-1,2.215761441E-1,8.134146500E-1
4.409588000E0,3.643206749E-1,-1.060333794E0,5.883468390E-3,1.121192189E0
4.419559000E0,4.429827555E-1,-9.503719336E-1,-1.708480400E-1,1.062369797E0
4.429530000E0,2.852570734E-1,-2.596160826E-1,1.035208601E-1,3.993603345E-1
4.439501000E0,3.650374340E-1,3.266509017E-1,2.193197036E-1,5.367068773E-1
4.449471000E0,2.451434199E-1,7.124554530E-1,5.966264963E-2,7.558093017E-1
4.459442000E0,1.187865514E-1,6.225375554E-1,-7.206108570E-2,6.378526889E-1
4.469413000E0,3.140837369E-1,6.887812462E-1,-5.729967284E-1,9.494174265E-1
4.479383000E0,1.132968199E-1,6.712770215E-1,-7.880274993E-1,1.041362736E0
4.489354000E0,-2.014558019E-1,6.727002338E-1,-3.406073284E-1,7.804635781E-1
4.499325000E0,-1.205960819E-1,1.059201481E0,4.027614766E-1,1.139591154E0
4.509296000E0,-3.482216457E-1,6.814263260E-1,-9.074352443E-2,7.706066050E-1
4.519266000E0,-6.349348951E-1,4.075795823E-1,-3.891859961E-1,8.489577001E-1
4.529237000E0,-4.927638665E-2,7.922187835E-2,-6.603722566E-1,6.669301205E-1
4.539208000E0,-8.661272239E-2,6.111623821E-1,-1.850602823E-1,6.444133216E-1
4.549179000E0,-7.460305307E-2,4.905957189E-1,1.010843253E-1,5.064265157E-1
4.559149000E0,-8.190330181E-2,9.605513513E-2,1.713620102E-1,2.128372110E-1
4.569120000E0,-3.281783041E-1,-7.500691295E-2,-5.808910543E-1,6.713877071E-1
4.579091000E0,-1.710955599E-1,2.767571953E-1,-5.650509471E-1,6.520358951E-1
4.589062000E0,-2.879426265E-1,2.000972745E-1,3.576578093E-1,5.008682301E-1
4.599032000E0,-9.025243141E-2,9.218515545E-2,6.902363259E-1,7.021892835E-1
4.609003000E0,-6.904823475E-2,6.918103963E-1,2.237612486E-1,7.303686600E-1
4.618974000E0,-8.607357256E-2,5.917569351E-1,-1.926166391E-1,6.282404793E-1
4.628944000E0,-4.030288040E-1,-3.961079299E-2,-2.860446203E-1,4.958051599E-1
4.638915000E0,-5.105065846E-1,-3.347530961E-1,-8.870460033E-2,6.168833880E-1
4.648886000E0,-5.723862060E-1,-6.945059627E-1,-3.228119123E-1,9.561234396E-1
4.658857000E0,-5.415554459E-1,-3.481370804E-1,-4.590204620E-1,7.906842051E-1
4.668827000E0,-6.102623494E-1,-7.339115185E-1,4.052939057E-1,1.036971264E0
4.678798000E0,-8.941290280E-1,-1.251822213E0,1.042420557E0,1.858269676E0
4.688769000E0,-8.544515768E-1,-8.601008642E-1,1.018599585E0,1.583479115E0
4.698740000E0,-1.197727209E0,-5.851057273E-1,9.225064427E-1,1.621085228E0
4.708710000E0,-6.631680297E-1,-8.474033430E-1,1.490904921E0,1.838663032E0
4.718681000E0,-1.208307819E0,-1.080476283E0,1.095694538E0,1.956523269E0
4.728652000E0,-6.251941647E-1,-1.450199821E0,5.433028132E-1,1.670067427E0
4.738622000E0,-4.511354552E-1,-6.355122346E-1,-6.649746001E-2,7.821898180E-1
4.748593000E0,4.202580269E-1,-2.135847545E-1,2.662272370E-1,5.413983730E-1
4.758564000E0,7.135399653E-1,8.042698950E-2,2.987061810E-1,7.777102065E-1
4.768535000E0,1.226311396E0,2.188750228E-1,2.134438366E-1,1.263845001E0
4.778505000E0,1.388288333E0,2.363017720E-1,1.224178916E-1,1.413566115E0
4.788476000E0,1.093442629E0,1.289527398E-1,3.133265591E-1,1.144735395E0
4.798447000E0,8.572483731E-1,-9.316105574E-2,-2.578967088E-1,9.000358148E-1
4.808418000E0,7.072027530E-1,-4.597215432E-1,-4.479452509E-1,9.550573694E-1
4.818388000E0,5.662954173E-1,-7.178176421E-1,9.104757965E-2,9.188266043E-1
4.828359000E0,2.227651023E-1,-6.696006247E-1,-6.913513899E-2,7.090620247E-1
4.838330000E0,2.728095573E-1,-1.019310021E0,2.989962029E-1,1.096730005E0
4.848300000E0,1.312895065E-1,-2.621262923E-1,-8.414143324E-4,2.931686129E-1
4.858271000E0,4.503864634E-1,-4.518497291E-1,-5.819207489E-2,6.406266165E-1
4.868242000E0,3.934485066E-1,-8.272175851E-1,-6.633677852E-1,1.130994023E0
4.878213000E0,6.471788916E-1,-9.018040833E-1,-2.474834025E-1,1.137250701E0
4.888183000E0,1.157665815E0,-1.348783082E-1,-5.087703270E-1,1.271703402E0
4.898154000E0,7.018828100E-1,-3.742770579E-1,-4.075567782E-1,8.937702851E-1
4.908125000E0,7.664340974E-1,-1.109342232E0,6.293615484E-1,1.488004493E0
4.918096000E0,7.113426547E-1,-6.951281065E-1,1.262384039E0,1.607116958E0
4.928066000E0,6.434512916E-1,5.990542603E-1,1.086266488E0,1.397451414E0
4.938037000E0,8.258307718E-1,7.721034846E-1,1.492826900E0,1.872611121E0
4.948008000E0,5.674986281E-1,1.002698082E-1,6.245358413E-1,8.497962958E-1
4.957979000E0,4.485501088E-1,-2.163966805E-2,-2.677650547E-1,5.228418497E-1
4.967949000E0,5.226435039E-2,5.735899284E-1,-5.585704780E-1,8.023328157E-1
4.977920000E0,1.972086769E-2,4.685306659E-1,-7.072803748E-1,8.486197182E-1
4.987891000E0,8.799869522E-2,4.746114779E-1,-1.064094431E0,1.168459149E0
4.997861000E0,1.226915779E-1,-3.990935183E-1,-8.451583046E-1,9.426671838E-1
5.007832000E0,1.144039171E-1,-1.789467260E-1,-4.109008008E-1,4.625469221E-1
5.017803000E0,-2.142292638E-1,8.314000985E-1,4.341265261E-2,8.596539767E-1
5.027774000E0,-4.236956050E-1,5.796131453E-1,1.276121487E0,1.464225192E0
5.037744000E0,-6.171798979E-1,9.067329937E-1,6.583169603E-1,1.279240778E0
5.047715000E0,-4.825950103E-1,1.393070478E0,-1.998180699E-1,1.487773693E0
5.057685500E0,-3.589854196E-2,9.749585983E-1,-8.186014205E-1,1.273554577E0
5.067656500E0,-1.665718981E-1,8.196697068E-1,-9.973548961E-1,1.301661021E0
5.077626500E0,1.196048693E-1,1.523842871E-1,-1.012123209E0,1.030494874E0
5.087597500E0,-1.607099365E-1,-9.499766618E-2,-8.036892664E-1,8.250870725E-1
5.097568500E0,1.053581466E-1,-4.907328361E-1,6.958771348E-2,5.067163954E-1
5.107538500E0,-3.246322967E-1,-5.773283458E-1,2.443644977E-1,7.059802792E-1
5.117509500E0,-2.006232681E-2,-9.283036646E-1,3.714408660E-1,1.000059252E0
5.127480500E0,-3.756550274E-1,-8.553231043E-1,4.260719866E-1,1.026757834E0
5.137451500E0,-1.534995156E-1,-8.998516980E-1,1.140149750E0,1.460560383E0
5.147421500E0,-2.677484815E-1,-1.055726480E0,1.967564678E0,2.248901602E0
5.157392500E0,-1.009299588E-1,-8.043766066E-1,5.323813838E-1,9.698652070E-1
5.167363500E0,-7.047561318E-1,-9.463493416E-1,3.697568679E-1,1.236518671E0
5.177334500E0,-1.344444009E0,-1.653595510E0,3.125412780E-1,2.153970718E0
5.187304500E0,-1.448437763E0,-5.917177588E-1,-2.592824990E-1,1.585978964E0
5.197275500E0,-1.420993271E0,-8.336691105E-1,3.119197190E-2,1.647786091E0
5.207246500E0,-1.501051155E0,-5.001562089E-1,5.005275071E-1,1.659469370E0
5.217216500E0,-1.076049721E0,-7.686729231E-1,5.633084768E-1,1.437378692E0
5.227187500E0,-6.607039399E-1,-1.196580058E-1,6.875846136E-1,9.610516820E-1
5.237158500E0,-4.730829060E-1,7.451136142E-2,7.342173278E-2,4.845101958E-1
5.247129500E0,-6.425117902E-1,-5.120555851E-1,-3.321621948E-1,8.862020348E-1
5.257099500E0,-9.820831382E-1,-8.492960867E-1,-5.609742683E-1,1.414384411E0
5.267070500E0,-1.596885558E-1,-1.231371869E0,4.246809340E-1,1.312299893E0
5.277041500E0,-1.350622853E-1,-8.027048877E-1,4.208124161E-1,9.163296607E-1
5.287012500E0,5.806633235E-2,9.980027676E-3,4.968998945E-1,5.003806601E-1
5.296982500E0,2.217356269E-1,5.688820428E-1,6.644214535E-1,9.023576534E-1
5.306953500E0,6.571560688E-1,1.148123598E0,4.794412780E-1,1.407091267E0
5.316924500E0,1.451773197E-1,5.961704135E-1,-7.383045316E-2,6.180182456E-1
5.326894500E0,1.894423685E-1,4.612602380E-1,-1.236148167E-1,5.137412199E-1
5.336865500E0,-4.496075046E-1,3.964570087E-1,-3.983819121E-1,7.197452437E-1
5.346836500E0,-4.627507298E-1,2.374516270E-1,-2.416414493E-1,5.735085903E-1
5.356807500E0,-7.340685162E-1,-2.319151908E-2,-1.656656528E-1,7.528874694E-1
5.366777500E0,-1.781242055E-1,2.150731632E-1,4.052482975E-1,4.921492464E-1
5.376748500E0,1.275750993E-1,-3.793270057E-1,3.330533105E-1,5.206619737E-1
5.386719500E0,5.010908497E-2,-3.247426629E-2,-3.463416928E-1,3.514513715E-1
5.396690500E0,1.808984170E-2,2.316842258E-2,-7.767716092E-1,7.773275700E-1
5.406660500E0,-4.321163630E-2,-4.390092435E-1,-2.920801163E-2,4.420966742E-1
5.416631500E0,2.179466129E-1,-4.281623662E-2,-5.852150702E-1,6.259477891E-1
5.426602500E0,7.278254440E-1,7.536344692E-1,-9.928309053E-1,1.443401537E0
5.436572500E0,4.343284012E-1,4.538243338E-1,-1.044191093E0,1.218578157E0
5.446543500E0,2.979951596E-1,-1.335050896E-1,-3.038797975E-1,4.460579059E-1
5.456514500E0,1.961667761E-2,-8.030679998E-1,7.289139032E-3,8.033406238E-1
5.466485500E0,1.783686283E-2,2.129737204E-1,-7.945138156E-2,2.280098272E-1
5.476455500E0,-4.937215308E-2,6.503188464E-1,-5.923346400E-1,8.810292488E-1
5.486426500E0,-5.443044778E-1,8.561753359E-1,1.164297581E-1,1.021204905E0
5.496397500E0,-3.322970463E-1,-4.469032770E-1,7.573927671E-1,9.400998190E-1
5.506368500E0,-4.213925695E-1,-4.825014183E-1,8.252105284E-1,1.044677813E0
5.516338500E0,-6.097568941E-1,3.032015204E-1,-2.385178667E-1,7.215437649E-1
5.526309500E0,-5.416242603E-1,3.449091250E-1,-4.060259771E-1,7.597211580E-1
5.536280500E0,-1.176817420E0,-6.707803005E-1,-3.608883959E-1,1.401815211E0
5.546250500E0,-1.382060171E0,-8.174740773E-1,3.340116692E-1,1.640096942E0
5.556221500E0,-1.200720399E0,-9.968534973E-1,7.640632707E-1,1.737595768E0
5.566192500E0,-9.792761824E-1,-1.937223476E-1,4.691302979E-1,1.102992940E0
5.576163500E0,-1.139118666E0,-1.718949839E-1,4.990510851E-1,1.255464538E0
5.586133500E0,-1.320545708E0,-1.203169286E0,1.644584951E0,2.428192117E0
5.596104500E0,-9.241783809E-1,-9.461040509E-1,6.326699030E-1,1.466113829E0
5.606075500E0,-1.229840190E0,3.149064767E-1,-7.739491582E-2,1.271873797E0
5.616046500E0,-1.282486035E0,-2.425726184E-1,2.469448739E-1,1.328380095E0
5.626016500E0,-1.209009192E0,-3.293534848E-1,-2.140864456E-1,1.271223801E0
5.635987500E0,-1.098817609E0,-1.025092625E0,-8.076221037E-1,1.706009523E0
5.645958500E0,-9.681261999E-1,-7.285472828E-1,-9.261293775E-1,1.525045936E0
5.655928500E0,-9.967782144E-1,-1.296409571E-1,-2.994622260E-1,1.048833262E0
5.665899500E0,-1.399792145E0,-8.380355188E-1,4.285611463E-1,1.686827269E0
5.675870500E0,-4.988318145E-1,-1.136482961E0,1.609744316E0,2.032659210E0
5.685841500E0,-3.090700419E-1,-3.579940242E-1,1.378689836E0,1.457556062E0
5.695811500E0,-3.391656609E-1,-1.536177573E-1,1.350298095E0,1.400691510E0
5.705782500E0,-5.737699861E-1,-2.315196267E-1,8.311331731E-1,1.036144626E0
5.715753500E0,-1.214662353E0,-7.127463520E-1,5.213558739E-1,1.501740305E0
5.725723500E0,-5.962892947E-1,-7.359264690E-1,4.341516691E-1,1.041938752E0
5.735694500E0,-1.183497279E0,-4.907401451E-1,5.331070232E-1,1.387694057E0
5.745665500E0,-6.335496166E-1,-4.459928656E-1,1.005291322E0,1.269214479E0
5.755636500E0,-7.733669217E-1,1.479137984E-1,3.582501322E-1,8.650537813E-1
5.765606500E0,-5.826911196E-1,5.404862094E-1,-5.788638246E-1,9.832281581E-1
5.775577500E0,-4.374126613E-1,5.790430418E-1,-3.525748247E-1,8.068021365E-1
5.785548500E0,-7.549247304E-1,1.515726936E-1,6.071164012E-3,7.700146032E-1
5.795519500E0,-4.556640872E-1,2.349259222E-1,-3.252846998E-1,6.071491457E-1
5.805489500E0,-5.303284995E-1,8.786227968E-1,-7.028177798E-1,1.243856571E0
5.815460500E0,-2.326118500E-1,2.032717279E-1,-1.070445676E0,1.114128186E0
5.825431500E0,3.632607209E-1,-8.515051648E-1,-2.696770942E-1,9.642329242E-1
5.835401500E0,-9.096776515E-2,-4.492646751E-1,3.047440159E-1,5.504387321E-1
5.845372500E0,-2.435251481E-1,7.950155067E-1,3.115963680E-1,8.879450716E-1
5.855343500E0,-1.588125333E-1,5.439384055E-1,-2.686427218E-1,6.271039162E-1
5.865314500E0,-2.484464206E-1,-6.942902005E-1,2.820726067E-1,7.895121670E-1
5.875284500E0,-2.880774413E-1,1.490838262E-1,-3.709502846E-1,4.927663880E-1
5.885255500E0,-8.466410123E-1,7.282306561E-1,-5.206337428E-1,1.232144629E0
5.895226500E0,-5.629629064E-1,3.227306360E-1,-4.786402094E-1,8.063366217E-1
5.905197500E0,-4.578490089E-1,-6.742915535E-1,-4.414753067E-1,9.269278616E-1
5.915167500E0,-2.171923952E-1,-4.550276908E-1,-5.581295979E-1,7.521511710E-1
5.925138500E0,-9.371424620E-1,-1.313647163E-1,4.155598623E-1,1.033529236E0
5.935109500E0,-9.767620989E-1,4.978658545E-1,9.003671300E-1,1.418659782E0
5.945079500E0,-7.081111910E-1,-1.014418826E-1,8.081846058E-1,1.079293413E0
5.955050500E0,1.630630022E-1,-5.540613976E-1,4.233945465E-1,7.161260483E-1
5.965021500E0,2.018089190E-1,-6.425423419E-1,4.293481815E-1,7.987035507E-1
5.974992500E0,7.474277960E-1,-1.276894489E-1,1.313927829E-2,7.583703226E-1
5.984962500E0,3.286051874E-1,-4.421021283E-2,-1.042839217E-1,3.475788377E-1
5.994933500E0,2.162100081E-1,-3.153763005E-1,5.285005867E-1,6.523203574E-1
6.004904500E0,-7.192977916E-1,6.462898225E-2,6.226045060E-1,9.535211531E-1
6.014874500E0,-1.049593044E0,-2.943842116E-1,3.764197701E-1,1.153256027E0
6.024845500E0,-9.630401456E-1,-6.035472608E-1,1.439333063E-1,1.145614427E0
6.034816500E0,-1.121864775E0,-4.698737714E-1,1.775980657E-1,1.229187947E0
6.044787500E0,-1.364540451E0,-1.519401911E-1,1.534426332E-2,1.373059325E0
6.054757583E0,-1.006686321E0,-8.811987877E-2,5.851215148E-1,1.167711287E0
6.064728583E0,-9.409818900E-1,-5.134925383E-1,6.845218420E-1,1.271885080E0
6.074699583E0,-5.721802378E-1,-7.106855008E-1,3.970581025E-1,9.950473569E-1
6.084670583E0,-5.914683750E-1,1.302803501E-1,8.394812429E-1,1.035150504E0
6.094640583E0,-5.671737056E-1,8.941445231E-2,4.852335298E-1,7.517529748E-1
6.104611583E0,-4.691129390E-1,4.631784171E-1,-5.094094276E-1,8.331261372E-1
6.114582583E0,-5.902663337E-1,-3.822079289E-1,-9.522687703E-1,1.183770694E0
6.124552583E0,-4.096578290E-1,-6.597331560E-1,5.969363987E-2,7.788650105E-1
6.134523583E0,-2.992368159E-1,-3.789714950E-1,2.835402578E-1,5.599617342E-1
6.144494583E0,-9.487344939E-2,4.571657252E-1,-1.456896930E0,1.529885661E0
6.154465583E0,-1.816138055E-1,-8.247930372E-1,-1.217961572E0,1.482126013E0
6.164435583E0,1.828179848E-1,-1.142568450E0,8.192142087E-1,1.417743629E0
6.174406583E0,5.975252499E-1,-5.016297072E-1,1.720613372E0,1.889227134E0
6.184377583E0,4.014058728E-1,9.172430715E-1,1.822426261E0,2.079350620E0
6.194348583E0,-2.015743908E-1,7.057641917E-1,1.266143798E0,1.463507925E0
6.204318583E0,-2.592050599E-2,-4.891836163E-1,1.894399638E0,1.956712159E0
6.214289583E0,5.777369748E-2,-5.886789608E-1,1.132123277E0,1.277334660E0
6.224260583E0,-7.434974986E-2,6.466359776E-1,-3.473702180E-1,7.377886156E-1
6.234230583E0,2.714473936E-2,5.124181125E-1,-7.616571414E-1,9.183848648E-1
6.244201583E0,-1.870547128E-1,-5.064788032E-1,-1.556685512E0,1.647658954E0
6.254172583E0,-3.548145276E-1,-1.022868052E0,-2.356275880E0,2.593104014E0
6.264143583E0,-7.060941209E-1,-6.641384482E-1,-1.545185793E0,1.824074538E0
6.274113583E0,-5.305842786E-1,-4.394270271E-1,1.849035770E-1,7.133057701E-1
6.284084583E0,-2.154716510E-1,-7.210254246E-1,1.433325049E0,1.618865773E0
6.294055583E0,-3.762911679E-1,-4.008432975E-1,1.644833457E0,1.734285875E0
6.304025583E0,-8.033442076E-1,-1.752331594E-1,1.094314595E0,1.368792537E0
6.313996583E0,-6.485097910E-1,9.689324579E-1,-4.409361935E-1,1.246523078E0
6.323967583E0,-4.599764087E-1,8.217223719E-1,-1.975176584E0,2.188179263E0
6.333938583E0,-1.137494218E-1,3.581416664E-1,-1.809343700E0,1.847952654E0
6.343908583E0,-1.755448160E-1,-2.177172741E-1,-1.186814039E0,1.219321269E0
6.353879583E0,4.524502016E-1,5.964949340E-1,-5.769219643E-1,9.451752981E-1
6.363850583E0,1.474170866E-1,1.150200529E0,-4.917145836E-1,1.259554002E0
6.373821583E0,2.103007754E-2,1.161651423E0,1.019653253E0,1.545823098E0
6.383791583E0,-3.517002640E-1,8.211908600E-1,1.141832578E0,1.449768651E0
6.393762583E0,-4.504655470E-1,2.823620439E-1,6.578018206E-1,8.457841143E-1
6.403733583E0,-4.873163811E-1,-6.840581578E-1,-6.264373559E-1,1.047776970E0
6.413703583E0,-4.731910064E-1,-8.668055740E-1,2.597210401E-1,1.021134981E0
6.423674583E0,-3.294907482E-1,-1.141767382E0,1.211824334E0,1.697266957E0
6.433645583E0,1.667709410E-1,-1.416741469E0,1.284578315E0,1.919664133E0
6.443616583E0,1.625660437E-1,-1.519780518E0,1.181133469E0,1.931640964E0
6.453586583E0,2.274270874E-1,-1.244741235E0,1.348381963E0,1.849118098E0
6.463557583E0,-3.229003149E-1,-3.905700320E-1,3.099661642E-1,5.940442628E-1
6.473528583E0,-5.430450241E-1,-6.626769367E-1,1.718391430E-1,8.738233870E-1
6.483499583E0,-3.655391251E-1,-4.121392411E-1,-4.826858979E-1,7.324365379E-1
6.493469583E0,-3.184954612E-1,-8.310486808E-1,-9.103763938E-2,8.946335118E-1
6.503440583E0,-8.071735857E-2,-1.139121809E0,-5.329503179E-2,1.143220953E0
6.513411583E0,-3.115918364E-1,-6.439243314E-1,-1.353466702E-1,7.280430881E-1
6.523381583E0,-4.436768565E-1,-1.204329666E0,5.139731795E-1,1.382543860E0
6.533352583E0,-2.165762814E-1,-1.330633032E0,4.029333848E-1,1.407069602E0
6.543323583E0,-1.249811831E-1,-7.285236016E-1,-4.448906654E-1,8.627251233E-1
6.553294583E0,-4.750480456E-1,1.610022059E-1,-5.242239332E-1,7.255364140E-1
6.563264583E0,-6.661332989E-1,6.732811546E-1,-3.626910925E-1,1.014192247E0
6.573235583E0,-1.164610991E0,1.122054371E-1,-3.947110301E-1,1.234789706E0
6.583206583E0,-6.750079105E-1,-4.634584987E-1,3.899695230E-1,9.069209933E-1
6.593176583E0,-1.094486650E0,-7.049280399E-1,4.901340812E-1,1.391062898E0
6.603147583E0,-8.655798514E-1,-5.552323025E-1,3.809425914E-1,1.096644266E0
6.613118583E0,-8.838396095E-1,-2.735280704E-1,-1.965208250E-1,9.458385144E-1
6.623089583E0,-2.732883346E-1,-2.041327304E-1,5.472900295E-1,6.448899610E-1
6.633059583E0,-3.681432556E-2,3.694811717E-1,3.236229211E-1,4.925478919E-1
6.643030583E0,-8.904571228E-2,6.785436487E-1,2.182110715E-1,7.183082164E-1
6.653001583E0,2.956306004E-1,-2.212551320E-1,7.435600090E-1,8.302004410E-1
6.662972583E0,1.703496197E-1,-9.346315214E-1,7.493013901E-1,1.209961837E0
6.672942583E0,3.961726879E-1,-1.163898216E0,7.015015715E-1,1.415526867E0
6.682913583E0,5.475898455E-1,-5.178788272E-1,6.315817362E-1,9.833354504E-1
6.692884583E0,1.011820761E0,-3.163837758E-1,1.410933137E-1,1.069479906E0
6.702854583E0,1.437580507E0,3.512042373E-2,8.889989734E-2,1.440754784E0
6.712825583E0,9.415649305E-1,-1.152725941E-1,1.278226485E0,1.591758535E0
6.722796583E0,8.535030122E-1,8.367046925E-1,-1.025233251E0,1.574688970E0
6.732767583E0,1.136408847E0,4.924899244E-1,-2.104270241E0,2.441705273E0
6.742737583E0,1.043433440E0,-8.224430412E-2,-1.700501289E0,1.996802971E0
6.752708583E0,1.067803027E0,-5.730534464E-1,-8.101931244E-1,1.457740188E0
6.762679583E0,-2.014051870E-1,-2.983056468E-1,2.255902576E-1,4.247837951E-1
6.772650583E0,-2.920005576E-1,9.821179292E-1,1.888943017E-2,1.024781324E0
6.782620583E0,-6.544512199E-1,1.472693768E0,3.075992113E-1,1.640655542E0
6.792591583E0,-4.161094640E-1,9.806529093E-1,5.265078557E-1,1.188291941E0
6.802562583E0,3.737701409E-1,9.344730619E-1,-8.857537687E-2,1.010341338E0
6.812532583E0,7.841098648E-1,5.142231479E-1,-1.750551116E-1,9.538857469E-1
6.822503583E0,8.272042827E-1,7.504924679E-1,2.065435374E-1,1.135854789E0
6.832474583E0,1.050015505E0,-4.131408691E-2,2.435306847E-1,1.078678177E0
6.842445583E0,3.902762094E-1,1.101206124E-1,-1.688874686E-1,4.392778687E-1
6.852415583E0,6.143679719E-1,-4.739899188E-2,-8.825611889E-2,6.224819771E-1
6.862386583E0,6.342697012E-1,-8.131214100E-1,5.520800686E-1,1.169725132E0
6.872357583E0,6.114669855E-1,-1.093101006E0,6.352672362E-1,1.404395295E0
6.882328583E0,6.165963458E-1,-5.985481837E-1,-1.185546362E-1,8.674711428E-1
6.892298583E0,-2.788025513E-3,-1.372218722E0,3.955442584E-1,1.428092173E0
6.902269583E0,-2.648005895E-1,-8.666544235E-1,1.411620770E0,1.677463096E0
6.912240583E0,-2.299852807E-1,-1.201452251E0,1.331610394E0,1.808194398E0
6.922210583E0,-2.960471232E-1,-8.818928522E-1,1.600494021E-1,9.439251628E-1
6.932181583E0,-3.277946171E-1,-1.176848629E0,1.258326656E-1,1.228110690E0
6.942152583E0,-7.214630887E-1,-1.432936209E0,5.548130572E-1,1.697537245E0
6.952123583E0,-6.483212914E-1,-9.055246666E-1,1.781874651E-1,1.127850252E0
6.962093583E0,-4.155983077E-1,5.520601881E-1,4.486615348E-1,8.238868717E-1
6.972064583E0,-5.144202722E-1,1.163117613E0,1.743873596E-1,1.283698465E0
6.982035583E0,-2.942224630E-1,1.411839455E-2,1.756252152E-1,3.429437315E-1
6.992006583E0,-2.648640135E-1,-1.304712910E0,-2.954902124E-1,1.363724015E0
7.001976583E0,3.353509739E-2,-6.209351259E-1,-1.938533252E-1,6.513556211E-1
7.011947583E0,2.496998627E-2,4.866652206E-1,-1.100942999E-1,4.995871215E-1
7.021918583E0,7.337672750E-2,1.778261071E-1,2.039976597E-1,2.803949245E-1
7.031888583E0,2.363775300E-2,-8.776056737E-1,-7.063553452E-2,8.807609440E-1
7.041859583E0,-4.139373330E-1,-7.445806405E-1,-4.958842331E-1,9.857208624E-1
7.051830958E0,-7.582102809E-1,-2.788791499E-1,5.229574263E-2,8.095623849E-1
7.061801958E0,-3.683941012E-1,-1.905198276E-1,9.605057430E-1,1.046223351E0
7.071771958E0,-5.068717360E-1,-3.171740270E-1,-3.622057736E-2,5.990244155E-1
7.081742958E0,-3.236636323E-1,-4.259354541E-1,1.258829516E-1,5.495686267E-1
7.091713958E0,-5.455137185E-1,-1.263460511E-1,1.479602838E-1,5.791725022E-1
7.101684958E0,-3.025568649E-3,2.361640701E-1,-1.904543388E-1,3.034064555E-1
7.111654958E0,-2.147676827E-2,-4.115466258E-1,-1.415184063E-1,4.357285119E-1
7.121625958E0,4.407137800E-2,-7.865306121E-1,3.228832483E-2,7.884257898E-1
7.131596958E0,-5.573969783E-2,-5.555723181E-1,-2.982512677E-1,6.330255392E-1
7.141566958E0,-3.216277049E-1,-1.038842645E-1,-7.663974792E-1,8.376165096E-1
7.151537958E0,-4.977551594E-1,3.306828493E-1,-3.704550254E-1,7.030990481E-1
7.161508958E0,-1.545149577E-1,5.475347355E-1,-2.481955934E-1,6.207013866E-1
7.171479958E0,1.165016423E-1,-5.196788925E-1,6.648851377E-1,8.518867473E-1
7.181449958E0,3.009603192E-1,-5.799356192E-2,5.252805251E-1,6.081611604E-1
7.191420958E0,9.596424747E-2,1.572943403E0,-3.897993690E-1,1.623361831E0
7.201391958E0,1.258526557E-1,1.331055786E0,2.902323961E-2,1.337307274E0
7.211362958E0,-7.049143720E-2,9.061760464E-1,2.553619409E-1,9.441047562E-1
7.221332958E0,2.020114336E-2,7.691407004E-1,-2.674142218E-1,8.145525577E-1
7.231303958E0,-1.225391483E-1,8.003177619E-1,-6.280862707E-1,1.024703238E0
7.241274958E0,1.233544694E-1,7.320980045E-1,-1.365281001E0,1.554083661E0
7.251244958E0,3.008043813E-1,3.370048589E-1,-1.345222127E-1,4.713297958E-1
7.261215958E0,7.579877213E-2,-3.904656592E-1,3.420708865E-1,5.246154556E-1
7.271186958E0,-1.506601990E-1,-1.593942216E-1,8.644886148E-1,8.918775581E-1
7.281157958E0,-1.009657730E-1,-3.017780158E-1,1.509372767E0,1.542553146E0
7.291127958E0,-3.275237449E-1,-4.213258016E-1,5.248244423E-1,7.484837538E-1
7.301098958E0,-2.980336051E-1,-9.359018290E-1,-4.513658720E-1,1.080956712E0
7.311069958E0,-5.328462740E-1,-1.614940445E0,-7.953160536E-1,1.877361291E0
7.321040958E0,7.984204866E-2,-1.580478417E0,-5.449721932E-1,1.673702922E0
7.331010958E0,-4.943317243E-1,-1.290982478E0,-8.290071255E-1,1.611909559E0
7.340981958E0,-1.247189172E-1,-1.860531396E0,-4.845213389E-1,1.926627315E0
7.350952958E0,-6.970381726E-2,-1.568160965E0,8.684617978E-1,1.793937939E0
7.360922958E0,7.960918330E-2,-3.582208961E-1,1.515168527E0,1.558972577E0
7.370893958E0,5.460736625E-2,3.058792529E-1,1.586282948E0,1.616427442E0
7.380864958E0,-1.474176987E-1,1.888101017E-1,1.974588354E0,1.989065207E0
7.390835958E0,-1.319967638E-1,-4.158969542E-1,8.939223289E-2,4.454036299E-1
7.400805958E0,2.285341480E-1,-8.505316034E-1,-3.619537586E-1,9.521777085E-1
7.410776958E0,-2.620313116E-1,-6.537903383E-1,-1.201018095E-1,7.145114830E-1
7.420747958E0,-7.364592965E-1,-5.934046805E-2,-1.013883805E-1,7.457701994E-1
7.430718958E0,-8.592386191E-1,4.779952615E-1,-4.338780195E-1,1.074718852E0
7.440688958E0,-1.578833011E-1,-3.902574983E-1,1.700387853E-1,4.540277968E-1
7.450659958E0,3.378418512E-1,-2.278241864E-1,-1.362635136E-2,4.077090308E-1
7.460630958E0,4.405317123E-1,4.595911503E-3,4.868999863E-1,6.566284403E-1
7.470600958E0,1.085166480E0,-1.166928828E-1,-1.171489656E-2,1.091485574E0
7.480571958E0,4.090685758E-1,1.539662513E-1,-1.667871487E-1,4.678254581E-1
7.490542958E0,7.945956036E-1,-5.641665557E-1,-8.604645610E-2,9.782995801E-1
7.500513958E0,4.189741977E-1,-1.140243890E0,-1.483204722E-2,1.214872625E0
7.510483958E0,9.901459370E-2,-1.072457119E0,-3.483426100E-1,1.131949970E0
7.520454958E0,3.356473546E-2,-3.238576868E-1,1.244579852E-1,3.485687634E-1
7.530425958E0,-2.088445264E-1,-2.378963077E-1,2.965941668E-1,4.337957920E-1
7.540396958E0,1.764452506E-1,-1.572436157E-1,3.761396885E-1,4.442291598E-1
7.550366958E0,7.531286120E-1,-4.704424131E-1,5.373018157E-1,1.037888246E0
7.560337958E0,4.309998372E-1,2.494246781E-2,8.697557867E-1,9.710088129E-1
7.570308958E0,6.218593515E-1,8.651247919E-2,1.343392534E0,1.482867817E0
7.580278958E0,3.181934159E-1,2.574882808E-1,2.046367604E-1,4.576280896E-1
7.590249958E0,6.490134555E-1,-1.132184672E-1,-1.079763799E0,1.264882109E0
7.600220958E0,2.640712224E-1,-2.611533156E-1,-8.268997890E-1,9.064755517E-1
7.610191958E0,4.692358401E-1,1.575567341E-1,-1.106882601E0,1.212516181E0
7.620161958E0,3.204823816E-1,7.463687190E-1,-3.251829582E-1,8.749395282E-1
7.630132958E0,4.437235612E-1,5.995150208E-1,-9.342564225E-2,7.516895700E-1
7.640103958E0,1.699311235E-1,9.867220268E-1,2.803254586E-1,1.039749637E0
7.650074958E0,3.351706604E-1,7.137924188E-1,1.211690433E0,1.445694537E0
7.660044958E0,4.260511559E-2,1.232604169E0,6.165929836E-1,1.378881845E0
7.670015958E0,4.133801664E-1,8.001060927E-1,2.416338480E-1,9.324375786E-1
7.679986958E0,3.775141496E-1,8.161543608E-2,-3.156847411E-1,4.988335077E-1
7.689956958E0,9.900010722E-1,-3.805631071E-1,-3.217752010E-1,1.108363515E0
7.699927958E0,8.455505066E-1,-1.322234676E0,3.980585611E-1,1.619169792E0
7.709898958E0,6.965138235E-1,-4.246324021E-1,-2.960234785E-1,8.677984115E-1
7.719869958E0,7.489590356E-1,-6.559558547E-1,-8.676624835E-2,9.993728544E-1
7.729839958E0,8.156498922E-1,-1.311997663E0,1.045097997E0,1.865168206E0
7.739810958E0,4.698391997E-1,-8.967439029E-1,8.096867555E-1,1.296337588E0
7.749781958E0,5.217558966E-1,-9.620625642E-1,6.213964713E-1,1.258541683E0
7.759752958E0,6.963533905E-1,-4.637947136E-1,1.162207786E0,1.432040683E0
7.769722958E0,1.583412842E-1,-9.545345664E-1,1.077359424E0,1.448071659E0
7.779693958E0,-2.509926090E-1,-7.939887357E-1,4.919917417E-1,9.671976406E-1
7.789664958E0,-4.289335043E-1,-9.707860252E-1,-7.091503143E-2,1.063690932E0
7.799634958E0,-6.037525711E-1,-9.030001312E-2,-7.765102386E-2,6.153868223E-1
7.809605958E0,-6.722835466E-1,-1.418362024E-1,-3.664222008E-1,7.786834431E-1
7.819576958E0,-4.403680268E-1,-1.624678105E-2,-3.541202438E-1,5.653221241E-1
7.829547958E0,-2.376387013E-1,-5.450502536E-1,1.909133452E-1,6.244996691E-1
7.839517958E0,5.920148339E-1,2.841846210E-1,-5.195075691E-1,8.373354027E-1
7.849488958E0,1.695877823E-1,-2.492834678E-1,-5.946127152E-1,6.666832414E-1
7.859459958E0,3.787045696E-1,-1.102208921E-1,-1.731068194E-2,3.947979937E-1
7.869430958E0,5.000020982E-1,-6.599299148E-1,-2.054226261E-1,8.530580554E-1
7.879400958E0,2.040276632E-1,-6.738837102E-1,-5.518374091E-1,8.945787100E-1
7.889371958E0,-7.041180544E-3,-4.082180983E-1,9.130661130E-2,4.183640654E-1
7.899342958E0,-1.936048186E-1,-1.308068919E-1,2.530915840E0,2.541678236E0
7.909312958E0,-7.735340059E-2,2.231399819E-1,1.881778423E0,1.896540280E0
7.919283958E0,3.027396635E-1,1.290768178E0,-2.859171510E-1,1.356275197E0
7.929254958E0,-1.399076811E-1,1.067125043E0,-1.397537166E0,1.763927478E0
7.939225958E0,-5.767437704E-3,-4.524002445E-1,-2.294856727E-1,5.073094899E-1
7.949195958E0,1.595855717E-1,9.796746701E-2,-9.648525631E-1,9.828558632E-1
7.959166958E0,-3.529752128E-2,9.441931808E-1,-1.002258956E0,1.377414132E0
7.969137958E0,-3.340433903E-1,1.061063234E0,-6.655581522E-1,1.296305453E0
7.979108958E0,-2.543451101E-1,3.334985760E-1,-4.635111237E-1,6.251042289E-1
7.989078958E0,-5.065080758E-1,-2.776667297E-1,3.601335204E-1,6.806947892E-1
7.999049958E0,-4.497184190E-1,5.719465685E-1,-1.509236526E-1,7.430662706E-1
8.009020958E0,-6.116356776E-1,1.390708787E0,1.918980163E-1,1.531337318E0
8.018990958E0,-9.306856741E-1,4.683227974E-1,9.619441581E-1,1.418040419E0
8.028961958E0,-5.452829728E-1,3.608726084E-1,8.537110269E-2,6.594321687E-1
8.038932958E0,-8.986365004E-1,1.494878688E-1,-8.489823836E-1,1.245257110E0
8.048903958E0,-6.545250410E-1,3.264602825E-1,-6.494917578E-1,9.781711960E-1
8.058873833E0,-8.189231636E-1,-3.492313868E-1,-6.321424842E-1,1.091879952E0
8.068844833E0,-5.006761360E-1,-4.227978382E-1,-6.552261221E-1,9.266908202E-1
8.078815833E0,-5.494389178E-1,-4.283541548E-1,-8.013410246E-1,1.061846432E0
8.088786833E0,-4.804328196E-3,-1.589448631E-2,5.796099293E-1,5.798477269E-1
8.098756833E0,-1.998707680E-1,-1.943441990E-1,1.734315153E0,1.756578219E0
8.108727833E0,7.578426372E-2,-2.043192565E-1,1.561850358E0,1.576980074E0
8.118698833E0,-2.011734911E-1,-1.217711896E0,2.155640370E-1,1.252900989E0
8.128669833E0,-4.470053110E-1,-1.808969479E0,-1.557698250E-1,1.869879290E0
8.138639833E0,-4.263921216E-1,-1.607310120E0,-5.760910749E-1,1.759868459E0
8.148610833E0,-3.558578901E-1,-6.805182534E-1,1.331970583E0,1.537493273E0
8.158581833E0,-1.254133910E0,4.337818328E-1,1.296251696E0,1.855070619E0
8.168551833E0,-1.036580504E0,-4.272145325E-1,1.227824070E0,1.662697611E0
8.178522833E0,-9.374282447E-1,-7.158485922E-1,4.840798742E-1,1.274968331E0
8.188493833E0,-3.717181702E-1,-5.048524001E-1,-2.365900397E-1,6.700934195E-1
8.198464833E0,-3.834731933E-3,-6.298237708E-1,-4.694039476E-1,7.855143242E-1
8.208434833E0,9.885414245E-2,-2.017640233E-2,-6.056411487E-1,6.139873204E-1
8.218405833E0,2.627957437E-1,-1.259637309E0,2.890278697E-1,1.318819496E0
8.228376833E0,4.016348278E-1,-5.562713528E-1,-1.236475611E-1,6.971635907E-1
8.238347833E0,-1.579931008E-1,-1.283291343E-1,-7.313580394E-2,2.162846098E-1
8.248317833E0,4.051263465E-2,-1.683363685E-1,5.725476623E-1,5.981548563E-1
8.258288833E0,-3.018107785E-1,1.394060996E-1,5.944045544E-2,3.377232215E-1
8.268259833E0,-3.491186817E-1,-3.942871070E-1,3.772220081E-1,6.477982865E-1
8.278230833E0,-2.455737019E-1,-5.549653772E-1,-1.256935018E-1,6.197514577E-1
8.288200833E0,-4.143946584E-1,-7.014466077E-2,2.529856324E-1,4.905557425E-1
8.298171833E0,-6.145367371E-1,-1.861610207E-1,4.511694056E-1,7.847707687E-1
8.308142833E0,-6.762190150E-1,-1.720081276E-1,3.924569285E-1,8.005506811E-1
8.318112833E0,-3.612997475E-1,-1.295918405E-1,3.921990663E-1,5.487728677E-1
8.328083833E0,-1.004501217E0,-5.572270802E-1,-1.574795508E-1,1.159450095E0
8.338054833E0,-3.734524178E-1,2.243284285E-3,-2.978647667E-1,4.776977705E-1
8.348025833E0,-5.064473378E-1,5.549463737E-1,-4.473026419E-1,8.743763704E-1
8.357995833E0,-3.413662970E-2,2.154389066E-1,-3.229972690E-1,3.897518027E-1
8.367966833E0,-3.158095061E-1,5.879392880E-1,-6.816455966E-1,9.539648683E-1
8.377937833E0,-1.472704402E-1,5.289332807E-2,-2.334611946E-1,2.810523370E-1
8.387908833E0,-2.935294949E-1,-1.606019640E-1,7.704770815E-1,8.399925526E-1
8.397878833E0,-1.343719576E-1,1.872483104E-2,6.819964296E-1,6.953600306E-1
8.407849833E0,-5.812307775E-2,5.505071676E-1,-2.716277254E-1,6.166182408E-1
8.417820833E0,4.366217158E-1,-5.220423371E-2,-2.438645607E-1,5.028257438E-1
8.427791833E0,8.360014187E-1,-3.015031967E-1,7.944629449E-1,1.192046107E0
8.437761833E0,5.197512518E-1,-5.840239924E-1,1.766192418E-1,8.015109132E-1
8.447732833E0,5.530268424E-1,3.451661101E-1,-4.903545213E-1,8.157364087E-1
8.457703833E0,9.386582065E-1,2.519661704E-1,-3.781511307E-1,1.042863585E0
8.467673833E0,5.319261049E-1,-9.084994376E-2,3.253905344E-1,6.301413280E-1
8.477644833E0,4.332465567E-1,-5.926123828E-1,2.482043642E-1,7.749176869E-1
8.487615833E0,2.465836622E-2,6.505027413E-3,6.986563164E-1,6.991215909E-1
8.497586833E0,1.656797226E-1,-2.490908021E-1,1.566702962E-2,2.995687800E-1
8.507556833E0,-5.562977749E-1,7.133924693E-2,1.464382535E-1,5.796556431E-1
8.517527833E0,-2.313008677E-2,-1.385407117E-1,-2.158675075E-1,2.575408909E-1
8.527498833E0,2.079843644E-2,-3.636988601E-1,-1.077057123E-2,3.644522479E-1
8.537469833E0,8.564553445E-1,-2.326080859E-2,-2.596853721E-1,8.952615902E-1
8.547439833E0,1.196052493E0,1.014752117E-1,2.681287515E-1,1.229931629E0
8.557410833E0,1.534631715E0,-4.507905060E-1,3.894111139E-1,1.646191847E0
8.567381833E0,9.522738867E-1,-4.459843871E-1,3.490717578E-1,1.107961516E0
8.577352833E0,9.839460611E-1,-6.704587036E-1,8.757930368E-1,1.478065685E0
8.587322833E0,9.059541446E-1,-4.138334718E-1,7.524360824E-1,1.248267244E0
8.597293833E0,8.790788797E-1,-1.884297404E-1,-1.321774793E-1,9.087113567E-1
8.607264833E0,1.765147594E-1,-5.282175815E-1,-9.848313296E-1,1.131399143E0
8.617234833E0,2.802612124E-1,-6.708095366E-1,-5.259570479E-1,8.973085299E-1
8.627205833E0,-1.265162782E-1,-6.149847069E-1,9.031433880E-2,6.343258139E-1
8.637176833E0,-3.908790573E-3,-3.087028733E-1,-1.060146976E-1,3.264228220E-1
8.647147833E0,-9.236068156E-2,6.227401614E-2,-1.184482169E-1,1.625992887E-1
8.657117833E0,3.420137665E-1,-8.142928997E-1,8.257332695E-1,1.209083031E0
8.667088833E0,3.376420226E-1,-6.802685773E-1,7.556298316E-1,1.071328108E0
8.677059833E0,7.502072699E-1,4.486685514E-2,1.309935935E0,1.510217248E0
8.687030833E0,7.378419437E-1,4.411107329E-1,1.533438737E0,1.757960117E0
8.697000833E0,1.019963667E0,-1.071256685E-1,7.232000041E-1,1.254918339E0
8.706971833E0,1.051341800E0,-3.205227274E-1,-6.904743075E-2,1.101281956E0
8.716942833E0,1.190116473E0,-1.679761800E-1,-5.249694532E-1,1.311558669E0
8.726913833E0,1.450185496E0,2.086172524E-1,-2.209458143E-1,1.481680189E0
8.736883833E0,1.120570202E0,1.382249621E-1,-4.882278889E-1,1.230101699E0
8.746854833E0,7.519150954E-1,-1.437219295E-1,2.526114106E-1,8.061295358E-1
8.756825833E0,9.418057626E-1,1.343926969E-1,1.853567362E-3,9.513479528E-1
8.766795833E0,8.127271615E-1,6.103659913E-1,-4.592175132E-1,1.115326323E0
8.776766833E0,1.060754647E0,3.769854882E-1,-7.127744186E-1,1.332428554E0
8.786737833E0,7.946216968E-1,-5.197727403E-1,-8.938100624E-1,1.304025985E0
8.796708833E0,6.566009487E-1,-5.232667440E-1,-6.519645452E-2,8.421303159E-1
8.806678833E0,2.775000840E-2,3.366008162E-1,-8.706036329E-2,3.487831408E-1
8.816649833E0,3.805701238E-1,8.266448504E-1,-1.290427870E-1,9.191449117E-1
8.826620833E0,4.395184629E-1,3.148102900E-1,6.721111268E-1,8.625632526E-1
8.836591833E0,2.280175100E-1,1.260314709E-1,7.556105357E-1,7.992641605E-1
8.846561833E0,1.014928995E-1,-3.104786727E-1,8.703463554E-2,3.380426639E-1
8.856532833E0,-1.018765499E-1,-1.445297223E-1,-8.566200167E-1,8.746802416E-1
8.866503833E0,-3.014186313E-1,-1.759444731E-1,-2.816445905E-1,4.484789006E-1
8.876474833E0,-4.505559596E-1,1.336080006E-1,-2.957895899E-1,5.552866395E-1
8.886444833E0,-1.087604112E0,7.186070162E-1,-1.116794801E-1,1.308339044E0
8.896415833E0,-8.644564551E-1,2.232686207E-1,2.108476728E-1,9.173824616E-1
8.906386833E0,-3.471760905E-1,6.454712123E-2,2.894371748E-3,3.531372906E-1
8.916356833E0,2.036217568E-1,-8.346491039E-2,-4.965473074E-1,5.431274616E-1
8.926327833E0,2.125481893E-1,-8.304712683E-2,3.497406793E-1,4.176028027E-1
8.936298833E0,4.927422318E-1,-2.126807749E-1,9.308159208E-1,1.074451626E0
8.946269833E0,2.087070803E-1,-4.120983106E-1,2.871158302E-2,4.628261206E-1
8.956239833E0,3.618843960E-1,-4.794868863E-1,-3.696662360E-1,7.053517677E-1
8.966210833E0,7.899186350E-2,-7.827281678E-1,2.368853241E-1,8.215946421E-1
8.976181833E0,-3.182646789E-2,-7.589835021E-1,8.256835681E-1,1.121972475E0
8.986152833E0,-6.107771236E-2,-6.478627235E-1,1.005304186E0,1.197536263E0
8.996122833E0,-4.244457297E-1,-1.194030672E-1,2.786899924E-1,5.216122907E-1
9.006093833E0,-5.003506288E-1,-3.283156040E-1,-5.801355940E-1,8.334861697E-1
9.016064833E0,1.370191200E-1,-1.058027652E0,2.294657922E-1,1.091261335E0
9.026035833E0,-5.833026287E-1,-1.204299260E0,1.578338921E-1,1.347401277E0
9.036005833E0,-2.747960757E-1,-5.102213135E-1,2.192688328E-1,6.196107593E-1
9.045976833E0,-4.531736118E-1,-3.102857146E-1,7.887964082E-1,9.611676860E-1
9.055947083E0,-1.224561543E-1,-4.849724516E-1,1.328240644E0,1.419301587E0
9.065917083E0,-6.874768786E-1,-8.034775972E-2,6.001026660E-1,9.160804718E-1
9.075888083E0,1.197263086E-1,-1.659059733E-2,-2.531780058E-1,2.805507789E-1
9.085859083E0,6.064846461E-1,3.647306013E-1,-2.672879219E-1,7.565017321E-1
9.095830083E0,5.456608491E-1,-1.142735973E-1,3.325288153E-1,6.491376050E-1
9.105800083E0,1.052385893E-1,-1.960433999E-1,-3.941795182E-1,4.526429806E-1
9.115771083E0,-1.882822809E-1,-4.097991854E-1,5.822657347E-3,4.510205017E-1
9.125742083E0,-7.812183436E-1,-3.031643906E-1,4.838454008E-2,8.393758466E-1
9.135713083E0,-9.024553900E-1,-5.690846488E-1,-6.642548078E-1,1.256788573E0
9.145683083E0,-1.103324058E0,-1.126036325E0,-7.389939183E-1,1.741089830E0
9.155654083E0,-9.620475076E-1,-1.094903118E0,-9.575868130E-2,1.460656691E0
9.165625083E0,-5.054244405E-1,-4.547587189E-1,9.280835170E-1,1.150477454E0
9.175596083E0,-5.726186328E-1,4.644200733E-1,1.696908760E-1,7.565534327E-1
9.185566083E0,-3.300054859E-1,9.184628007E-1,1.243463033E-1,9.838391841E-1
9.195537083E0,-1.240661852E-1,-5.504045489E-1,3.173523670E-1,6.473407995E-1
9.205508083E0,3.732983071E-2,-1.038194774E0,-3.391841161E-1,1.092834740E0
9.215479083E0,-4.765014807E-1,-3.734458762E-1,-1.021135522E0,1.187111300E0
9.225449083E0,-4.659325653E-1,-8.822892934E-2,-6.748563945E-2,4.789904079E-1
9.235420083E0,-1.156547279E-1,8.010492486E-1,1.602838755E-1,8.250738364E-1
9.245391083E0,-9.099055102E-2,3.284740636E-1,4.441585940E-1,5.598672588E-1
9.255361083E0,2.380707192E-1,4.436820459E-1,8.964951038E-3,5.035988439E-1
9.265332083E0,3.997694929E-1,1.657556999E-1,-5.078721946E-1,6.672516509E-1
9.275303083E0,6.419561586E-1,-4.467158738E-1,-3.189884180E-1,8.446398003E-1
9.285274083E0,4.406851286E-1,-4.819748765E-1,6.386855185E-2,6.561877446E-1
9.295244083E0,1.294833564E-1,3.208218125E-1,-3.587775511E-1,4.984113824E-1
9.305215083E0,-1.558772128E-1,-3.204651323E-1,1.472270429E-2,3.566684237E-1
9.315186083E0,-2.997774640E-1,-2.920318767E-1,-2.780643404E-1,5.024628567E-1
9.325157083E0,-3.985234878E-1,-3.592073214E-1,-1.090204588E0,1.215070744E0
9.335127083E0,-9.063595028E-1,-2.916564855E-1,-3.977100670E-2,9.529600133E-1
9.345098083E0,-8.219585994E-1,-3.206484425E-1,1.540136722E0,1.774951404E0
9.355069083E0,-9.130538338E-1,7.785231426E-1,4.883185208E-2,1.200895556E0
9.365040083E0,-1.125450069E0,4.243961746E-1,-2.349703610E-1,1.225545201E0
9.375010083E0,-3.279440135E-2,-4.908620596E-1,1.606171668E-1,5.175122304E-1
9.384981083E0,-4.094303723E-1,-9.670040461E-1,7.025347745E-1,1.263441793E0
9.394952083E0,-2.884000980E-1,-3.392107210E-1,7.028440922E-1,8.320026128E-1
9.404923083E0,-2.741238286E-1,-1.449489677E-1,8.850930333E-1,9.378399407E-1
9.414893083E0,-4.629886384E-1,2.573786455E-1,8.496413648E-1,1.001245572E0
9.424864083E0,-2.804853434E-1,-5.225472441E-1,1.304468789E0,1.432957247E0
9.434835083E0,-4.764159651E-1,-7.201269999E-1,1.439555258E-1,8.753732125E-1
9.444805083E0,-2.350604995E-1,4.033628628E-1,-6.269454789E-1,7.816749139E-1
9.454776083E0,-1.126366784E-1,2.276376602E-1,-7.780550730E-1,8.184592979E-1
9.464747083E0,-1.959336549E-1,-6.334186390E-1,-4.820772028E-1,8.197606961E-1
9.474718083E0,4.325214654E-2,-1.041576219E0,5.273410839E-1,1.168263834E0
9.484688083E0,-2.342909511E-1,-2.954861194E-2,4.037087256E-1,4.677030097E-1
9.494659083E0,3.913348478E-1,4.717214915E-1,8.467002153E-2,6.187351139E-1
9.504630083E0,3.341209390E-1,-4.222242263E-1,2.032831299E-1,5.755294346E-1
9.514601083E0,5.326980836E-1,-1.523351705E0,9.306545377E-2,1.616486574E0
9.524571083E0,3.294656052E-1,-4.569683817E-1,2.546146667E-1,6.182202806E-1
9.534542083E0,8.246148433E-1,9.409889066E-1,-1.540209228E-1,1.260623737E0
9.544513083E0,8.534432244E-1,7.186070162E-1,1.938422155E-1,1.132402837E0
9.554484083E0,6.307827873E-1,-1.215021299E0,3.823500162E-1,1.421392000E0
9.564454083E0,2.541296036E-1,-2.021395023E0,-4.719515795E-1,2.091257513E0
9.574425083E0,3.712055156E-1,-9.901128271E-1,-9.430693460E-1,1.416861580E0
9.584396083E0,2.307054750E-1,-3.946990433E-1,3.835691607E-1,5.967726971E-1
9.594367083E0,1.349683736E-1,-4.208200175E-1,1.080235085E0,1.167139147E0
9.604337083E0,2.228078053E-1,-3.453812876E-1,3.006585664E-1,5.092417161E-1
9.614308083E0,4.689603997E-2,2.889857697E-1,-2.656980640E-1,3.953574014E-1
9.624279083E0,-1.374132041E-1,1.833952877E-1,3.293976313E-1,4.012717529E-1
9.634249083E0,1.147252947E-2,-6.198738563E-1,8.993251562E-2,6.264687335E-1
9.644220083E0,-9.854051242E-2,-8.715093666E-1,-4.882296431E-1,1.003796291E0
9.654191083E0,-2.544273000E-1,-5.524124828E-1,2.756845236E-2,6.088126327E-1
9.664162083E0,-1.487098603E-1,9.860092512E-1,-9.985874891E-3,9.972104009E-1
9.674132083E0,-6.985922528E-2,9.007977775E-1,-5.017086446E-2,9.048945037E-1
9.684103083E0,5.582939778E-3,5.091185287E-1,2.333682239E-1,5.600835414E-1
9.694074083E0,-8.358631320E-1,1.325067945E0,-7.701706874E-1,1.745747725E0
9.704045083E0,-8.892194865E-1,9.382129410E-1,-3.140504444E-1,1.330256554E0
9.714015083E0,-9.266785772E-1,1.212350584E0,-6.054727489E-1,1.641683396E0
9.723986083E0,-4.234739956E-1,7.070502868E-1,-5.539482540E-1,9.930302116E-1
9.733957083E0,7.947239500E-2,3.532183108E-1,-3.257536465E-1,4.870261542E-1
9.743928083E0,7.421591623E-1,6.640595108E-1,-3.474357069E-2,9.964850083E-1
9.753898083E0,7.169942810E-1,4.702684584E-1,-7.000251496E-1,1.106918440E0
9.763869083E0,7.310688946E-1,-5.184515619E-1,7.481746316E-2,8.993616644E-1
9.773840083E0,8.196751155E-2,-1.117961028E0,1.482811205E0,1.858839585E0
9.783811083E0,2.582536083E-2,-9.045858961E-1,2.589119609E0,2.742714521E0
9.793781083E0,-4.820316311E-1,8.445308983E-2,5.479069108E-1,7.346351479E-1
9.803752083E0,5.935048141E-2,-2.687912410E-1,1.087395000E-1,2.959653523E-1
9.813723083E0,-6.292823917E-1,-1.120104617E0,-2.923122507E-1,1.317602798E0
9.823693083E0,-6.909280515E-1,-1.728699194E0,-6.776203734E-1,1.981149123E0
9.833664083E0,-1.174290180E0,-1.447787260E0,-1.891211736E-1,1.873716146E0
9.843635083E0,-9.521897598E-1,-6.178527662E-1,3.685611123E-1,1.193417225E0
9.853606083E0,-9.713727933E-1,-7.785491627E-1,6.542081219E-1,1.406304437E0
9.863576083E0,-5.176855401E-1,-1.196061410E0,2.545070779E-1,1.327906272E0
9.873547083E0,-6.299298978E-1,-1.035482250E0,2.595041084E-1,1.239506978E0
9.883518083E0,-1.706435702E-1,4.283085465E-3,4.048834312E-1,4.393952272E-1
9.893489083E0,-1.689116980E-1,2.925768372E-1,1.965904069E-1,3.908710215E-1
9.903459083E0,6.322795283E-2,-4.475517333E-1,3.015303862E-1,5.433423431E-1
9.913430083E0,-2.722676483E-1,-4.371977761E-1,-9.670242190E-2,5.240447750E-1
9.923401083E0,-2.808649374E-1,-3.196082228E-1,8.813063765E-1,9.786395957E-1
9.933372083E0,-6.441600472E-1,-2.226242575E-1,5.786281818E-1,8.940437905E-1
9.943342083E0,-2.228569219E-1,-3.843857244E-1,3.383900642E-1,5.585028454E-1
9.953313083E0,-3.488961221E-1,-4.261971170E-1,-2.609559721E-1,6.094838028E-1
9.963284083E0,-3.155665908E-1,5.735095292E-1,-6.251375198E-2,6.575738913E-1
9.973255083E0,-3.081470589E-1,1.410568271E0,-7.096397263E-1,1.608802660E0
9.983225083E0,-1.130906508E-1,4.929825523E-1,-3.264383554E-1,6.019828005E-1
9.993196083E0,-5.713046173E-1,-1.789701149E0,-4.477359205E-1,1.931291439E0
1.000316708E1,2.805316826E-2,-2.491894738E0,-7.091087991E-1,2.590976969E0
1.001313808E1,-1.829110651E-1,-9.583571836E-1,-3.888310701E-1,1.050283081E0
1.002310808E1,-1.703670517E-1,2.087546620E-1,1.179148924E0,1.209543561E0
1.003307908E1,-2.920482672E-1,1.377834973E-1,1.633710884E0,1.665319109E0
1.004305008E1,-2.015666798E-2,-1.711640820E-1,4.775836176E-1,5.077297962E-1
1.005302108E1,4.196080724E-2,2.733988470E-1,-6.777782482E-1,7.320457585E-1
1.006299146E1,2.810381611E-1,-1.559604442E-1,-4.984599316E-1,5.931006758E-1
1.007296246E1,3.253748200E-1,-2.910916445E-1,-8.567737985E-1,9.615947487E-1
1.008293346E1,2.267069662E-2,-8.933080789E-1,-1.248702139E0,1.535503278E0
1.009290446E1,1.400161287E-1,-5.406452537E-1,3.664169383E-1,6.679544739E-1
1.010287446E1,1.294657051E-1,2.182543409E-1,1.275144417E0,1.300149842E0
1.011284546E1,-1.184105024E-2,8.261051524E-1,1.185332939E0,1.444854356E0
1.012281646E1,5.173652954E-2,5.150783032E-1,9.730380803E-1,1.102173050E0
1.013278746E1,-2.537187271E-2,7.782597256E-1,2.761078620E-1,8.261764242E-1
1.014275746E1,-1.906289330E-1,8.641915762E-1,-1.947029257E-1,9.061322750E-1
1.015272846E1,-4.224802978E-1,1.433776162E0,-1.574632956E0,2.171099406E0
1.016269946E1,-4.097131948E-1,5.112568554E-1,-1.786605633E0,1.902947230E0
1.017266946E1,-2.438864512E-1,5.525639257E-1,-1.001266683E0,1.169334197E0
1.018264046E1,-5.264622474E-1,4.636014631E-1,-5.360318005E-2,7.035354401E-1
1.019261146E1,-5.568267652E-1,7.212952736E-1,9.729913026E-1,1.333054760E0
1.020258246E1,-7.964758489E-1,1.264870275E0,6.297427869E-1,1.621988461E0
1.021255246E1,-3.890352841E-1,3.440867141E-1,3.569368476E-1,6.301968202E-1
1.022252346E1,1.163612360E-1,-4.221771562E-1,-6.168777430E-1,7.565128144E-1
1.023249446E1,9.412878821E-2,-1.188094287E0,-1.210999292E-1,1.197953862E0
1.024246546E1,3.335984172E-1,-8.321953198E-1,2.996826661E-1,9.453288606E-1
1.025243546E1,1.939718410E-1,-4.865734193E-1,8.554739624E-1,1.003102421E0
1.026240646E1,7.060914166E-1,-1.524513839E0,3.680915809E-1,1.719941553E0
1.027237746E1,4.208447585E-1,-1.485624300E0,5.042802501E-1,1.624342465E0
1.028234846E1,-4.025128238E-2,-1.544363967E0,8.408623552E-1,1.758900147E0
1.029231846E1,-6.078285190E-1,-5.261365575E-1,3.509668404E-1,8.771846491E-1
1.030228946E1,-2.088645714E-1,-6.912122262E-1,3.887819535E-1,8.200915547E-1
1.031226046E1,-5.976003135E-1,-1.304382542E0,1.336229694E0,1.960624836E0
1.032223146E1,-4.627722914E-1,-9.731050310E-1,2.828327447E-1,1.114040375E0
1.033220146E1,-5.603972943E-1,-1.562732702E-1,3.633266848E-1,6.859101562E-1
1.034217246E1,-5.801022649E-2,-2.399793783E-1,8.048236263E-1,8.418410526E-1
1.035214346E1,2.057961353E-1,-3.127976784E-1,-3.151386112E-1,4.893943003E-1
1.036211446E1,6.695805249E-1,-7.048681059E-1,-2.840086198E-1,1.012836622E0
1.037208446E1,7.861339516E-1,-1.682752651E-1,-5.149789006E-1,9.547389291E-1
1.038205546E1,8.592732639E-1,7.517502040E-2,-2.738169229E-1,9.049737748E-1
1.039202646E1,5.703938404E-1,-1.533838686E-1,-2.347323793E-1,6.355903037E-1
1.040199746E1,1.202023889E0,-6.510854164E-1,-3.630594671E-1,1.414420668E0
1.041196746E1,8.528848153E-1,-3.752514964E-1,-4.303860623E-1,1.026381194E0
1.042193846E1,7.396684677E-1,1.252385885E-1,6.666428107E-1,1.003596923E0
1.043190946E1,2.672085460E-1,3.886559460E-1,6.100107729E-1,7.710817041E-1
1.044188046E1,3.770965853E-1,1.573351246E-1,-2.368701214E-1,4.722961259E-1
1.045185046E1,1.084704623E0,-3.610322374E-1,1.515504742E-1,1.153211144E0
1.046182146E1,9.516054037E-1,-4.177250862E-2,2.430921435E-1,9.830521742E-1
1.047179246E1,4.403706581E-1,2.952320579E-1,3.327445775E-1,6.259450762E-1
1.048176346E1,4.512356253E-1,-1.883800390E-1,3.948496091E-1,6.284956981E-1
1.049173346E1,-4.340461269E-2,5.973603219E-2,2.259007448E-1,2.376625769E-1
1.050170446E1,-8.845167171E-2,5.628240350E-1,9.170188308E-2,5.770648386E-1
1.051167546E1,-8.232101228E-2,9.478275177E-1,-2.964947641E-2,9.518575754E-1
1.052164646E1,3.894055590E-2,1.042334895E0,-4.632567698E-1,1.141308562E0
1.053161646E1,3.953555760E-1,1.927955639E-1,-6.360297132E-1,7.733110351E-1
1.054158746E1,-6.234791033E-2,1.584332317E-1,-8.883785838E-1,9.045467699E-1
1.055155846E1,-8.649208702E-2,2.187066230E-1,4.313081682E-1,4.912638843E-1
1.056152946E1,1.630306416E-1,6.184260857E-1,5.679728007E-1,8.553495870E-1
1.057149946E1,4.905099841E-1,6.236075959E-1,1.311191332E-1,8.041633573E-1
1.058147046E1,6.005340078E-1,3.556329185E-1,-4.641402841E-2,6.994784695E-1
1.059144146E1,7.337411452E-1,1.322111008E-1,-5.838795662E-2,7.478402214E-1
1.060141246E1,4.349107839E-1,2.478415444E-1,-1.281896782E-1,5.167256668E-1
1.061138246E1,7.493702410E-1,-1.935153562E-1,-1.712450659E-1,7.926719522E-1
1.062135346E1,3.045706460E-1,-9.292845351E-1,-9.849459350E-2,9.828703935E-1
1.063132446E1,-1.675471406E-1,-1.218739836E0,7.055349809E-1,1.418160231E0
1.064129546E1,-6.450325249E-1,-1.407440010E0,9.473126704E-1,1.815035988E0
1.065126546E1,-6.224371295E-1,-5.217847672E-1,7.650637293E-1,1.115800087E0
1.066123646E1,-8.551204982E-1,2.843003958E-2,4.159779382E-1,9.513553378E-1
1.067120746E1,-5.285641021E-1,-4.547218814E-1,1.127126831E0,1.325355383E0
1.068117746E1,-4.792866922E-1,-3.815904629E-1,-5.425415057E-1,8.183387441E-1
1.069114846E1,-2.547227671E-1,-3.976790768E-1,-1.113957147E0,1.209930933E0
1.070111946E1,-2.523487975E-1,-5.981973508E-1,-3.450284082E-1,7.352309763E-1
1.071109046E1,1.571603660E-1,-6.979055339E-1,-3.872903287E-2,7.164296566E-1
1.072106046E1,1.807394458E-1,-1.014864091E0,4.983780706E-1,1.144987586E0
1.073103146E1,4.031300705E-1,-1.899348137E-1,6.631186938E-1,7.989464871E-1
1.074100246E1,-2.556181220E-1,4.089896384E-1,1.314370463E0,1.400065307E0
1.075097346E1,1.271312591E-1,6.005233732E-1,7.085410345E-1,9.374545729E-1
1.076094346E1,1.196667401E-1,1.680369911E-1,-3.276142305E-1,3.871532553E-1
1.077091446E1,-6.879271142E-2,-9.318675426E-1,-6.499022323E-1,1.138192631E0
1.078088546E1,-2.951705890E-1,-1.564506163E0,-9.437581480E-2,1.594901879E0
1.079085646E1,-5.129453851E-1,-1.144382257E0,-7.459234536E-2,1.256299222E0
1.080082646E1,-1.033443034E0,-1.232932783E0,-1.961126894E-1,1.620675149E0
1.081079746E1,1.936834636E-1,-8.653905478E-1,2.496018487E-1,9.212573838E-1
1.082076846E1,-7.851367821E-1,-5.047682002E-1,1.042053351E0,1.398966007E0
1.083073946E1,-7.358731131E-1,2.952966696E-1,1.098643874E0,1.354890299E0
1.084070946E1,-9.510391009E-1,4.781396878E-1,6.738284540E-1,1.259816541E0
1.085068046E1,-8.122836502E-1,-6.801989955E-1,8.065427077E-1,1.331535407E0
1.086065146E1,-5.736146329E-1,-9.683687863E-1,2.969198567E-1,1.164016003E0
1.087062246E1,-2.452862016E-1,-5.007453158E-1,-3.666174978E-1,6.673226968E-1
1.088059246E1,3.624279678E-2,1.837443665E-1,-4.741635811E-1,5.098103904E-1
1.089056346E1,4.804339525E-1,4.675842941E-2,-9.168872684E-1,1.036187916E0
1.090053446E1,7.497356920E-1,-2.556771058E-1,-1.154354975E0,1.400003500E0
1.091050546E1,1.067312446E0,7.410234869E-2,-6.066842920E-1,1.229923919E0
1.092047546E1,1.204229532E0,2.464890835E-1,1.012570521E0,1.592552886E0
1.093044646E1,9.733785345E-1,5.417109087E-1,5.751853412E-1,1.253696397E0
1.094041746E1,7.348479500E-1,7.355592638E-1,-4.167117637E-1,1.120132865E0
1.095038846E1,1.076703513E0,8.327385262E-1,2.795787692E-2,1.361442452E0
1.096035846E1,8.079637273E-1,9.807067037E-1,-5.308102369E-2,1.271773808E0
1.097032946E1,8.612116159E-1,1.201973238E0,-1.144691867E0,1.869958444E0
1.098030046E1,2.334738392E-2,4.407639930E-1,-6.300257921E-1,7.692532071E-1
1.099027146E1,-1.738868745E-1,-2.232797304E-1,-3.174254572E-1,4.252639228E-1
1.100024146E1,-7.859024750E-1,6.241902709E-3,-6.908181238E-1,1.046380113E0
1.101021246E1,-3.508810690E-1,3.812764674E-2,2.423021847E-1,4.281139927E-1
1.102018346E1,-3.735787542E-1,-7.799141952E-1,1.832450143E0,2.026252887E0
1.103015446E1,-5.569385201E-2,-2.861489931E-1,1.485260603E0,1.513599059E0
1.104012446E1,-1.743295087E-1,4.542467952E-1,8.651768321E-1,9.926035862E-1
1.105009546E1,-1.228682734E-3,2.386450437E-1,1.363091218E-1,2.748329369E-1
1.106006663E1,5.852778182E-1,-8.627829820E-1,-4.489901483E-1,1.135137327E0
1.107003763E1,6.162511408E-1,-1.647487801E0,-1.306243418E0,2.190948058E0
1.108000762E1,-6.229323886E-2,-1.818390512E0,-5.043176723E-1,1.888057419E0
1.108997863E1,-3.095193639E-1,-1.894679720E0,4.942247933E-1,1.982390381E0
1.109994963E1,-7.768327126E-1,-9.331185544E-1,6.875232178E-1,1.395301930E0
1.110992062E1,-3.904587156E-1,-1.307791176E-1,1.260288981E0,1.325854254E0
1.111989063E1,-5.664536210E-1,-2.793913659E-1,1.415470576E-1,6.472749104E-1
1.112986163E1,-6.774330432E-1,-4.167939171E-1,-9.748419464E-2,8.013338041E-1
1.113983262E1,-8.951392807E-1,-4.914309937E-1,-5.768956518E-1,1.172854359E0
1.114980363E1,-6.710340697E-1,-1.439732721E0,-2.700671035E-1,1.611227256E0
1.115977363E1,-4.348575743E-1,-1.085055237E0,2.635983288E-1,1.198302990E0
1.116974462E1,-1.468374539E-1,-3.821725532E-1,-8.029981256E-2,4.172111674E-1
1.117971563E1,-4.719973705E-1,-2.709707907E-1,7.827784538E-2,5.498491686E-1
1.118968663E1,1.644413372E-1,-7.070032167E-1,6.344872177E-1,9.640894830E-1
1.119965662E1,-8.226058862E-1,-8.616454062E-1,4.557664865E-1,1.275474947E0
1.120962763E1,-7.435315769E-1,9.464206776E-1,1.676174533E-1,1.215173615E0
1.121959863E1,-7.077212548E-1,1.446534494E0,3.811700481E-1,1.654878250E0
1.122956962E1,-4.438422231E-2,2.642318746E-1,3.898765522E-1,4.730667699E-1
1.123953963E1,7.219049189E-2,-1.125859154E0,-7.101472646E-1,1.333071431E0
1.124951063E1,3.090694937E-1,-9.826397932E-1,-1.317615668E0,1.672487956E0
1.125948162E1,9.027987678E-2,-5.410995823E-1,-3.210483921E-1,6.356188199E-1
1.126945263E1,-6.541470185E-2,-1.009442845E-1,5.846975917E-1,5.969422966E-1
1.127942263E1,-4.480735973E-2,1.098685974E-1,1.152279214E0,1.158372218E0
1.128939362E1,-3.535738215E-1,8.399610069E-1,2.686941773E-1,9.501292024E-1
1.129936463E1,-5.805143474E-1,5.156872907E-1,5.165243196E-1,9.325919055E-1
1.130933563E1,-8.999429145E-1,2.581127635E-1,1.948812658E-1,9.562939694E-1
1.131930562E1,-7.116646171E-1,-6.606412286E-1,-1.408927542E-1,9.812054465E-1
1.132927663E1,-5.232536609E-1,-3.755017573E-1,-1.313271187E0,1.462695175E0
1.133924763E1,-7.515884554E-1,6.889759585E-1,-1.520890612E0,1.831032859E0
1.134921862E1,-9.266239057E-1,6.962566191E-1,2.025417030E-1,1.176617306E0
1.135918863E1,-7.859890138E-1,4.373001024E-1,6.003470796E-1,1.081400354E0
1.136915963E1,-5.950231167E-1,8.225553077E-1,1.622526330E-1,1.028093216E0
1.137913062E1,-4.718174955E-2,4.828668693E-1,2.655910599E-1,5.531050009E-1
1.138910163E1,4.287027951E-1,8.017263561E-1,3.559743959E-1,9.763549596E-1
1.139907163E1,7.141002747E-1,4.073468632E-1,6.204585779E-1,1.029970638E0
1.140904262E1,6.792428295E-1,5.812389636E-1,3.730699003E-2,8.947633015E-1
1.141901363E1,6.757999159E-1,-2.618780780E-1,-1.189107317E-1,7.344558640E-1
1.142898463E1,8.743611268E-1,-5.425868216E-1,-1.101060528E0,1.507064075E0
1.143895462E1,7.923609439E-1,-1.359546052E0,-7.359106815E-1,1.737171800E0
1.144892563E1,3.908577881E-1,-3.575987524E-1,-6.411618143E-1,8.317061683E-1
1.145889663E1,6.237793578E-1,-1.115064025E-3,9.912480640E-1,1.171185150E0
1.146886762E1,1.799376829E-1,6.151124686E-2,1.612665585E0,1.623838506E0
1.147883763E1,3.931015475E-1,-3.296683574E-1,1.037815289E0,1.157700578E0
1.148880863E1,2.206076259E-1,-1.669049701E-1,-5.841450298E-1,6.463361428E-1
1.149877962E1,-4.860549174E-2,-1.604288864E-1,-7.082323015E-1,7.278000510E-1
1.150875063E1,-3.146218635E-2,-5.159752661E-1,-6.481913370E-1,8.290792204E-1
1.151872063E1,2.937017684E-1,-7.437494588E-1,-3.217886496E-1,8.619581899E-1
1.152869162E1,9.647141303E-1,-6.919048288E-1,9.065236634E-1,1.493717108E0
1.153866263E1,9.403397195E-1,1.627864838E-2,1.098807011E0,1.446333513E0
1.154863363E1,7.908271462E-1,1.532034820E-1,1.908584983E0,2.071611817E0
1.155860362E1,5.071956353E-1,2.937606061E-1,1.186825733E0,1.323668398E0
1.156857463E1,9.354821451E-1,2.125480431E-1,1.567492336E-1,9.720462112E-1
1.157854563E1,7.879286814E-1,-4.473997056E-1,-4.565821731E-1,1.014625736E0
1.158851662E1,7.187728579E-1,-1.061305601E0,-4.510524613E-1,1.358842273E0
1.159848663E1,6.021719591E-1,-1.267183726E0,-1.647112702E0,2.163641818E0
1.160845763E1,7.163162233E-1,-1.643378670E0,-1.055914761E0,2.080566838E0
1.161842862E1,4.336285261E-1,-1.926990556E0,4.016914362E-1,2.015609663E0
1.162839963E1,1.768576621E-1,-1.211924322E0,1.069696648E0,1.626127336E0
1.163836963E1,-4.465533212E-1,-7.097993553E-1,1.079588968E0,1.367017678E0
1.164834062E1,-4.562213999E-1,5.747082084E-2,8.808783603E-1,9.936737626E-1
1.165831163E1,-7.188949185E-1,4.794632050E-1,1.559008611E0,1.782470958E0
1.166828263E1,-3.815503730E-1,3.711447045E-1,1.599059114E0,1.685324636E0
1.167825262E1,-5.263891572E-1,-7.039892694E-1,5.801659995E-1,1.053223159E0
1.168822363E1,-3.586675503E-1,-9.596573120E-1,-1.001432160E0,1.432637755E0
1.169819463E1,-4.510914914E-1,-9.414522985E-1,-8.702785277E-1,1.359117611E0
1.170816562E1,-4.497537216E-1,-4.023059785E-2,-5.135814160E-1,6.838587441E-1
1.171813663E1,-4.506957446E-1,6.466830477E-1,-5.803688979E-1,9.788532454E-1
1.172810663E1,-1.095896121E-2,5.621317247E-1,1.367172575E-1,5.786223148E-1
1.173807762E1,5.077128580E-1,5.156153700E-1,7.764061582E-1,1.061337872E0
1.174804863E1,5.394903555E-1,9.621903259E-1,-2.402919120E-1,1.128981962E0
1.175801963E1,4.779689491E-1,1.019040172E0,-6.028186977E-1,1.276827150E0
1.176798962E1,6.039339079E-1,-8.749481142E-3,-1.609019262E-1,6.250617156E-1
1.177796063E1,4.268157889E-1,1.264603642E-1,7.635586560E-2,4.516571261E-1
1.178793163E1,3.159324073E-1,7.435687798E-1,-1.893153012E-1,8.297879847E-1
1.179790262E1,-3.331278625E-1,1.525674511E0,-1.030294601E0,1.870872484E0
1.180787263E1,-3.681823589E-1,7.327987933E-1,-3.423100376E-1,8.886666882E-1
1.181784363E1,-5.559034167E-1,6.710007405E-1,5.728189731E-1,1.042780983E0
1.182781462E1,-4.228298517E-1,5.491123143E-1,-7.004087269E-2,6.965738590E-1
1.183778563E1,-6.954704610E-1,4.191149694E-1,-6.722806960E-1,1.054181130E0
1.184775563E1,-5.024794538E-1,-2.144986743E-1,-6.589583999E-1,8.559915044E-1
1.185772662E1,-4.069024382E-1,-1.524617627E0,-6.463634974E-1,1.705231443E0
1.186769763E1,-4.554838833E-1,-1.606440055E0,-2.138221514E-1,1.683399872E0
1.187766863E1,3.947639840E-2,-1.871044105E0,2.196326466E0,2.885518042E0
1.188763862E1,6.338880608E-2,-8.630045915E-1,1.717910205E0,1.923541145E0
1.189760963E1,6.347737312E-3,-6.066319594E-1,1.689112667E0,1.794754644E0
1.190758063E1,-3.974497198E-1,-1.014692768E0,1.325862581E0,1.716239866E0
1.191755162E1,-5.705447716E-1,-2.402129745E-1,5.858284432E-1,8.523019268E-1
1.192752163E1,-4.457489636E-1,-1.984916291E-1,-1.561884856E-1,5.123337861E-1
1.193749263E1,-5.433717007E-1,-5.145564392E-1,-2.110406309E-1,7.775341035E-1
1.194746362E1,-2.901340533E-1,-8.815417269E-1,-3.798444843E-1,1.002783834E0
1.195743463E1,-3.198845769E-1,1.316234556E-1,-5.279538721E-1,6.311783960E-1
1.196740463E1,-4.339855717E-1,-4.280892760E-2,6.866964215E-1,8.134666902E-1
1.197737562E1,-6.889793207E-1,1.201354310E-1,1.443141940E0,1.603678173E0
1.198734663E1,-6.505524427E-1,-3.783426270E-1,9.341821629E-1,1.199607410E0
1.199731763E1,-6.095696005E-1,-3.239497805E-1,-5.363984209E-1,8.742092565E-1
1.200728762E1,-3.157027213E-1,4.674881074E-1,-1.313856493E0,1.429836432E0
1.201725863E1,-4.020791066E-1,6.479972094E-2,-4.012692672E-1,5.717373843E-1
1.202722963E1,-5.916023494E-1,-1.041970029E0,-1.345619153E0,1.801772956E0
1.203720062E1,2.377124128E-1,-1.424028561E0,-1.998836172E0,2.465706912E0
1.204717063E1,1.979797602E-1,-1.485651490E0,-6.012861425E-1,1.614899799E0
1.205714183E1,-1.165165618E-1,-1.875430101E-1,9.860060352E-1,1.010423867E0
1.206711283E1,4.769156280E-2,6.562596175E-1,2.447403567E0,2.534311620E0
1.207708383E1,7.726377374E-2,7.121250853E-1,2.351409827E0,2.458092758E0
1.208705383E1,9.807096273E-2,7.211181030E-1,7.627301055E-1,1.054223148E0
1.209702483E1,-4.203825361E-1,-1.323777464E-1,-6.745932698E-2,4.458655685E-1
1.210699583E1,-9.486492708E-1,-4.172763124E-1,-8.374586910E-1,1.332438373E0
1.211696683E1,-1.193124792E0,-5.831410629E-1,-1.575409466E0,2.060464815E0
1.212693683E1,-1.121173342E0,-7.812955999E-1,-1.590575389E0,2.096993692E0
1.213690783E1,-1.351511831E0,-3.544289768E-1,-6.241125029E-1,1.530268129E0
1.214687883E1,-1.449121302E0,-2.893880582E-1,4.899539870E-1,1.556840681E0
1.215684983E1,-9.557031325E-1,6.426952466E-1,2.279209578E-1,1.174041575E0
1.216681983E1,-1.063068829E0,7.933782864E-1,7.359633064E-1,1.516972785E0
1.217679083E1,-3.751268777E-1,4.248145428E-1,8.646190077E-1,1.033805397E0
1.218676183E1,-2.606356177E-1,6.403101674E-1,-2.237232417E-1,7.266224085E-1
1.219673283E1,-9.537935232E-2,4.523844570E-1,-5.792321992E-1,7.411200027E-1
1.220670383E1,-1.835167636E-1,-9.078708619E-2,-4.811264455E-1,5.228798659E-1
1.221667383E1,-1.080722414E-1,-2.049615732E-1,-7.299886215E-1,7.658800450E-1
1.222664483E1,7.109992770E-1,-5.756183276E-1,-5.930713892E-1,1.090224795E0
1.223661583E1,1.109022828E0,-6.124046230E-1,-1.444864529E-1,1.275087209E0
1.224658683E1,7.413971239E-1,-2.658436596E-2,3.172956491E-1,8.068785242E-1
1.225655683E1,8.090219271E-1,-1.460944372E-1,1.138790272E0,1.404529582E0
1.226652783E1,2.068938770E-1,-1.859239161E-1,9.045777100E-1,9.463792117E-1
1.227649883E1,3.153054761E-1,-8.542568645E-1,8.829681551E-1,1.268386809E0
1.228646983E1,-2.648309036E-1,-7.248553509E-1,6.310309285E-1,9.968704629E-1
1.229643983E1,-2.769402131E-2,-5.612756923E-1,4.133981466E-1,6.976355705E-1
1.230641083E1,-4.786177342E-1,-1.668953222E-1,-1.343479657E-1,5.243837907E-1
1.231638183E1,-6.560076025E-1,-3.680763781E-2,-1.235674542E-1,6.685579201E-1
1.232635283E1,-7.465174576E-1,-3.408403400E-1,1.214145094E-1,8.295793723E-1
1.233632283E1,-3.126636310E-1,-1.624701494E-1,1.784745634E-2,3.528082018E-1
1.234629383E1,-2.127063200E-1,3.623379207E-1,-3.913711005E-1,5.741986465E-1
1.235626483E1,4.886423104E-1,2.098442906E-1,-3.403787023E-1,6.313981270E-1
1.236623583E1,7.984579088E-1,-2.746121442E-1,3.135259491E-1,9.006916135E-1
1.237620583E1,1.023094924E0,-4.808598125E-1,1.531151891E-1,1.140786415E0
1.238617683E1,7.617433879E-1,-4.477084386E-1,-8.176454008E-2,8.873450710E-1
1.239614783E1,1.262938939E0,-1.027665108E0,-3.209478199E-2,1.628539350E0
1.240611883E1,9.301331853E-1,-1.134275052E0,-1.442332685E-1,1.473950770E0
1.241608883E1,6.482753907E-1,-1.432273135E0,5.898437262E-1,1.679161379E0
1.242605983E1,5.384983023E-1,-8.629578137E-1,3.320586991E-1,1.070018500E0
1.243603083E1,3.899490942E-1,-3.385654807E-1,-4.069322956E-1,6.574806263E-1
1.244600183E1,4.375471473E-2,-5.748424020E-1,-5.370895618E-1,7.879235113E-1
1.245597183E1,-4.634974923E-1,-8.493033957E-1,-1.118274146E-1,9.739874507E-1
1.246594283E1,-8.365268641E-1,5.907529682E-2,7.300073326E-2,8.417815584E-1
1.247591383E1,-1.419784360E0,2.076477841E-1,1.753188211E-1,1.445559379E0
1.248588483E1,-5.273666655E-1,1.174834263E-1,2.517588866E-1,5.960708786E-1
1.249585483E1,-2.715749177E-1,-9.305729690E-1,5.596627378E-1,1.119348635E0
1.250582583E1,3.464678099E-1,-3.411192521E-1,7.754875606E-1,9.153050006E-1
1.251579683E1,2.972107556E-1,4.142272818E-1,6.949468428E-1,8.618988273E-1
1.252576783E1,7.367630593E-1,1.199094361E-1,5.727944148E-1,9.408993145E-1
1.253573783E1,9.906870237E-1,-7.182719707E-2,2.011500657E-1,1.013450183E0
1.254570883E1,1.097194642E0,-3.057333648E-1,-5.142626166E-1,1.249709971E0
1.255567983E1,1.361889031E0,7.018705308E-2,-5.439454222E-1,1.468177298E0
1.256565083E1,1.388360984E0,5.069269922E-1,-3.446471697E-1,1.517663622E0
1.257562083E1,1.242183370E0,-4.672217667E-2,-9.177386230E-1,1.545136456E0
1.258559183E1,1.408554928E0,-8.375259340E-3,-5.415159041E-1,1.509084691E0
1.259556283E1,1.264171825E0,1.070638927E0,-6.086366773E-3,1.656633683E0
1.260553383E1,7.092031585E-1,1.470122747E0,4.089010531E-1,1.682685378E0
1.261550483E1,4.896371775E-1,1.421650791E0,1.235262313E0,1.945946690E0
1.262547483E1,-1.897291013E-1,1.281633365E0,7.260136843E-2,1.297633297E0
1.263544583E1,-3.507995735E-1,7.507956460E-1,-5.572320503E-1,9.986300620E-1
1.264541683E1,-2.468601624E-1,8.856102195E-1,-5.648650056E-1,1.079035623E0
1.265538783E1,-4.010275945E-1,8.678253284E-1,-6.004885823E-1,1.128951048E0
1.266535783E1,7.125150215E-2,4.408484852E-1,-5.049994576E-1,6.741280410E-1
1.267532883E1,2.175971138E-1,-2.727565303E-1,-3.790931171E-1,5.152244368E-1
1.268529983E1,6.362024253E-1,-5.144555748E-1,-1.439724827E-1,8.307503476E-1
1.269527083E1,8.012830641E-1,-5.652058983E-1,1.551909506E-2,9.806901134E-1
1.270524083E1,1.175307303E0,-3.274619105E-1,1.452191091E-1,1.228685130E0
1.271521183E1,1.284862782E0,-1.012936264E0,7.478957194E-1,1.798960881E0
1.272518283E1,1.513410854E0,-1.409999337E0,3.313646346E-1,2.094830080E0
1.273515383E1,7.200036237E-1,-1.183946857E0,5.592487550E-1,1.494287304E0
1.274512383E1,2.422793440E-1,-1.472954846E0,8.776425111E-1,1.731632650E0
1.275509483E1,-3.406495745E-1,-1.004738175E0,1.120227701E0,1.542871037E0
1.276506583E1,-6.189494115E-1,-5.948702851E-1,1.046863271E0,1.353843321E0
1.277503683E1,-1.154583382E0,-1.959138840E-1,1.413546258E0,1.835635601E0
1.278500683E1,-1.123538395E0,-2.712333307E-1,4.829501921E-1,1.252655951E0
1.279497783E1,-8.707579994E-1,-2.492396137E-1,1.733459705E-1,9.221652260E-1
1.280494883E1,-5.732525076E-1,-2.845527032E-1,-7.472039938E-2,6.443382779E-1
1.281491983E1,-4.705029683E-1,-1.172135773E-1,-7.677803457E-2,4.909245691E-1
1.282488983E1,-2.951575790E-1,-3.254969537E-1,-1.272383362E-1,4.574449229E-1
1.283486083E1,-4.581695460E-3,-5.718065277E-1,-6.850404900E-1,8.923363547E-1
1.284483183E1,3.740267240E-1,-9.136408943E-1,-8.013135427E-1,1.271510546E0
1.285480283E1,2.584607093E-1,-1.307715455E0,4.878507435E-2,1.333904657E0
1.286477283E1,8.345431231E-1,-7.600088114E-1,-9.742940623E-1,1.491081667E0
1.287474383E1,1.186508229E-1,-7.310528147E-1,-1.119301502E0,1.342144585E0
1.288471483E1,5.217817340E-1,-1.895100135E-1,1.115420705E-1,5.662259766E-1
1.289468583E1,4.238460246E-1,2.880736041E-1,4.505273813E-1,6.823538490E-1
1.290465683E1,3.846750519E-1,6.482006925E-1,1.132050186E-1,7.622036536E-1
1.291462683E1,3.848327440E-1,2.729328239E-1,1.392023242E-1,4.919002483E-1
1.292459783E1,-1.656994204E-1,-3.628168076E-2,-6.919402045E-1,7.124281753E-1
1.293456883E1,-2.993775876E-1,-4.880565655E-1,-4.606454033E-1,7.348607614E-1
1.294453983E1,7.037014402E-2,4.568239555E-1,-4.247095853E-1,6.277087823E-1
1.295450983E1,-5.480657358E-1,4.937570161E-1,1.258326656E-1,7.483354204E-1
1.296448083E1,-5.934907442E-1,5.324904343E-1,1.370016076E0,1.585156577E0
1.297445183E1,-9.553015018E-1,5.136150375E-1,1.432953751E0,1.797152698E0
1.298442283E1,-1.215247367E0,1.034310176E0,3.811139148E-1,1.640692391E0
1.299439283E1,-8.216973750E-1,1.203121631E0,4.343311787E-1,1.520306485E0
1.300436383E1,-6.995206811E-1,6.477662444E-1,7.767949980E-1,1.229772645E0
1.301433483E1,-1.321552964E-1,8.439631337E-1,-1.282224226E-1,8.638169847E-1
1.302430583E1,-1.326035220E-2,1.104151951E0,-1.527412596E0,1.884759032E0
1.303427583E1,1.287858018E-1,6.084156525E-1,-1.028904718E0,1.202248022E0
1.304424683E1,3.410250389E-1,-1.700487256E-1,-5.042615390E-1,6.320556510E-1
1.305421783E1,3.381042085E-1,-2.949201089E-1,-7.425168657E-1,8.675388304E-1
1.306418908E1,6.834093361E-1,-4.649469075E-1,3.374439847E-1,8.928003082E-1
1.307415908E1,6.272609362E-1,-1.160692772E-1,1.172249209E0,1.334577299E0
1.308413008E1,2.851681226E-1,-1.581192362E-1,1.319046482E0,1.358751696E0
1.309410108E1,9.783020362E-2,-8.108532751E-1,7.840549010E-1,1.132164242E0
1.310407208E1,-1.393088897E-1,-7.547188354E-1,-3.302682817E-2,7.681785330E-1
1.311404208E1,-8.017139308E-1,-2.612553495E-1,-3.948472703E-1,9.310767698E-1
1.312401308E1,-1.332666547E0,-1.498427948E-1,-5.439910305E-1,1.447197026E0
1.313398408E1,-1.389591092E0,-8.243527418E-1,-8.165303367E-1,1.810315618E0
1.314395508E1,-1.045347234E0,-5.338814870E-1,-6.658955365E-1,1.349517376E0
1.315392608E1,-1.122492912E0,-6.511722475E-1,5.085352689E-1,1.393780382E0
1.316389608E1,-6.973996036E-1,-1.672984877E-1,1.198600271E0,1.396781157E0
1.317386708E1,-5.119573884E-1,-3.118521836E-1,1.359288189E0,1.485603088E0
1.318383808E1,-1.050985850E-2,-8.536715582E-1,9.542100459E-1,1.280383692E0
1.319380908E1,3.373075254E-1,-9.140750501E-1,9.203798103E-1,1.340301667E0
1.320377908E1,5.899392916E-1,-3.441019168E-1,6.002008992E-1,9.092170348E-1
1.321375008E1,7.277067456E-1,-7.065056187E-1,4.298463643E-1,1.101578501E0
1.322372108E1,5.055702920E-1,-1.225421742E0,-3.603405118E-1,1.373719422E0
1.323369208E1,2.777584579E-1,-1.572166600E0,-1.299850658E0,2.058754311E0
1.324366208E1,3.594451934E-1,-1.164048197E0,-2.332752532E0,2.631718721E0
1.325363308E1,-1.675951243E-1,-1.437323083E0,-1.091865782E0,1.812775953E0
1.326360408E1,-2.517550128E-1,-1.652278425E0,7.122879303E-1,1.816799019E0
1.327357508E1,-5.121516256E-1,-1.024004166E0,1.188340747E0,1.650162886E0
1.328354508E1,-5.896151731E-1,-3.001551211E-1,1.446572501E0,1.590695178E0
1.329351608E1,-1.993749972E-1,1.678288302E-1,2.179268383E0,2.194795570E0
1.330348708E1,-1.822971075E-1,1.969280836E-1,1.902214442E0,1.921049892E0
1.331345808E1,2.319228653E-2,1.454018345E-1,6.313303059E-1,6.482727287E-1
1.332342808E1,1.158187606E-1,2.030629823E-1,-9.371215582E-1,9.658392076E-1
1.333339908E1,-6.421247777E-2,2.889255434E-1,-1.169844249E0,1.206704927E0
1.334337008E1,1.915322730E-1,1.179196286E-1,-1.122511039E0,1.144823429E0
1.335334108E1,4.370735594E-1,2.449959970E-1,-1.018370374E0,1.134960155E0
1.336331208E1,9.259924065E-1,9.391867948E-1,-6.911087304E-1,1.489014792E0
1.337328208E1,1.169074464E0,2.925116408E-1,3.245871270E-1,1.248060481E0
1.338325308E1,1.172826037E0,-3.743881550E-1,6.047512025E-1,1.371645516E0
1.339322408E1,1.215588479E0,8.292377982E-1,2.581890696E-1,1.493971979E0
1.340319508E1,1.394574236E0,1.332407077E0,5.014776796E-1,1.992893821E0
1.341316508E1,1.337549411E0,1.737024752E0,-1.087938792E-1,2.195023810E0
1.342313608E1,1.151101000E0,9.373817593E-1,-6.302590960E-1,1.612744432E0
1.343310708E1,6.985245348E-1,6.125309229E-2,-8.450144631E-1,1.098060977E0
1.344307808E1,3.536074795E-1,1.156802620E0,-8.776337403E-1,1.494480355E0
1.345304808E1,-6.985917047E-2,1.197290787E0,-1.291117841E-1,1.206256766E0
1.346301908E1,-1.023460083E-1,1.047495940E0,2.805377126E-1,1.089230856E0
1.347299008E1,-4.469814105E-1,2.583983999E-1,2.982079983E-1,5.962299260E-1
1.348296108E1,8.605233986E-2,3.805122364E-1,-8.239428520E-2,3.987272068E-1
1.349293108E1,5.375922762E-1,-4.010909271E-1,-3.103620207E-1,7.390561353E-1
1.350290208E1,8.078063641E-1,-5.468342391E-1,2.770960414E-1,1.014081369E0
1.351287308E1,6.178998363E-1,-1.549309250E0,5.770178586E-1,1.764967129E0
1.352284408E1,4.825817444E-1,-9.455780938E-1,-4.300691432E-1,1.145409333E0
1.353281408E1,5.631802766E-1,-1.398984352E0,-2.573166651E-1,1.529882710E0
1.354278508E1,3.182372700E-1,-2.183041884E0,2.315645333E0,3.198305823E0
1.355275608E1,1.140378083E-1,-1.835069695E0,4.084145063E0,4.478920216E0
1.356272708E1,-2.611091691E-1,2.884840786E-2,1.801720685E0,1.820771171E0
1.357269708E1,-2.962207489E-1,3.395697400E-1,2.005881482E-1,4.932443062E-1
1.358266808E1,-1.718909640E-1,1.309428397E-1,-9.900505543E-3,2.163112359E-1
1.359263908E1,2.036539896E-1,-9.855213010E-1,-1.671501439E0,1.951062337E0
1.360261008E1,-4.293323940E-1,-1.193493898E0,-2.801127954E0,3.074910048E0
1.361258108E1,-1.106978057E-1,-7.487815726E-1,-2.553246941E0,2.663080507E0
1.362255108E1,-2.672195826E-1,-1.257474424E0,-7.319246346E-1,1.479311293E0
1.363252208E1,8.789633241E-2,-1.909973697E0,5.570081019E-1,1.991477671E0
1.364249308E1,3.957593628E-1,-9.561712021E-1,1.860320896E0,2.128774924E0
1.365246408E1,4.435671116E-1,6.050988194E-1,1.987143495E0,2.124061118E0
1.366243408E1,7.790352125E-1,8.568609220E-1,2.118111185E0,2.414021851E0
1.367240508E1,1.552523464E-1,-3.817310885E-1,1.911197519E-1,4.542561772E-1
1.368237608E1,4.980050913E-1,-4.211185178E-1,-9.284863901E-1,1.134652746E0
1.369234708E1,4.218227053E-2,2.235010475E-1,-8.099890566E-1,8.413170235E-1
1.370231708E1,1.462749152E-1,7.121762484E-1,-1.076697519E0,1.299180091E0
1.371228808E1,3.308719702E-1,3.275183362E-1,-1.607891334E0,1.673935202E0
1.372225908E1,5.532100796E-1,-4.964256853E-1,-1.530579448E0,1.701515002E0
1.373223008E1,-9.066104215E-2,-1.001043320E-3,4.217830539E-2,9.999718044E-2
1.374220008E1,-5.003306386E-1,2.013864686E0,4.933529735E-1,2.132927302E0
1.375217108E1,-6.756315161E-1,1.755715670E0,5.956921113E-1,1.973287751E0
1.376214208E1,-9.681791903E-1,-9.415019998E-1,8.236984384E-1,1.581858425E0
1.377211308E1,-1.170706348E0,-1.651095241E0,1.296737015E-2,2.024064475E0
1.378208408E1,-1.182186552E0,-1.790101683E-1,-3.986666715E-1,1.260374865E0
1.379205408E1,-1.430260816E0,1.735543068E0,3.527619356E-1,2.276443877E0
1.380202508E1,-1.035166355E0,1.748558970E0,6.893107116E-1,2.145734632E0
1.381199608E1,-9.101029634E-1,1.548738854E0,1.635466218E-2,1.796426151E0
1.382196708E1,-6.786328188E-1,1.612946252E0,-1.482908853E0,2.293721165E0
1.383193708E1,-2.773955651E-3,2.361051301E0,-1.797235871E0,2.967259294E0
1.384190808E1,7.798243674E-1,7.471607244E-1,-8.527497447E-1,1.376065885E0
1.385187908E1,8.173917047E-1,-1.246287531E0,4.350386918E-2,1.491058146E0
1.386185008E1,4.439116222E-1,-1.139182035E0,-4.205551386E-2,1.223340469E0
1.387182008E1,1.872080560E-1,-4.768073997E-1,3.694744474E-1,6.315880935E-1
1.388179108E1,1.402297530E-2,-1.445098710E0,1.486672706E0,2.073331296E0
1.389176208E1,-5.513471932E-1,-2.303747126E0,1.472800772E0,2.789332655E0
1.390173308E1,-3.266749484E-1,-1.833692383E0,1.285679346E0,2.263209151E0
1.391170308E1,-4.510534114E-1,-1.111406299E0,6.953742743E-1,1.386440956E0
1.392167408E1,-5.788466484E-1,-3.540714195E-1,3.512779123E-1,7.640851943E-1
1.393164508E1,-4.257368680E-1,-9.265974471E-1,-1.213168609E-1,1.026914062E0
1.394161608E1,-4.577528588E-1,-1.587782759E0,-1.668172619E0,2.348061255E0
1.395158608E1,1.910367580E-2,-8.422841057E-1,-1.243937827E0,1.502394350E0
1.396155708E1,-3.300082268E-1,-4.880489641E-1,3.635120416E-1,6.922703413E-1
1.397152808E1,-2.705028673E-1,-3.340581545E-1,1.359325027E0,1.425668678E0
1.398149908E1,-7.116744842E-2,-7.789543748E-2,1.137147789E0,1.142032223E0
1.399147008E1,4.703299273E-1,8.601458877E-2,1.708549982E0,1.774190460E0
1.400144008E1,2.214795006E-1,5.483472061E-1,1.764179807E0,1.860663381E0
1.401141108E1,2.618125344E-1,2.945572892E-1,1.621858578E0,1.669052140E0
1.402138208E1,-3.643533828E-1,-7.573869199E-2,2.673276830E-1,4.582071880E-1
1.403135308E1,6.059628552E-2,-1.329028264E-1,-1.146933689E0,1.156197197E0
1.404132308E1,-2.388521813E-2,-2.090435144E-1,-1.858820500E0,1.870690607E0
1.405129408E1,2.513490881E-1,-6.564715791E-1,-1.368005219E0,1.538040824E0
1.406126437E1,-7.194158323E-3,-1.510272361E0,-1.032430589E0,1.829449994E0
1.407123538E1,-3.660840856E-1,-1.359750412E0,-2.859446329E-1,1.436907469E0
1.408120538E1,-5.143482053E-1,-2.546596903E-1,9.027440232E-1,1.069744084E0
1.409117637E1,-7.885283133E-1,4.657874447E-1,1.983621717E0,2.184831792E0
1.410114738E1,-1.356257870E0,1.840007669E-1,1.575827542E0,2.087228817E0
1.411111838E1,-5.466438026E-1,-2.411245555E-1,9.098758721E-1,1.088501080E0
1.412108837E1,-6.404907732E-1,-4.497157878E-1,3.832639360E-1,8.714149213E-1
1.413105938E1,-6.544082429E-1,-9.936799210E-1,6.112445354E-2,1.191379928E0
1.414103038E1,-6.313900937E-1,-1.283610016E-2,-5.803338146E-1,8.576745025E-1
1.415100137E1,2.003933994E-2,8.154252130E-1,-1.092372735E0,1.363304091E0
1.416097238E1,2.905580129E-1,6.031970125E-1,-3.239942193E-1,7.438029638E-1
1.417094238E1,6.282040921E-1,4.253580415E-1,-2.231601548E-1,7.908035783E-1
1.418091337E1,9.740909446E-1,4.795479897E-1,-1.127658343E0,1.565385825E0
1.419088438E1,1.519285113E0,2.319280547E-1,-1.551941081E0,2.184156358E0
1.420085538E1,1.185944412E0,5.667138952E-1,-5.298208880E-1,1.417158763E0
1.421082537E1,9.743462487E-1,1.887735566E-1,2.104629260E-1,1.014534726E0
1.422079638E1,3.182217018E-1,2.250292173E-1,7.100273967E-3,3.898122805E-1
1.423076738E1,4.838054205E-1,2.369166067E-1,5.616484523E-2,5.416194727E-1
1.424073837E1,2.598668185E-1,8.789768457E-1,7.422473091E-1,1.179432968E0
1.425070838E1,2.249184491E-1,1.333873851E0,1.570199012E0,2.072518443E0
1.426067938E1,-9.985725056E-2,1.306115072E0,2.180075884E-2,1.310108135E0
1.427065037E1,-3.877415145E-1,1.089784465E0,-1.334682521E0,1.766168479E0
1.428062138E1,7.706191689E-2,-3.848312822E-1,-8.282142431E-1,9.165001294E-1
1.429059138E1,3.085404669E-1,-7.452302662E-1,-5.645287907E-1,9.845090781E-1
1.430056237E1,-1.300234381E-2,-9.160519937E-1,-4.621528155E-1,1.026111856E0
1.431053338E1,1.159977950E-2,-5.987475738E-1,-1.643845278E-1,6.210116625E-1
1.432050438E1,4.987130430E-2,-1.226209947E0,-3.442811340E-1,1.274600910E0
1.433047437E1,1.824135036E-1,-1.684372037E0,5.296887410E-1,1.775092676E0
1.434044538E1,1.804764673E-1,-2.193556347E0,1.828030817E0,2.861111300E0
1.435041638E1,-4.074990369E-1,-7.057682848E-1,1.935123156E0,2.099729975E0
1.436038737E1,-5.892486623E-1,-3.210507309E-1,1.912602605E0,2.026903126E0
1.437035838E1,-6.753411287E-1,-6.464450660E-1,1.683246156E0,1.925433584E0
1.438032838E1,-8.784042571E-1,-8.939787546E-1,3.838270229E-1,1.310768948E0
1.439029937E1,-1.397380022E0,1.326168975E-1,-8.357928193E-1,1.633648617E0
1.440027038E1,-8.270782752E-1,1.523600212E-1,-7.398405951E-1,1.120105422E0
1.441024138E1,-4.826729610E-1,2.609653276E-1,-7.464929724E-1,9.264598466E-1
1.442021137E1,-1.440236093E-1,-8.005247533E-2,-5.055736542E-1,5.317479841E-1
1.443018238E1,2.151130339E-1,4.643732956E-1,-4.230460525E-1,6.639910674E-1
1.444015338E1,7.348024879E-1,1.389441988E0,-1.474919218E-1,1.578682236E0
1.445012437E1,7.971857739E-1,3.002346432E-1,3.368042994E-1,9.160148117E-1
1.446009438E1,1.260578418E0,-9.738485044E-1,-1.123496295E0,1.949277503E0
1.447006538E1,4.455145633E-1,-1.467289478E0,-2.212337312E0,2.691813147E0
1.448003637E1,5.275429955E-1,-6.931035081E-1,-4.648308402E-1,9.873002558E-1
1.449000738E1,3.628312795E-1,3.951738372E-1,8.625245351E-1,1.015754632E0
1.449997738E1,9.248405050E-1,1.439648813E-1,1.479508113E0,1.750714169E0
1.450994837E1,6.148804072E-1,-6.165523455E-1,1.351956366E0,1.608104700E0
1.451991938E1,5.380849041E-1,3.446287510E-1,1.888685739E-1,6.663149993E-1
1.452989038E1,6.225185519E-1,7.297252044E-1,-1.019923979E-1,9.645883426E-1
1.453986037E1,5.846512525E-1,4.257217383E-1,-4.456589895E-1,8.495104593E-1
1.454983138E1,6.677002066E-1,-3.888781402E-1,-7.153577185E-1,1.052989287E0
1.455980238E1,-5.755012371E-2,-9.493966180E-1,-8.801942360E-1,1.295919692E0
1.456977337E1,-2.145399702E-1,-6.602199367E-1,-4.044051290E-2,6.953798952E-1
1.457974438E1,-3.962406252E-1,-6.715228969E-1,6.796417558E-1,1.034341602E0
1.458971438E1,-9.111716151E-3,-3.156230530E-1,8.588875669E-1,9.150894970E-1
1.459968537E1,3.606906138E-1,1.408994785E-1,1.049006276E0,1.118197008E0
1.460965638E1,4.940398020E-1,9.766984373E-1,4.025381130E-1,1.166212715E0
1.461962738E1,3.249198335E-1,6.947994930E-1,1.176738117E0,1.404646514E0
1.462959737E1,3.508084539E-1,2.170097610E-1,7.248114967E-1,8.339733290E-1
1.463956838E1,4.611416857E-1,1.280917373E-1,-1.016002836E0,1.123085442E0
1.464953938E1,3.677796685E-1,4.906009814E-1,-2.006993038E0,2.098564334E0
1.465951038E1,6.870788294E-1,-1.274032277E-1,-1.131588841E0,1.329963235E0
1.466948038E1,8.077731080E-2,-5.572706419E-1,-8.705001372E-1,1.036747815E0
1.467945138E1,-2.191448353E-1,-5.675249040E-1,2.705746418E-1,6.658225081E-1
1.468942237E1,-2.921661434E-1,-1.227424121E-1,2.226585222E0,2.249023901E0
1.469939338E1,-5.334114804E-1,3.740411228E-1,2.301054191E0,2.391502657E0
1.470936338E1,-7.465206736E-1,2.308147448E-1,8.077139050E-1,1.123819521E0
1.471933437E1,-8.107032940E-1,-2.246190351E-1,3.507861614E-2,8.419762771E-1
1.472930538E1,-1.185325045E0,-4.465138525E-1,1.977592653E-1,1.281982375E0
1.473927638E1,-1.420609256E0,1.550959334E-1,-5.563918054E-2,1.430133254E0
1.474924637E1,-1.315075492E0,6.803343585E-1,-8.252508742E-1,1.695086249E0
1.475921738E1,-6.832570893E-1,-4.489521414E-2,-5.156998622E-1,8.572060302E-1
1.476918838E1,-1.117552892E0,9.016786605E-2,-8.374592757E-1,1.399425864E0
1.477915938E1,-7.835451700E-1,-2.429781228E-2,7.137719536E-1,1.060190463E0
1.478912938E1,-1.903284409E-1,7.419473469E-2,5.780376130E-1,6.130719829E-1
1.479910038E1,2.542178600E-1,9.869515300E-2,-6.511704934E-1,7.059677507E-1
1.480907137E1,3.215885286E-1,-8.103501222E-1,-9.059635001E-1,1.257321107E0
1.481904238E1,5.079391818E-1,-2.332363692E0,-2.331811130E-1,2.398394470E0
1.482901238E1,2.237562419E-1,-1.777071163E0,5.842257214E-1,1.883976769E0
1.483898337E1,6.419775740E-1,-9.175292927E-1,4.964701241E-1,1.224939914E0
1.484895438E1,9.019930945E-1,-6.391810700E-1,4.635672569E-1,1.198765442E0
1.485892538E1,3.171181130E-1,-9.235270742E-1,1.023801852E0,1.414791994E0
1.486889638E1,-2.520941148E-1,-1.604873586E-1,7.325742602E-1,7.911843538E-1
1.487886638E1,-4.390066123E-1,-3.602507570E-1,5.073693341E-1,7.615320445E-1
1.488883738E1,-4.737037707E-1,-1.043851078E0,2.785297787E-1,1.179660618E0
1.489880838E1,-8.669809905E-1,-2.236812879E0,-4.566915160E-1,2.442039114E0
1.490877838E1,-1.067992112E0,-1.936728509E0,-8.714128876E-1,2.377158996E0
1.491874938E1,-1.156979790E0,-3.066086930E-1,9.827894819E-1,1.548704714E0
1.492872037E1,-6.169434511E-1,6.985039964E-1,2.717616851E0,2.872972050E0
1.493869138E1,-3.657304752E-1,2.563276085E-1,8.454091501E-1,9.561272167E-1
1.494866238E1,1.401815135E-1,-1.546474519E-1,-5.527647775E-1,5.908600430E-1
1.495863237E1,9.409450890E-2,1.884531292E-1,-1.110348246E0,1.130151134E0
1.496860338E1,4.097890259E-1,5.004737127E-1,-9.948008323E-1,1.186604264E0
1.497857438E1,4.448287580E-1,1.827629113E-1,-6.315367126E-1,7.937969042E-1
1.498854538E1,3.912933326E-1,5.640399635E-2,-1.071799307E0,1.142385941E0
1.499851538E1,4.971216501E-1,3.766361171E-1,-3.038569933E-1,6.937678085E-1
1.500848638E1,7.771116248E-1,1.269438412E0,7.677628040E-2,1.490392887E0
1.501845738E1,6.076498500E-1,2.401987951E0,-1.443608547E0,2.867540774E0
1.502842838E1,5.538269243E-1,1.414359021E0,-2.312208340E0,2.766485696E0
1.503839838E1,5.710971142E-1,5.263643065E-1,-2.932454664E-1,8.301832331E-1
1.504836937E1,-2.916711584E-1,1.387383476E-1,2.155052140E0,2.179121410E0
1.505833988E1,-4.543947297E-1,1.576283625E0,1.992375584E0,2.580834187E0
1.506831088E1,-6.838088471E-1,2.013071219E0,-1.141575301E-1,2.129103617E0
1.507828087E1,-1.049732573E0,1.182327763E0,-2.490522105E-1,1.600582524E0
1.508825188E1,-4.275921164E-1,-7.174565765E-1,4.042408222E-1,9.278952525E-1
1.509822288E1,-3.023136573E-1,-3.248686704E-1,-1.488706952E-1,4.680765795E-1
1.510819387E1,-5.293166388E-1,5.454978579E-1,-5.896297181E-1,9.619808842E-1
1.511816388E1,-8.351051136E-1,-5.665566051E-1,1.613352048E-1,1.021966724E0
1.512813488E1,-4.983365554E-1,-1.328023420E0,2.941009140E-1,1.448613431E0
1.513810587E1,-2.765290625E-1,-2.104798537E0,6.213391685E-1,2.211946556E0
1.514807688E1,-1.504269317E-3,-1.255082620E0,4.131689358E-1,1.321341446E0
1.515804688E1,-2.337815124E-1,-1.283201588E0,1.239959967E0,1.799655753E0
1.516801787E1,-2.821008560E-1,-6.899132672E-1,7.516730207E-1,1.058571462E0
1.517798888E1,-4.844214612E-1,-8.008767557E-1,9.871643686E-1,1.360353344E0
1.518795988E1,-4.295341960E-1,7.221457511E-2,3.689961451E-1,5.708526303E-1
1.519792987E1,-4.190110351E-1,-7.879210800E-1,4.920706791E-1,1.019079697E0
1.520790088E1,1.271439585E-2,-5.742342916E-1,-9.639602780E-2,5.824078225E-1
1.521787188E1,4.047048901E-2,-1.039035311E0,5.004433072E-1,1.153982557E0
1.522784287E1,4.176912820E-1,3.646730062E-1,-8.271570665E-1,9.958118402E-1
1.523781288E1,-3.852685626E-2,7.149706328E-1,-4.518359882E-1,8.466540525E-1
1.524778388E1,7.101211349E-2,-4.493020973E-1,1.034343213E0,1.129947334E0
1.525775487E1,-1.254167732E-1,-1.594099799E0,6.312478602E-1,1.719115294E0
1.526772588E1,-1.365879427E-2,-1.284083056E0,2.996733105E-1,1.318658390E0
1.527769588E1,1.900532198E-1,-1.759052968E-1,3.255788147E-2,2.610036694E-1
1.528766687E1,4.799048160E-1,-2.128974143E-1,4.017393833E-1,6.610812912E-1
1.529763788E1,5.949249566E-1,-1.108229507E0,2.390868008E-1,1.280340128E0
1.530760888E1,4.722963459E-1,-1.228214372E0,-5.003702170E-1,1.407815590E0
1.531757988E1,3.671048632E-1,-1.824155867E-1,7.607929230E-2,4.169286337E-1
1.532754988E1,3.020238729E-1,6.469435412E-1,9.712979490E-1,1.205476699E0
1.533752088E1,-1.860778075E-1,2.121983796E-2,7.155734807E-1,7.396760360E-1
1.534749187E1,-5.330576143E-1,-4.751921064E-1,3.763560355E-2,7.151044656E-1
1.535746288E1,-8.180813107E-1,1.939144287E-1,-1.635419440E-1,8.565079124E-1
1.536743288E1,-1.197709887E0,5.095468372E-1,-3.127359903E-1,1.338637648E0
1.537740387E1,-8.471285239E-1,7.965378293E-1,-2.069154203E-1,1.181064452E0
1.538737488E1,-7.816046253E-1,1.158599469E0,-3.614397883E-1,1.443571003E0
1.539734588E1,-8.185148817E-1,1.618521864E0,-5.062016451E-1,1.883034716E0
1.540731587E1,-8.949662762E-1,1.535057831E0,5.876510203E-2,1.777869657E0
1.541728688E1,-1.391332832E0,1.072634582E0,-1.435614234E-1,1.762657617E0
1.542725788E1,-8.534743609E-1,9.406523994E-1,-8.406594568E-1,1.523139437E0
1.543722787E1,-4.386870254E-1,1.074191988E0,-9.566132516E-1,1.503809710E0
1.544719888E1,-1.582118415E-1,1.071420700E0,-5.609865475E-1,1.219704558E0
1.545716988E1,-2.691312932E-1,6.448519921E-1,-6.090939295E-1,9.269634080E-1
1.546714088E1,-3.477282869E-1,-6.502153507E-1,-7.576213932E-1,1.057206290E0
1.547711188E1,-2.359674209E-1,-1.739542856E0,8.181400752E-1,1.936760996E0
1.548708188E1,-7.542995169E-1,-1.331116304E0,2.131375009E0,2.623661146E0
1.549705287E1,-5.770322574E-1,-1.764011407E-1,8.391754335E-1,1.033585505E0
1.550702388E1,-8.036349604E-1,-9.529280439E-1,-3.528683549E-1,1.295537372E0
1.551699488E1,-1.002114091E0,-1.700656533E0,2.449755317E-1,1.989089818E0
1.552696487E1,-1.434909060E0,-1.717637432E0,5.571262157E-1,2.306432739E0
1.553693588E1,-1.291937036E0,-1.123754742E0,2.901505351E-1,1.736696104E0
1.554690688E1,-8.376254097E-1,-7.125861382E-1,1.237254460E0,1.655353113E0
1.555687788E1,-5.745439748E-1,-4.453999579E-1,1.494782794E0,1.662184557E0
1.556684788E1,-5.563856293E-1,-3.077719966E-1,7.631195301E-1,9.932975322E-1
1.557681888E1,-4.740966671E-1,1.287700143E-1,7.610238880E-1,9.058182623E-1
1.558678988E1,-1.366542172E-1,-7.820680171E-2,4.113557142E-1,4.404590816E-1
1.559676088E1,-3.453236926E-1,7.612636238E-2,-9.900476307E-1,1.051302995E0
1.560673088E1,-8.349127402E-1,-3.422998050E-1,-8.251082021E-1,1.222723184E0
1.561670187E1,8.213332579E-3,-5.286236706E-1,-2.943675470E-1,6.051137883E-1
1.562667288E1,-3.815296519E-1,-8.345005846E-1,3.080020845E-2,9.180984445E-1
1.563664388E1,1.401346992E-1,-1.321089207E0,9.031001186E-1,1.606394799E0
1.564661387E1,2.900387437E-1,-1.020435903E0,4.042297125E-1,1.135259250E0
1.565658488E1,-3.199452417E-1,-7.863049096E-1,-1.529327559E-1,8.625710385E-1
1.566655588E1,-5.839114335E-1,3.612360129E-1,-6.522393644E-1,9.470270364E-1
1.567652688E1,-1.545091287E-1,3.575288782E-1,-5.654549897E-1,6.866143859E-1
1.568649688E1,-1.032090792E0,-1.273680567E0,-3.990233517E-1,1.687214635E0
1.569646788E1,-1.288470222E0,-1.776535266E0,-2.204464620E-1,2.205635896E0
1.570643888E1,-1.851072940E0,-1.065290771E0,-2.866965848E-1,2.154880597E0
1.571640988E1,-1.972277826E0,1.347982013E-1,5.353769124E-1,2.048091506E0
1.572637988E1,-1.222691238E0,9.857560667E-1,1.935189815E0,2.492317898E0
1.573635087E1,-1.651215109E0,5.868803573E-1,2.147601033E0,2.771845971E0
1.574632188E1,-7.129189179E-1,8.694897383E-2,6.993188059E-1,1.002427204E0
1.575629288E1,-7.710681619E-1,-1.523638219E-2,-9.040438592E-2,7.764993308E-1
1.576626287E1,2.544126089E-1,-4.762244323E-1,-5.378187096E-1,7.620790312E-1
1.577623388E1,4.787729778E-1,-4.384634060E-1,-1.305819495E0,1.458299790E0
1.578620488E1,1.201349925E0,-6.572206074E-1,-1.000808262E0,1.696112539E0
1.579617588E1,1.297238853E0,1.944254753E-1,-7.200869465E-1,1.496380672E0
1.580614588E1,1.184701513E0,8.285256073E-1,-3.967698348E-1,1.499132635E0
1.581611688E1,1.041490995E0,1.113734368E0,3.380959493E-1,1.561863185E0
1.582608788E1,1.566785006E-1,1.139918492E0,5.876937050E-1,1.292031815E0
1.583605788E1,-5.372314299E-1,1.052312584E0,1.812309408E-1,1.195334278E0
1.584602888E1,-9.438579161E-1,5.393936571E-1,-8.613954377E-1,1.387016721E0
1.585599987E1,-1.029644390E0,-1.514346993E-1,-9.568810540E-1,1.413761433E0
1.586597088E1,-9.036220557E-1,2.529634130E-1,-8.122887665E-1,1.241102876E0
1.587594088E1,-1.416466065E0,6.199650729E-1,1.136149085E-1,1.550368070E0
1.588591187E1,-1.127898152E0,1.077736570E0,2.773737842E-1,1.584489372E0
1.589588288E1,-9.560806433E-1,4.480095702E-1,4.080549610E-1,1.131950362E0
1.590585388E1,-3.952429075E-1,-6.448619324E-1,-1.537414259E-1,7.718162306E-1
1.591582387E1,-4.781394685E-1,3.899566591E-2,-3.410125405E-1,5.885809766E-1
1.592579488E1,-1.806584619E-1,-7.345567587E-1,9.948101878E-1,1.249743342E0
1.593576588E1,1.219425130E-1,-1.140632145E0,1.290330806E0,1.726518246E0
1.594573688E1,5.790260483E-1,-8.009121314E-1,4.087379158E-1,1.069484965E0
1.595570688E1,3.949614006E-1,-5.866833061E-1,2.541316867E-2,7.076988334E-1
1.596567788E1,5.614770923E-1,-6.270413733E-1,2.181888521E-2,8.419699951E-1
1.597564887E1,2.945848076E-1,-8.044786406E-1,-5.167593777E-2,8.582753023E-1
1.598561988E1,2.507121984E-1,-1.338823519E0,5.466129220E-1,1.467682087E0
1.599558988E1,4.614946931E-2,-1.032661261E0,4.957649499E-1,1.146430085E0
