"Time (s)","Linear Acceleration x (m/s^2)","Linear Acceleration y (m/s^2)","Linear Acceleration z (m/s^2)","Absolute acceleration (m/s^2)"
8.274333377E-3,1.110467163E0,1.913728194E0,-1.365237731E0,2.599878264E0
1.824433333E-2,1.013959454E0,1.698650353E0,-1.730978732E0,2.628652538E0
2.821533335E-2,7.579830435E-1,2.107078951E0,-4.630866158E-1,2.286650217E0
3.818533337E-2,-3.563725182E-1,2.693991468E0,-5.163494879E-1,2.766081741E0
4.815533338E-2,-4.235998021E-2,3.247924227E0,-3.105585456E0,4.493936713E0
5.812633334E-2,4.394283975E-2,2.345650320E0,-6.760322696E-1,2.441521253E0
6.809633336E-2,-5.300492949E-1,1.773028398E0,9.722001743E-1,2.090395928E0
7.806633337E-2,-5.422693178E-1,2.685006344E0,-5.067974764E-1,2.785706152E0
8.803733333E-2,-1.250067025E0,3.098903843E0,-2.492645813E0,4.168831461E0
9.800733335E-2,-6.647525521E-1,1.490193899E0,-8.467148334E-1,1.838341596E0
1.079773334E-1,-1.348878099E0,5.977085236E-1,-9.181473434E-1,1.737734775E0
1.179483334E-1,-9.055983415E-1,1.270159081E0,-1.246011835E0,1.996486399E0
1.279183333E-1,-1.384602394E0,2.301346552E0,-8.641015291E-1,2.821345635E0
1.378893334E-1,-2.034886596E0,1.908823842E0,-7.758448255E-1,2.895912138E0
1.478593334E-1,-1.968280377E0,6.818312457E-1,-1.119634793E0,2.364868614E0
1.578293334E-1,-2.023109865E0,-7.641550720E-2,-5.087960547E-1,2.087507193E0
1.678003334E-1,-1.909183154E0,3.108464625E-1,6.806919158E-2,1.935520409E0
1.777703334E-1,-2.206184725E0,4.680807227E-1,-5.588862276E-1,2.323511226E0
1.877403334E-1,-1.824455391E0,-7.428668216E-1,-3.887842923E-1,2.007894871E0
1.977113333E-1,-1.528220682E0,-1.306909416E0,2.996826661E-1,2.033047066E0
2.076813334E-1,-9.572389036E-1,-6.992153102E-1,1.091575760E0,1.611442214E0
2.176513334E-1,-3.423561575E-1,-5.332143196E-1,1.244024366E0,1.396109549E0
2.276223333E-1,1.104088801E-1,-1.882694682E0,1.692780626E0,2.534213020E0
2.375923333E-1,8.818424930E-1,-1.684468809E0,8.778354692E-1,2.094200674E0
2.475623334E-1,5.609652051E-1,-8.256569633E-1,4.297259116E-1,1.086763885E0
2.575333334E-1,4.792282201E-1,-1.028160367E0,1.691808234E0,2.036906607E0
2.675033333E-1,9.103828988E-1,-1.633056288E0,1.476669874E0,2.382482692E0
2.774743334E-1,4.897480188E-1,-1.021255682E0,-3.047580492E-1,1.172899723E0
2.874443334E-1,1.373447734E-1,-6.482389918E-1,8.135090804E-1,1.049225620E0
2.974143334E-1,-7.857050766E-2,-9.309857824E-1,1.413722844E0,1.694556027E0
3.073853333E-1,-2.132023283E-1,-1.218531091E0,8.458956385E-1,1.498603578E0
3.173553334E-1,2.275492576E-1,-1.198865735E0,6.025210744E-1,1.360914898E0
3.273253334E-1,-2.629325685E-2,-1.184227231E0,7.214130950E-1,1.386911072E0
3.372963333E-1,7.556767920E-3,-1.250323864E0,1.293860185E0,1.799289040E0
3.472663334E-1,-8.581714292E-1,-1.065123248E0,8.063924342E-1,1.587833270E0
3.572363334E-1,2.282275894E-1,-1.143556337E0,-7.963206053E-2,1.168824279E0
3.672073334E-1,4.722367774E-1,-1.741961849E0,7.182760638E-1,1.942513619E0
3.771773333E-1,-4.585987316E-1,-1.338249615E0,1.158625782E0,1.828561875E0
3.871473334E-1,-1.136331079E-1,-1.050338271E-1,5.223399603E-1,5.447785075E-1
3.971183334E-1,1.698993658E-1,7.812523305E-2,6.083677053E-2,1.966480592E-1
4.070883333E-1,-6.807398629E-1,-1.810478645E0,-1.522597414E-1,1.940212028E0
4.170593334E-1,-1.209564751E0,-2.388072162E0,-6.751733136E-1,2.760759776E0
4.270293334E-1,-1.138535479E0,-8.518483964E-1,-4.260164380E-1,1.484384968E0
4.369993334E-1,-1.187237670E0,-7.339191198E-2,3.474321985E-1,1.239204902E0
4.469703333E-1,-1.407581367E0,-7.209684142E-1,1.358187159E0,2.084647000E0
4.569403334E-1,-1.259002301E0,-1.346167622E0,1.009921147E0,2.101712346E0
4.669103334E-1,-9.564743802E-1,-1.098262343E0,3.029962832E-1,1.487558457E0
4.768813333E-1,-4.187864289E-1,5.741673410E-2,-4.842184532E-1,6.427645485E-1
4.868513333E-1,-1.269457415E0,4.296955061E-1,-8.315185046E-1,1.577207463E0
4.968213334E-1,-1.531694512E0,2.759327379E-1,-9.161972970E-1,1.806002337E0
5.067923334E-1,-1.125780656E0,1.514779687E-2,-9.402878255E-1,1.466885386E0
5.167623333E-1,-1.435256385E0,7.001953036E-2,-3.966137141E-1,1.490693148E0
5.267323334E-1,-1.315400597E0,1.096142435E-1,7.084211665E-1,1.498050253E0
5.367033334E-1,-1.101840839E0,5.555378196E-1,4.187740767E-1,1.303091413E0
5.466733334E-1,-8.806469567E-1,1.392504467E0,-7.782527089E-2,1.649443702E0
5.566443334E-1,-9.432121642E-1,1.650364046E0,-1.198190966E0,2.247000726E0
5.666143334E-1,-1.238043834E0,2.191273302E0,-1.640342796E0,3.004189692E0
5.765843334E-1,-1.314170489E0,2.300770309E0,-1.189603745E0,2.904435428E0
5.865553333E-1,-1.200958380E0,1.767651299E0,-5.552059901E-1,2.207973242E0
5.965253334E-1,-1.809390624E0,1.483709337E0,-2.331811130E-1,2.351523179E0
6.064953334E-1,-1.811369176E0,1.708158511E0,-7.224270022E-1,2.592443743E0
6.164663333E-1,-1.847648079E0,1.307422217E0,-6.458951354E-2,2.264360414E0
6.264363333E-1,-2.047891973E0,8.489651343E-1,-8.672648728E-2,2.218586220E0
6.364063334E-1,-2.024351813E0,1.423418404E0,-1.497721020E0,2.892626570E0
6.463773334E-1,-2.094933407E0,2.053769594E0,-1.060230591E0,3.119423734E0
6.563473333E-1,-1.956099165E0,2.449072362E0,-5.928316534E-1,3.189941810E0
6.663183334E-1,-2.620836076E0,2.581756503E0,-1.623458376E0,4.021177126E0
6.762883334E-1,-2.662536664E0,2.811092779E0,-2.052458063E0,4.382228680E0
6.862583334E-1,-2.563715796E0,2.539987795E0,-1.711156670E0,3.994024766E0
6.962293333E-1,-2.765362583E0,1.615462893E0,-1.407406096E0,3.498248489E0
7.061993334E-1,-2.406423356E0,1.123097807E0,-1.314166396E0,2.962980825E0
7.161693334E-1,-1.467355113E0,1.261851650E0,-6.323909909E-1,2.036005643E0
7.261403333E-1,-1.309798379E0,2.077450525E0,1.781342554E-1,2.462337160E0
7.361103334E-1,-1.103845557E0,2.436754033E0,-3.757496792E-1,2.701376140E0
7.460803334E-1,-8.966953710E-1,2.334004713E0,-8.078191549E-1,2.627586797E0
7.560513334E-1,-1.639660499E-1,1.939336660E0,-3.850069910E-1,1.983971252E0
7.660213333E-1,4.584399066E-1,2.357716634E0,-1.295472263E0,2.728963770E0
7.759913334E-1,3.176340201E-1,2.508702267E0,-1.002996874E0,2.720382541E0
7.859623334E-1,1.046391693E0,2.770857796E0,-4.669487017E-1,2.998437858E0
7.959323333E-1,1.202245791E0,2.857833082E0,-6.869782573E-1,3.175617104E0
8.059033334E-1,1.513314667E0,2.501870088E0,-1.047518159E0,3.105924905E0
8.158733334E-1,1.531138735E0,2.851762503E0,-9.283630139E-1,3.367312442E0
8.258433334E-1,1.744792048E0,2.133013692E0,-1.254807217E0,3.027967610E0
8.358143333E-1,2.018310032E0,1.176945401E0,-1.242924505E0,2.646438585E0
8.457843334E-1,1.718395523E0,1.486781464E0,-1.466138454E0,2.704249298E0
8.557543334E-1,1.543904814E0,2.230277739E0,-5.267224485E-1,2.763189716E0
8.657253333E-1,8.096920180E-1,2.171801197E0,2.276584178E-1,2.328980454E0
8.756953334E-1,5.843947790E-1,1.317211918E0,1.009703046E0,1.759563791E0
8.856653334E-1,1.243091443E0,2.670446777E-1,7.189514172E-1,1.460643809E0
8.956363334E-1,1.600106351E0,-7.997497049E-1,-7.190139824E-1,1.927931801E0
9.056063333E-1,1.854661522E0,-6.198060286E-1,-1.261578292E0,2.327124548E0
9.155773334E-1,2.090927334E0,-4.865845290E-1,-6.600746334E-1,2.245983112E0
9.255473334E-1,2.120479600E0,-4.639958578E-1,-7.838426471E-2,2.172065833E0
9.355173334E-1,1.882310958E0,-1.820280040E0,1.318212669E0,2.931586364E0
9.454879584E-1,1.709523397E0,-2.991331447E0,3.459964732E0,4.882815788E0
9.554579583E-1,1.129146770E-1,-2.384935423E0,3.068082585E0,3.887646775E0
9.654279583E-1,-1.057293242E0,-1.971394604E0,2.378021091E0,3.264850685E0
9.753989584E-1,-9.134040821E-1,-2.378310528E0,1.982216631E0,3.227979361E0
9.853689584E-1,-9.681846721E-1,-2.259045162E0,1.170376931E0,2.722213946E0
9.953389583E-1,-7.881005164E-1,-2.228735828E0,1.690500212E-1,2.370009224E0
1.005309958E0,-1.479472920E-1,-3.130770584E0,6.227705669E-1,3.195536892E0
1.015279958E0,6.791170413E-1,-3.428207334E0,1.101603734E0,3.664332991E0
1.025249958E0,1.402674383E0,-3.526066335E0,9.586942756E-1,3.914043171E0
1.035220958E0,5.547886451E-1,-3.074247012E0,1.250770884E0,3.364998207E0
1.045190958E0,-4.672968669E-1,-2.217290488E0,1.413891243E0,2.670923420E0
1.055161958E0,-6.094090214E-1,-2.494542650E0,1.840932114E0,3.159612861E0
1.065131958E0,-6.488697602E-1,-1.969432864E0,1.533572638E0,2.579058512E0
1.075101958E0,-1.526283938E0,-1.425304716E0,-2.509531403E-1,2.103333942E0
1.085072958E0,-1.047159871E0,-1.332219382E0,-5.071079636E-1,1.768759668E0
1.095042958E0,3.017535671E-1,-1.571687713E0,-1.465212840E-1,1.607086174E0
1.105012958E0,1.062010629E0,-1.293311424E0,-3.825260174E-1,1.716638334E0
1.114983958E0,1.515624902E0,-7.469265434E-1,1.692593515E-1,1.698136282E0
1.124953958E0,1.305583560E0,8.534946799E-2,3.220856881E-1,1.347431688E0
1.134923958E0,8.051227845E-1,8.917062342E-1,-6.653938454E-1,1.373357811E0
1.144894958E0,-8.445743870E-2,1.468501022E0,-1.019664363E0,1.789788737E0
1.154864958E0,1.315568704E-3,1.693973165E0,-6.372085118E-1,1.809856763E0
1.164835958E0,2.119905477E-1,1.382555722E0,-2.939804614E-1,1.429274232E0
1.174805958E0,2.879073605E-1,1.455265557E0,-1.178231496E0,1.894443967E0
1.184775958E0,9.543057941E-1,1.522933629E0,-1.868070211E0,2.592240865E0
1.194746958E0,1.484171267E0,1.789188348E0,-2.105343790E0,3.136308622E0
1.204716958E0,2.171853091E0,2.051505844E0,-1.552495982E0,3.366877760E0
1.214686958E0,2.608687609E0,1.805381042E0,-9.603560543E-1,3.314654657E0
1.224657958E0,2.454541848E0,1.600671484E0,-1.176425875E0,3.157673625E0
1.234627958E0,1.991599073E0,2.833296996E0,-2.367179768E0,4.194946816E0
1.244597958E0,9.367082331E-1,4.340544592E0,-1.728039921E0,4.764857987E0
1.254568958E0,1.295952904E0,5.174428588E0,-1.342438853E-1,5.335937271E0
1.264538958E0,6.778340160E-1,4.229682845E0,6.892335284E-1,4.338746222E0
1.274509958E0,1.321380837E0,2.787419449E0,1.159275407E0,3.295401944E0
1.284479958E0,1.935108977E0,2.024106376E0,2.528961700E-1,2.811691635E0
1.294449958E0,1.092935383E0,1.698779577E0,2.353720647E-1,2.033656759E0
1.304420958E0,1.897333625E0,1.982278319E0,-1.676956891E0,3.215818190E0
1.314390958E0,1.851804134E0,1.868166105E0,-2.440597408E0,3.588277979E0
1.324360958E0,1.714061713E0,2.677575703E0,-2.044742078E0,3.779998593E0
1.334331958E0,1.805773098E0,4.082993161E0,-1.823603890E0,4.822569936E0
1.344301958E0,1.700424545E0,3.486872741E0,-1.731937675E0,4.248450689E0
1.354271958E0,1.245782478E0,1.941368275E0,-1.905973617E0,2.992260047E0
1.364242958E0,1.381182065E0,1.748963890E0,-1.153626412E0,2.509460596E0
1.374212958E0,1.439277953E0,2.144812788E0,-2.026851352E0,3.283271132E0
1.384183958E0,9.197658527E-1,1.930401237E0,-2.732072922E0,3.469386201E0
1.394153958E0,9.479802762E-1,2.171303891E0,-3.416686565E0,4.157760729E0
1.404123958E0,4.334779968E-1,3.441524076E0,-2.834499183E0,4.479550955E0
1.414094958E0,-4.923926414E-1,4.947901606E0,-1.805708486E0,5.290062755E0
1.424064958E0,-7.689345860E-1,4.443773676E0,-8.352250546E-1,4.586500384E0
1.434034958E0,-1.499456912E0,2.163709235E0,2.129754746E-1,2.641092054E0
1.444005958E0,-2.580399656E0,1.194191178E0,1.879616708E-1,2.849541112E0
1.453975958E0,-3.174120379E0,1.440764462E0,9.598672271E-2,3.487127165E0
1.463945958E0,-4.198450527E0,1.501338692E0,-7.584937978E-1,4.522866076E0
1.473916958E0,-5.223782011E0,1.606160850E0,-2.556915484E0,6.033694388E0
1.483886958E0,-5.214807120E0,1.354764491E0,-2.270100201E0,5.846619112E0
1.493857958E0,-6.466921109E0,1.095981929E0,-1.281419649E0,6.683134095E0
1.503827958E0,-5.926170021E0,2.257165575E-1,-2.197778329E0,6.324608183E0
1.513797958E0,-5.854984263E0,1.993172559E-1,-2.012882938E0,6.194535157E0
1.523768958E0,-5.542409656E0,9.010784438E-1,-2.840817100E-1,5.622361566E0
1.533738958E0,-4.637798325E0,3.454798132E-2,1.271979904E0,4.809189094E0
1.543708958E0,-4.103992267E0,-2.750132925E0,2.550465420E0,5.559753366E0
1.553679958E0,-3.338189157E0,-4.300698741E0,3.221032882E0,6.325707023E0
1.563649958E0,-2.196947732E0,-5.031238462E0,4.632134419E0,7.183077967E0
1.573619958E0,-1.792364848E0,-5.533866289E0,5.288986652E0,7.861909924E0
1.583590958E0,-5.790889059E-1,-4.848745108E0,5.437404773E0,7.308285965E0
1.593560958E0,-3.281413570E-1,-5.014118400E0,6.329828460E0,8.081818385E0
1.603531958E0,-3.728874306E-1,-5.289937994E0,4.965174866E0,7.264671394E0
1.613501958E0,-3.470540664E-1,-5.295413911E0,4.682380128E0,7.077184375E0
1.623471958E0,-4.028332147E-1,-5.633339707E0,3.744244663E0,6.776146319E0
1.633442958E0,-1.009455855E0,-5.548142266E0,2.300084723E0,6.090260541E0
1.643412958E0,-6.369016061E-1,-4.670285747E0,9.590322447E-1,4.810088924E0
1.653382958E0,-1.702913302E-1,-4.445759975E0,7.901868761E-2,4.449721884E0
1.663353958E0,3.237311677E-1,-3.889501194E0,-5.580056369E-1,3.942637657E0
1.673323958E0,9.934055404E-1,-2.966074984E0,1.070367908E-1,3.129842209E0
1.683293958E0,3.260439608E0,-1.463181517E0,6.766409647E-1,3.637198040E0
1.693264958E0,2.970110732E0,-4.108534384E-1,8.374639535E-1,3.113150203E0
1.703234958E0,2.776652386E0,-1.297587785E-1,1.502584734E0,3.159809598E0
1.713204958E0,2.650090281E0,-1.376586592E-1,5.892818087E-1,2.718304886E0
1.723175958E0,1.614036465E0,-1.735605633E-1,-1.118943653E0,1.971616564E0
1.733145958E0,1.857289407E0,5.325111920E-1,-2.079128968E0,2.838286345E0
1.743116958E0,9.209868975E-1,1.457046034E0,-2.165871828E0,2.768068060E0
1.753086958E0,4.050880655E-2,1.666821620E0,-1.934634914E0,2.553967017E0
1.763056958E0,6.509023985E-1,1.545121181E0,-1.642114502E0,2.346830509E0
1.773027958E0,2.424319198E-1,1.076039415E0,-1.681275060E0,2.010800807E0
1.782997958E0,8.396890383E-1,1.036804891E0,-2.188839106E0,2.563407633E0
1.792967958E0,1.180082578E0,1.220931373E0,-2.059680544E0,2.669373007E0
1.802938958E0,6.626896544E-1,1.246974579E0,-2.328259531E0,2.723030595E0
1.812908958E0,5.336706217E-1,1.669792590E0,-2.590443419E0,3.127844103E0
1.822878958E0,-1.324271188E-1,2.910130287E0,-1.845771854E0,3.448661909E0
1.832849958E0,-1.116421456E0,3.628672691E0,-1.208162808E0,3.984133499E0
1.842819958E0,-1.680193325E0,3.172783121E0,-3.136990267E-1,3.603888097E0
1.852790958E0,-1.421322470E0,1.847357326E0,7.040024257E-1,2.434852371E0
1.862760958E0,-1.677661188E0,2.171869317E-1,-1.460868359E-2,1.691724161E0
1.872730958E0,-1.597879439E0,9.568357381E-1,-1.400044452E0,2.329995236E0
1.882701958E0,-1.606382314E0,3.427722892E0,-2.754981728E0,4.681845009E0
1.892671958E0,-1.982999281E0,5.384567578E0,-3.625506424E0,6.787499612E0
1.902641958E0,-1.922304744E0,5.626642306E0,-2.497030056E0,6.448993585E0
1.912612958E0,-9.247505309E-1,3.839728232E0,-9.109599459E-1,4.053211624E0
1.922582958E0,-7.123868944E-1,1.905293293E0,-3.178090346E-1,2.058795814E0
1.932552958E0,-1.618608513E-1,1.717931255E0,-1.592145951E0,2.347853373E0
1.942524958E0,-4.688764556E-1,2.313559923E0,-2.865480071E0,3.712597566E0
1.952494958E0,-1.085367990E0,3.563024831E0,-3.272919320E0,4.958343524E0
1.962465958E0,-5.145538811E-1,3.763665605E0,-1.281840064E0,4.009121903E0
1.972435958E0,-3.464155139E-1,3.079081197E0,1.772012737E0,3.569422064E0
1.982405958E0,2.909612516E-1,2.256702183E0,3.201599661E0,3.927798822E0
1.992376958E0,8.792585354E-1,2.092796835E0,2.052917655E0,3.060615144E0
2.002346958E0,1.696956853E0,2.884632041E0,-1.514645201E-1,3.350180006E0
2.012316958E0,3.303013769E0,3.349623095E0,-1.599791186E0,4.968823470E0
2.022287958E0,3.848211080E0,3.026030287E0,-3.135617341E0,5.813577550E0
2.032257958E0,4.248036962E0,1.530235047E0,-3.132271564E0,5.495321873E0
2.042227958E0,5.671667036E0,3.074957156E-1,-2.488777295E0,6.201320263E0
2.052198958E0,5.450401379E0,-3.245029271E-1,-8.033588988E-1,5.518837093E0
2.062168958E0,5.169517511E0,-4.074222922E-1,1.086086394E0,5.298064541E0
2.072139958E0,4.910004632E0,-1.692333314E-1,1.751504213E0,5.215798349E0
2.082109958E0,3.388904982E0,7.847928196E-2,1.979476626E0,3.925450762E0
2.092079958E0,3.197193784E0,-8.210212907E-1,2.010962128E0,3.865241614E0
2.102050958E0,1.972187779E0,-1.804165406E0,2.452325168E0,3.627455883E0
2.112020958E0,2.313251044E0,-3.216412705E0,2.942727052E0,4.935188303E0
2.121990958E0,2.572634262E0,-3.982545890E0,3.093171233E0,5.660991705E0
2.131961958E0,2.231820380E0,-4.407803067E0,3.310796413E0,5.947362691E0
2.141931958E0,2.705359917E0,-4.208016280E0,2.744649113E0,5.706090785E0
2.151901958E0,1.713343675E0,-4.567547829E0,2.322978911E0,5.403172285E0
2.161872958E0,1.349500974E0,-4.831459569E0,1.772615585E0,5.320368451E0
2.171842958E0,5.057338679E-1,-4.568926895E0,1.473256854E0,4.827146722E0
2.181813958E0,-1.315082654E-1,-4.831439981E0,1.211183479E0,4.982677205E0
2.191783958E0,-1.175813380E0,-4.301363862E0,6.603085220E-2,4.459666831E0
2.201753958E0,-2.236816534E0,-2.379518563E0,-7.666278595E-1,3.354575244E0
2.211724958E0,-1.561376295E0,-5.959558207E-1,-5.722769362E-1,1.766510732E0
2.221694958E0,-1.821554587E0,2.289354497E-1,-7.927742690E-1,1.999740882E0
2.231664958E0,-2.448544359E0,9.534469843E-3,-1.499062371E-1,2.453147420E0
2.241635958E0,-7.302970621E-1,-6.896097967E-1,7.134029943E-1,1.232006211E0
2.251605958E0,-1.281313522E0,-1.572697820E0,9.366701531E-1,2.234388899E0
2.261575958E0,-5.801241188E-1,-2.258851912E0,1.034819761E0,2.551432517E0
2.271546958E0,-1.100108309E-1,-2.959231695E0,2.639906770E-1,2.973019624E0
2.281516958E0,-1.491836090E0,-2.008626750E0,-1.002393442E0,2.695356925E0
2.291487958E0,-8.582589182E-1,6.830097520E-1,-1.620433611E0,1.956761554E0
2.301457958E0,-1.445421477E0,2.628171701E0,-1.587027884E0,3.393403489E0
2.311427958E0,-1.629724545E0,3.713752018E0,-1.132602164E0,4.210788976E0
2.321398958E0,-3.148759250E-1,3.084582550E0,-9.884098256E-1,3.254343304E0
2.331368958E0,-2.851291656E-1,1.904040527E0,-1.503582269E0,2.442832088E0
2.341338958E0,6.767669722E-2,1.467178089E0,-1.972225494E0,2.459037429E0
2.351309958E0,3.176086213E-1,1.724014113E0,-1.918728733E0,2.598965150E0
2.361279958E0,2.579492607E-1,2.047469219E0,-1.792426536E0,2.733397320E0
2.371249958E0,1.000324405E0,2.376761600E0,-1.112004177E0,2.808237509E0
2.381220958E0,1.531848294E0,2.865326874E0,-1.070321715E0,3.420854552E0
2.391190958E0,1.166027187E0,3.516083969E0,-1.418651462E0,3.966741465E0
2.401161958E0,1.696934780E0,3.229241788E0,-1.248065962E0,3.855549095E0
2.411131958E0,1.591136722E0,2.729429688E0,-7.945980155E-1,3.257742853E0
2.421101958E0,1.975891406E0,2.829103080E0,-1.348031130E0,3.704748171E0
2.431072958E0,2.362986291E0,3.038278742E0,-1.075176659E0,3.996354185E0
2.441042958E0,1.908399334E0,3.136729774E0,-7.640644401E-1,3.750314142E0
2.451012958E0,2.434359306E0,2.785096351E0,-4.836232066E-1,3.730517165E0
2.460983958E0,1.613192127E0,2.049817168E0,-9.118843907E-1,2.763272047E0
2.470953958E0,1.223840874E0,1.577718239E0,-3.970873386E-1,2.035843727E0
2.480923958E0,1.465218541E0,1.530268084E0,-2.986751908E-1,2.139577681E0
2.490894958E0,7.208807060E-1,1.676228620E0,-8.765666234E-1,2.024297514E0
2.500864958E0,4.866728219E-1,1.598990702E0,-9.462215799E-1,1.920665765E0
2.510834958E0,-7.560800672E-2,1.603191634E0,-2.052012506E0,2.605128655E0
2.520805958E0,-7.463198948E-1,1.648791730E0,-1.937875441E0,2.651578545E0
2.530775958E0,-1.341529611E0,1.780326016E0,-2.375333126E0,3.257525115E0
2.540746958E0,-1.866840541E0,2.269871282E0,-1.652777485E0,3.371807032E0
2.550716958E0,-2.610395873E0,2.151026917E0,-1.472124249E0,3.688933885E0
2.560686958E0,-3.675730205E0,1.606454088E0,-1.631397725E0,4.330490252E0
2.570657958E0,-4.395200271E0,1.196264601E0,-2.132897040E0,5.029720091E0
2.580627958E0,-5.316011313E0,1.204008069E0,-2.292459369E0,5.913119453E0
2.590597958E0,-5.488695964E0,7.992857283E-1,-1.804198735E0,5.832647266E0
2.600568958E0,-5.344662085E0,7.196709171E-1,-1.095531986E0,5.503047280E0
2.610538958E0,-3.857325720E0,-2.486391047E-1,7.132895583E-1,3.930593481E0
2.620508958E0,-2.633302632E0,-1.076309849E0,2.172883224E0,3.579685342E0
2.630479958E0,-1.021157376E0,-1.891655832E0,4.179021984E0,4.699505178E0
2.640449958E0,-4.540333718E-2,-3.228201569E0,4.647915469E0,5.659192967E0
2.650420958E0,8.713375316E-1,-3.941692856E0,5.518603302E0,6.837481559E0
2.660390958E0,2.062014460E0,-3.967852129E0,4.487294210E0,6.334947788E0
2.670360958E0,1.333171162E0,-4.097582549E0,4.122450172E0,5.963398655E0
2.680331958E0,1.612054697E0,-3.874921454E0,3.385733745E0,5.392302811E0
2.690301958E0,1.042812978E0,-3.541526666E0,2.407835459E0,4.407668502E0
2.700271958E0,5.013429744E-1,-3.498339131E0,2.204130160E0,4.165082378E0
2.710242958E0,8.979713796E-1,-3.601722874E0,1.265541535E0,3.921779652E0
2.720212958E0,9.099546634E-2,-3.030206953E0,3.967289042E-1,3.057421819E0
2.730183958E0,8.771243747E-1,-2.540785355E0,4.205194706E-1,2.720620152E0
2.740153958E0,1.859671563E0,-2.474736084E0,2.807768637E-1,3.108300605E0
2.750123958E0,2.611872295E0,-1.743883829E0,-1.291410202E-1,3.143196636E0
2.760094958E0,2.769499780E0,-1.400956033E0,2.540743840E-1,3.114058546E0
2.770064958E0,2.066451766E0,-9.939930394E-1,-4.498263001E-2,2.293527523E0
2.780034958E0,1.733896931E0,-1.596874595E-1,1.855871165E-1,1.751097150E0
2.790005958E0,1.086797927E0,4.009242815E-1,-6.684069157E-2,1.160317927E0
2.799975958E0,-6.797629394E-2,8.899286807E-1,5.419316411E-2,8.941648239E-1
2.809945958E0,-7.447396848E-1,1.223348612E0,-7.280175251E-1,1.606620223E0
2.819916958E0,-1.229470062E0,1.398360746E0,-1.857916521E0,2.630373207E0
2.829886958E0,-8.724785426E-1,1.721546296E0,-1.908505461E0,2.714283248E0
2.839856958E0,-6.715752295E-1,1.710048915E0,-2.230734991E0,2.889889130E0
2.849827958E0,-2.695478342E-1,1.846286701E0,-2.172545255E0,2.863805772E0
2.859797958E0,4.047896199E-1,2.194165335E0,-2.647732683E0,3.462470869E0
2.869768958E0,1.782352295E-1,2.240963525E0,-2.628169069E0,3.458461793E0
2.879738958E0,1.836535154E-1,1.829578575E0,-1.545658248E0,2.402112777E0
2.889708958E0,4.548019152E-3,1.241602449E0,-9.816890359E-1,1.582817327E0
2.899679958E0,-1.144937523E0,8.141879421E-1,-1.146004567E0,1.813038996E0
2.909649958E0,-1.377483847E0,8.191308859E-1,-9.927098680E-1,1.885181699E0
2.919619958E0,-1.930904829E0,1.760594879E0,-1.481499090E0,3.003818792E0
2.929590958E0,-1.719676502E0,2.373034293E0,-1.821424048E0,3.450531059E0
2.939560958E0,-1.175065667E0,2.736014238E0,-1.734342635E0,3.445939292E0
2.949531208E0,-2.619286564E-1,3.185040346E0,-1.124756954E0,3.387944338E0
2.959501208E0,2.599214169E-1,3.009642296E0,-6.995047474E-1,3.100776158E0
2.969471208E0,1.604471041E-1,2.546093165E0,-5.416533136E-1,2.608011118E0
2.979442208E0,8.314961390E-1,2.037211741E0,-8.867021871E-1,2.372310746E0
2.989412208E0,8.904414084E-1,2.407925213E0,-1.957660664E0,3.228532950E0
2.999382208E0,1.668272021E0,3.053432094E0,-2.339161665E0,4.192643126E0
3.009353208E0,2.090646229E0,4.162892439E0,-2.420140924E0,5.249529237E0
3.019323208E0,2.302614813E0,4.151646782E0,-1.149273160E0,4.884571094E0
3.029293208E0,3.129235105E0,3.749900967E0,-3.769477737E-1,4.898567058E0
3.039264208E0,3.303917164E0,2.659075697E0,7.718149245E-1,4.310713452E0
3.049234208E0,3.879891002E0,1.549622076E0,1.044333181E0,4.306450343E0
3.059205208E0,3.130868232E0,1.227197541E0,3.510054320E-1,3.381058193E0
3.069175208E0,3.158820847E0,1.081531413E0,-3.648376054E-1,3.358714905E0
3.079145208E0,1.945142068E0,1.058878714E0,-4.368735480E-1,2.257356926E0
3.089116208E0,8.877925466E-1,-3.046732646E-1,-1.795288163E-1,9.556317282E-1
3.099086208E0,3.216414094E-1,-1.135642131E0,1.798121139E0,2.150901178E0
3.109056208E0,-8.853362775E-1,-1.839397219E0,3.700113387E0,4.225877605E0
3.119027208E0,-1.696167772E0,-2.135850176E0,5.115677519E0,5.797326760E0
3.128997208E0,-2.370726981E0,-3.122132784E0,4.948598009E0,6.313214855E0
3.138967208E0,-2.292947465E0,-3.623305532E0,4.895363789E0,6.507729072E0
3.148938208E0,-3.052706746E0,-3.583827763E0,3.465733010E0,5.845865651E0
3.158908208E0,-2.717425062E0,-3.454095297E0,1.191391239E0,4.553524610E0
3.168879208E0,-2.084015486E0,-3.079315671E0,-1.764496726E-1,3.722423946E0
3.178849208E0,-2.832646785E0,-2.888382445E0,-2.062195432E0,4.540846943E0
3.188819208E0,-2.604267114E0,-1.651748082E0,-1.428050861E0,3.398500873E0
3.198790208E0,-1.708460812E0,-1.417685502E0,-4.971858233E-1,2.275052586E0
3.208760208E0,-2.205560389E0,-1.823402746E0,-5.070325345E-1,2.906264990E0
3.218730208E0,-1.972728354E0,-2.502772606E0,-6.143599319E-1,3.245453128E0
3.228701208E0,-1.347494355E0,-2.412582521E0,-3.902110130E-1,2.790799185E0
3.238671208E0,-1.879051867E0,-1.465349665E0,-2.074685669E-1,2.391888117E0
3.248641208E0,-1.096042594E0,-3.649305761E-1,-4.254825872E-1,1.231064225E0
3.258612208E0,-1.019313822E0,4.623580527E-1,-1.147077531E-1,1.125137105E0
3.268582208E0,-1.365969876E-1,1.079771693E0,-1.788745129E-1,1.102978575E0
3.278553208E0,7.392583586E-1,1.075931242E0,1.192124480E-1,1.310855662E0
3.288523208E0,1.366254855E0,6.256006193E-1,3.969855970E-1,1.554228434E0
3.298493208E0,1.541890302E0,1.665608615E-2,-1.613644409E-1,1.550400468E0
3.308464208E0,9.747488295E-1,3.344385159E-1,-1.383021453E0,1.724741355E0
3.318434208E0,1.689254024E-1,1.365760472E0,-2.772404677E0,3.095168033E0
3.328404208E0,-1.339607923E0,2.665127273E0,-3.320830820E0,4.463784281E0
3.338375208E0,-1.211825358E0,3.086311572E0,-3.175997627E0,4.591383315E0
3.348345208E0,-1.260127598E0,3.463442363E0,-1.671920099E0,4.047057127E0
3.358316208E0,-9.843965160E-1,4.265316947E0,9.821398562E-1,4.486263908E0
3.368286208E0,-8.229443669E-1,4.059033610E0,2.583241988E0,4.881201742E0
3.378256208E0,-7.887200289E-1,3.410215744E0,2.646360342E0,4.388037576E0
3.388227208E0,-1.543028463E0,3.246778173E0,3.966476279E-1,3.616605409E0
3.398197208E0,-2.476101701E0,2.978505872E0,-1.643562273E0,4.207597154E0
3.408167208E0,-2.601587335E0,3.316970488E0,-3.417112827E0,5.426528352E0
3.418138208E0,-2.629392599E0,3.272448034E0,-3.872215655E0,5.711101090E0
3.428108208E0,-1.627593527E0,3.130222700E0,-3.191192787E0,4.757212024E0
3.438078208E0,-6.430576278E-1,3.081654557E0,-9.182800752E-1,3.279231041E0
3.448049208E0,3.930616037E-1,2.565716713E0,1.489885751E0,2.992851354E0
3.458019208E0,1.380533170E0,6.143152007E-1,2.105053768E0,2.591236455E0
3.467990208E0,1.972339953E0,-1.970404086E0,1.364731362E0,3.104047172E0
3.477960208E0,5.603486162E-1,-2.849252585E0,1.598348093E-1,2.908225926E0
3.487930208E0,-8.172868203E-1,-3.059277263E0,-7.974017555E-1,3.265422588E0
3.497901208E0,-1.118274804E0,-2.104474309E0,-1.384279774E0,2.756008191E0
3.507871208E0,-1.713812768E0,-5.670313990E-1,-9.812990266E-1,2.054659726E0
3.517841208E0,-2.569753046E0,1.918868482E0,1.827856570E0,3.691442348E0
3.527812208E0,-1.858307846E0,3.492395144E0,4.364433099E0,5.890535474E0
3.537782208E0,-1.717254147E0,2.430727893E0,3.617538423E0,4.684440643E0
3.547753208E0,-2.470022863E-1,-1.649312425E-1,6.295071441E-1,6.960543719E-1
3.557723208E0,2.244674095E-1,-2.163984346E0,-2.127236935E0,3.042753826E0
3.567693208E0,-3.581638858E-1,-1.681896034E0,-2.856766550E0,3.334392112E0
3.577664208E0,-9.402600512E-1,-3.285404295E-1,-1.703431914E0,1.973248100E0
3.587634208E0,-1.514457798E0,6.036396468E-1,1.346987987E0,2.114790741E0
3.597604208E0,-2.294706308E0,-4.793167323E-1,7.226437000E0,7.597158237E0
3.607575208E0,-3.104868588E0,-4.644052799E0,2.653473948E1,2.711641264E1
3.617545208E0,9.432753141E-1,-2.854765048E0,1.938358538E1,1.961537239E1
3.627515208E0,2.560177353E0,-7.543105243E0,1.855703701E1,2.019446873E1
3.637486208E0,4.895936523E-1,-4.932258550E0,7.051664894E0,8.619330259E0
3.647456208E0,-2.559638240E0,-1.222549297E0,-8.975918661E0,9.413473881E0
3.657427208E0,-1.094336742E0,-3.906287965E0,-6.339509110E0,7.526355980E0
3.667397208E0,-7.012539420E-1,-4.897185489E0,-1.291955162E1,1.383434122E1
3.677367208E0,1.265576764E0,-3.224946424E0,-1.434927303E1,1.476155820E1
3.687338208E0,1.867062151E0,-4.423611599E-1,-1.035801976E1,1.053423836E1
3.697308208E0,3.221977208E0,2.126912999E-1,-7.962720734E0,8.592513963E0
3.707278208E0,2.050542808E0,-2.821233898E0,-6.261532981E0,7.167348309E0
3.717249208E0,2.461545350E0,-3.604609352E0,-2.403506180E0,4.982896351E0
3.727219208E0,2.057499533E0,-8.582057816E-1,7.114716589E-2,2.230444666E0
3.737189208E0,1.374714314E0,1.608880683E0,-1.434132550E0,2.556378819E0
3.747160208E0,1.868700687E-2,5.835190853E-1,-3.784952393E0,3.829713873E0
3.757130208E0,-1.140603932E-1,-5.953368929E-1,-7.823537121E0,7.846984699E0
3.767101208E0,1.655483868E0,-1.186278726E0,-9.326313643E0,9.546099215E0
3.777071208E0,6.977507289E-1,-1.258486285E0,-1.009940911E1,1.020140716E1
3.787041208E0,1.456365418E0,-1.746060747E0,-9.776924055E0,1.003782707E1
3.797012208E0,2.271782737E0,-1.124146797E0,-7.198013685E0,7.631258339E0
3.806982208E0,8.923204111E-1,1.194427406E0,-5.986428502E0,6.169296455E0
3.816952208E0,5.858807757E-1,3.626223292E0,-7.826425645E0,8.645558977E0
3.826923208E0,-6.845554635E-3,4.032193721E0,5.510103205E0,6.827874515E0
3.836893208E0,6.076151687E-1,-8.915185386E-1,4.726682376E1,4.727913525E1
3.846863208E0,1.695206782E0,7.471587948E0,4.904806340E1,4.964283308E1
3.856834208E0,-2.107103510E0,8.881777904E0,-1.364171784E0,9.229671099E0
3.866804208E0,1.380730514E0,-8.144943362E0,-2.515517548E1,2.647695928E1
3.876775208E0,3.826303318E0,-2.214159070E1,-5.825790870E0,2.321272227E1
3.886745208E0,4.101696065E0,-1.763121461E1,-9.704436707E-1,1.812802802E1
3.896715208E0,-1.210272703E0,-3.169883779E-1,2.518144936E0,2.811813572E0
3.906686208E0,-2.853788855E0,4.630541345E0,6.797564782E0,8.705912413E0
3.916656208E0,-1.747613329E0,1.088492815E0,3.154931279E0,3.767301465E0
3.926626208E0,-8.140737753E-1,-2.410695916E0,8.123618567E-1,2.670974111E0
3.936597208E0,-4.194238120E-1,-2.431804073E0,-2.787298704E0,3.722716944E0
3.946567583E0,2.139481882E0,-1.803445906E0,-2.452551455E0,3.720861258E0
3.956538583E0,2.350521928E0,-5.224522269E-1,-5.331789440E-1,2.466209531E0
3.966508583E0,2.284436404E0,7.607747966E-1,-4.273729920E-2,2.408164125E0
3.976478583E0,1.574273644E0,-1.979468732E0,7.370310080E-1,2.634359253E0
3.986449583E0,-2.686852968E-1,-3.952229831E0,-3.617841893E-1,3.977838637E0
3.996419583E0,-3.317639629E-1,-5.931448302E0,-1.079242228E0,6.037955786E0
4.006389583E0,1.977211488E-1,-6.723850688E0,-1.670388713E0,6.931050439E0
4.016360583E0,3.858802361E-1,-3.531352218E0,-1.615066452E0,3.902280319E0
4.026330583E0,7.432550767E-1,-2.658135465E-1,-1.795174727E0,1.961055138E0
4.036301583E0,-3.814379968E-2,-1.781544868E0,-2.245929565E0,2.866976923E0
4.046271583E0,-3.982840078E-1,-7.542617000E0,-2.004989197E0,7.814709403E0
4.056241583E0,-1.139483021E0,-4.214578317E0,-2.895837060E0,5.238985038E0
4.066212583E0,-1.679278235E0,1.841227983E1,-3.977889460E0,1.891178544E1
4.076182583E0,-2.300035606E0,3.486555530E1,2.697628729E0,3.504531796E1
4.086152583E0,-2.123731675E0,1.559174672E1,1.182940609E1,1.968622997E1
4.096123583E0,3.352986998E0,-1.333947175E1,1.081909377E1,1.749962338E1
4.106093583E0,2.076933339E0,-2.154945720E1,-1.757228637E-1,2.165002625E1
4.116064583E0,1.829930285E0,-1.989664113E1,-1.161340059E1,2.311051809E1
4.126034583E0,6.048506051E-1,4.904716410E0,-1.304765476E1,1.395218198E1
4.136004583E0,-2.418321270E0,8.455856191E0,-2.018628997E0,9.023560534E0
4.145975583E0,-2.456992123E0,5.214853898E0,9.438524635E0,1.105971332E1
4.155945583E0,-1.555627312E0,1.493095872E0,1.283183520E1,1.301173725E1
4.165915583E0,-6.700359499E-1,-1.684600956E0,4.901846597E0,5.226368587E0
4.175886583E0,1.764512806E0,-3.103423741E0,-5.878697062E0,6.877777512E0
4.185856583E0,1.716617678E0,-2.808952406E0,-7.435482561E0,8.131629036E0
4.195826583E0,6.688749122E-1,-1.662772715E-2,-1.141264814E0,1.322934429E0
4.205797583E0,-1.197087670E0,2.310373191E0,4.609556565E0,5.293283943E0
4.215767583E0,-1.881777692E0,1.319223068E0,4.515041002E0,5.066264110E0
4.225738583E0,-1.924836881E0,-6.466725227E-1,1.607570322E0,2.589877354E0
4.235708583E0,-4.701797635E-1,-7.926459226E-1,-9.149547637E-1,1.298652682E0
4.245678583E0,3.314701038E-1,-9.751723140E-2,-1.771767154E0,1.805142899E0
4.255649583E0,1.466316502E0,-9.543927714E-1,-2.097474607E0,2.731364013E0
4.265619583E0,1.097490657E0,-1.963243586E0,-1.081351318E0,2.495622526E0
4.275589583E0,5.419225414E-1,-1.157770626E0,4.635397750E-1,1.359772770E0
4.285560583E0,-2.833417448E-1,9.915240526E-1,1.474176621E0,1.799055086E0
4.295530583E0,-1.266670632E0,1.735480210E0,1.295666390E0,2.509003277E0
4.305501583E0,-8.979462366E-1,4.969887722E-1,-1.091090441E-1,1.032090145E0
4.315471583E0,-1.146443912E0,-5.275416434E-1,-1.459408309E0,1.929379807E0
4.325441583E0,-3.796165891E-1,7.884005517E-2,-1.513316714E0,1.562194605E0
4.335412583E0,-1.371266211E0,1.334758535E-1,-4.849230427E-1,1.460594804E0
4.345382583E0,-1.662119289E0,-6.769508672E-1,-6.547536671E-2,1.795881408E0
4.355352583E0,-1.894702524E0,-1.462588317E0,4.132005107E-1,2.428949753E0
4.365323583E0,-2.617312544E0,-6.286461416E-1,1.362543334E0,3.016959606E0
4.375293583E0,-2.438998487E0,4.445807630E-1,1.763301555E0,3.042301439E0
4.385264583E0,-1.802920680E0,4.136171249E-1,1.346366428E0,2.287860280E0
4.395234583E0,-1.118611969E0,-9.645596176E-2,3.202017152E-1,1.167529712E0
4.405204583E0,-8.924628639E-1,-8.060649902E-2,2.864024699E-2,8.965531969E-1
4.415175583E0,-9.990944427E-1,3.207253334E-1,3.644212836E-1,1.110791302E0
4.425145583E0,-1.263618386E0,6.192522973E-2,4.250393683E-1,1.334625275E0
4.435115583E0,-1.496825227E0,-3.210486844E-1,4.402538234E-1,1.592916020E0
4.445086583E0,-1.395619133E0,-2.889325601E-1,7.699952710E-1,1.619915895E0
4.455056583E0,-1.569460509E0,7.091298491E-2,5.047924662E-1,1.650166772E0
4.465026583E0,-1.592823498E0,3.081672683E-1,-1.272195082E0,2.061682343E0
4.474997583E0,-1.284668655E0,-8.968079299E-2,-1.809450120E0,2.220929070E0
4.484967583E0,-4.796899308E-1,-4.483039775E-1,-1.126491823E0,1.303864530E0
4.494938583E0,-5.036052256E-1,-4.374994925E-1,-5.551276374E-1,8.678656134E-1
4.504908583E0,-1.023946425E0,1.470054334E-1,6.869227087E-1,1.241748641E0
4.514878583E0,-6.965286608E-1,5.809919187E-1,3.376790428E-1,9.678486043E-1
4.524849583E0,-9.495376090E-1,2.575751120E-1,2.825620186E-1,1.023624884E0
4.534819583E0,-1.485469349E0,-5.515207824E-1,1.376445674E0,2.098903775E0
4.544789583E0,-1.786831920E0,-8.192077768E-1,2.989255686E0,3.577641576E0
4.554760583E0,-2.502550704E0,-9.038316053E-1,3.145801436E0,4.120162409E0
4.564730583E0,-2.421661200E0,-4.668773657E-1,2.145507145E-1,2.475570530E0
4.574701583E0,-2.692619127E0,1.097230017E-3,-2.565771677E0,3.719325646E0
4.584671583E0,-1.743152342E0,7.937291193E-1,-2.953280692E0,3.520007506E0
4.594641583E0,-2.345322876E0,4.097512382E-1,-1.402380415E0,2.763169611E0
4.604612583E0,-2.185078177E0,1.698975751E-1,6.993743545E-1,2.300555653E0
4.614582583E0,-1.878072896E0,-3.085464603E-1,2.160526888E0,2.879276846E0
4.624552583E0,-2.346876189E0,-4.414253131E-1,1.736082766E0,2.952400299E0
4.634523583E0,-1.910691150E0,-4.885217115E-1,7.271673399E-1,2.101943500E0
4.644493583E0,-1.098831131E0,-8.271161360E-1,5.607316089E-1,1.485251122E0
4.654464583E0,2.384032430E-1,-1.066142418E0,6.510319144E-1,1.271746168E0
4.664434583E0,9.023906321E-1,-1.654614387E0,1.176513584E0,2.221765477E0
4.674404583E0,2.076418345E0,-1.382965320E0,7.632756507E-1,2.608964534E0
4.684375583E0,1.995235749E0,-1.406037263E0,3.586898428E-1,2.467096448E0
4.694345583E0,2.065282323E0,-1.669706343E0,9.932244229E-1,2.835455008E0
4.704315583E0,2.141914031E0,-1.783653666E0,1.012008018E0,2.965362768E0
4.714286583E0,1.698166496E0,-1.360294788E0,7.279982293E-1,2.294374159E0
4.724256583E0,1.302917815E0,-1.613732994E0,7.092099559E-1,2.191964363E0
4.734226583E0,3.986486913E-1,-1.978160418E0,7.943115020E-1,2.168633251E0
4.744197583E0,-3.149213140E-1,-2.147976424E0,4.970215166E-1,2.227107663E0
4.754167583E0,-1.078868006E0,-2.176247712E0,6.744371492E-1,2.520887888E0
4.764138583E0,-1.304741123E0,-1.841639042E0,9.170913363E-1,2.436193809E0
4.774108583E0,-9.729053485E-1,-1.780921555E0,7.004724616E-1,2.146832101E0
4.784078583E0,-7.596009681E-1,-2.013786918E0,5.054777598E-1,2.210845799E0
4.794049583E0,-3.451937382E-1,-2.277328236E0,7.526828349E-1,2.423203265E0
4.804019583E0,-7.072804844E-2,-2.840043221E0,1.342397338E0,3.142113710E0
4.813990583E0,8.631221205E-2,-2.200378001E0,1.228225189E0,2.521438134E0
4.823960583E0,3.328178870E-1,-1.198221956E0,5.238912266E-1,1.349431592E0
4.833930583E0,7.825104321E-1,-5.900872627E-1,-1.555511391E-1,9.923314521E-1
4.843901583E0,1.208303872E0,-2.058275458E-1,-1.584876108E-1,1.235913245E0
4.853871583E0,1.080222513E0,-4.565099600E-1,-1.602797824E-1,1.183626474E0
4.863841583E0,1.029183557E0,-1.008551729E0,2.678270352E-1,1.465648902E0
4.873812583E0,8.217593555E-1,-6.273501062E-1,-1.911460644E-1,1.051376912E0
4.883782583E0,8.845419332E-1,-3.122655818E-1,-4.562167221E-1,1.043100150E0
4.893752583E0,1.051282012E0,7.232421041E-3,-6.978780520E-1,1.261855757E0
4.903723583E0,1.197400569E0,1.460517526E-1,-4.044121456E-1,1.272261145E0
4.913693583E0,8.312805229E-1,-1.831318706E-2,4.400848389E-1,9.407642351E-1
4.923664583E0,8.336992237E-1,-9.803354055E-2,3.400495040E-1,9.057033929E-1
4.933634583E0,1.290833155E-1,-2.358494899E-1,4.694144726E-2,2.729303641E-1
4.943604833E0,3.497689652E-1,-5.500996166E-1,1.259601349E-1,6.639381544E-1
4.953575833E0,1.191181470E0,-5.168225276E-1,-2.248622793E-1,1.317794318E0
4.963545833E0,8.676143170E-1,-6.461421803E-1,-1.810654646E-1,1.096831356E0
4.973515833E0,8.533218947E-1,-1.615068206E-1,3.309635156E-1,9.293974165E-1
4.983486833E0,7.104098046E-1,6.594051272E-2,1.148053431E0,1.351686695E0
4.993456833E0,6.348593929E-1,-6.736460209E-1,1.625213125E0,1.870337700E0
5.003427833E0,2.299044795E-1,-9.920368534E-1,9.973940724E-1,1.425408055E0
5.013397833E0,7.433514096E-1,-5.561503154E-1,5.068313903E-1,1.057710995E0
5.023367833E0,1.183722762E0,-3.926601192E-1,5.124610895E-1,1.348331530E0
5.033338833E0,1.456129483E0,-1.275055540E-1,-4.260638005E-1,1.522531149E0
5.043308833E0,1.469785947E0,1.525050321E-1,-9.807166439E-1,1.773508853E0
5.053278833E0,8.630618942E-1,1.821407676E-2,-1.032345804E0,1.345713731E0
5.063249833E0,2.007400297E0,-1.653288531E-1,-1.435140610E-1,2.019303312E0
5.073219833E0,6.017747504E-1,-2.406173095E-1,8.139680868E-1,1.040467965E0
5.083190833E0,1.970123931E-1,-5.782545447E-2,7.270205748E-1,7.554578628E-1
5.093160833E0,8.112997100E-2,-2.986687589E-1,7.064635187E-1,7.712819219E-1
5.103130833E0,1.487862395E-1,-3.871970657E-1,5.644445908E-1,7.004688493E-1
5.113101833E0,2.841696375E-1,-5.888578856E-1,2.961719978E-1,7.177909477E-1
5.123071833E0,4.315852531E-1,-4.691609958E-1,-8.113245606E-2,6.426199079E-1
5.133041833E0,-3.978979454E-1,-7.488075927E-1,1.960109478E-1,8.703194112E-1
5.143012833E0,-8.312575726E-1,-4.361207190E-1,1.867565596E-1,9.571146463E-1
5.152982833E0,-7.305772899E-1,1.276710302E-2,-7.463327587E-2,7.344905046E-1
5.162953833E0,-9.832134781E-1,-4.216397971E-2,-2.101343125E-1,1.006301632E0
5.172923833E0,-9.145492592E-1,-5.891423526E-1,-3.890059018E-1,1.155341790E0
5.182893833E0,-1.757658992E0,-1.018651040E0,-2.857259470E-1,2.051500522E0
5.192864833E0,-2.073626300E0,-1.144451838E0,5.339893681E-1,2.427929300E0
5.202834833E0,-2.194684275E0,-5.694226179E-1,2.863176852E-1,2.285357522E0
5.212804833E0,-1.842600763E0,-1.566249803E-1,1.755708361E-1,1.857561324E0
5.222775833E0,-1.366185565E0,-3.283612123E-1,1.274184304E-1,1.410857732E0
5.232745833E0,-8.095033722E-1,-2.835016662E-1,4.555092090E-1,9.711629852E-1
5.242716833E0,-7.160768529E-1,-4.178829610E-2,8.595833856E-1,1.119551659E0
5.252686833E0,-6.683099981E-1,-4.735838297E-1,1.995569333E0,2.157131628E0
5.262656833E0,-6.582768338E-1,-4.813059551E-1,2.073327361E0,2.227929567E0
5.272627833E0,-3.648229508E-1,-3.126129064E-1,1.049569362E0,1.154304319E0
5.282597833E0,-4.125346956E-1,6.365629792E-2,-8.326177812E-1,9.313910934E-1
5.292567833E0,-1.745054368E-1,2.428784278E-1,-1.760142304E0,1.785369152E0
5.302538833E0,-7.542509850E-2,-6.680794716E-2,-1.799939039E0,1.802756997E0
5.312508833E0,-4.373317870E-1,-2.612989113E-1,-6.489456278E-1,8.250252365E-1
5.322479833E0,-1.130304062E0,4.820473820E-2,8.134260499E-1,1.393403354E0
5.332449833E0,-1.184561545E0,2.771717629E-1,1.014703585E0,1.584182314E0
5.342419833E0,-1.144014467E0,2.567056310E-1,-2.310106266E-1,1.195003260E0
5.352390833E0,-6.686894093E-1,1.369622558E-1,-1.622264374E0,1.760013036E0
5.362360833E0,-4.948078704E-1,-1.593427661E-1,-1.270787072E0,1.372998444E0
5.372330833E0,-4.870349839E-1,-3.100152808E-1,-6.200902033E-1,8.472451889E-1
5.382301833E0,-6.082164086E-1,-3.954290682E-1,2.071025312E-2,7.257549602E-1
5.392271833E0,-1.016799227E0,-7.654160240E-1,5.739083093E-1,1.396106409E0
5.402242833E0,-8.967280423E-1,-1.125144040E0,7.869820172E-1,1.639942373E0
5.412212833E0,-1.070062391E0,-1.573571394E0,9.155289602E-1,2.111718194E0
5.422182833E0,-1.554645419E0,-1.158852946E0,5.467368829E-1,2.014642337E0
5.432153833E0,-4.336046987E-1,-1.968245879E-1,6.141003156E-1,7.770921121E-1
5.442123833E0,1.033051344E-1,-3.424974409E-1,3.408862406E-1,4.941456029E-1
5.452093833E0,-3.593587643E-1,-8.663652787E-1,-3.861618161E-1,1.014321678E0
5.462064833E0,-2.940941897E-1,-9.803859839E-1,-6.324909782E-1,1.203201108E0
5.472034833E0,3.486755358E-1,-9.601873621E-1,1.816671431E-1,1.037563179E0
5.482005833E0,-2.514456951E-1,-8.423440397E-1,1.481567502E0,1.722733491E0
5.491975833E0,-3.896118926E-1,-1.672037628E-1,1.992893062E0,2.037492891E0
5.501945833E0,-2.465617899E-1,1.358694112E-1,2.166980460E0,2.185190501E0
5.511916833E0,-4.454804302E-1,-3.145106202E-1,1.709199607E0,1.794082786E0
5.521886833E0,-3.627337041E-1,-5.767149729E-1,3.596119487E-1,7.703873400E-1
5.531856833E0,-3.647505549E-1,-8.060649902E-1,-9.564202935E-1,1.302890446E0
5.541827833E0,-1.324730377E-1,-1.120641099E0,-1.038225179E0,1.533393981E0
5.551797833E0,2.047368208E-1,-8.794969556E-1,1.047405893E-1,9.090669127E-1
5.561768833E0,3.548017368E-3,-4.467740536E-1,1.863108848E0,1.915931686E0
5.571738833E0,-8.620292393E-2,6.490789443E-2,2.288811876E0,2.291354137E0
5.581708833E0,4.878474545E-2,-1.787230700E-2,9.869059217E-1,9.882725682E-1
5.591679833E0,2.027564603E-1,-1.449653399E-1,3.635740221E-2,2.518868648E-1
5.601649833E0,7.502666192E-1,-4.320098341E-2,-4.392668134E-1,8.704720893E-1
5.611620833E0,7.744903911E-1,2.536279491E-1,-1.105483947E0,1.373410812E0
5.621590833E0,9.587174452E-1,3.300820479E-1,-1.216381069E0,1.583564398E0
5.631560833E0,9.056501625E-1,3.230145183E-1,-1.662406095E0,1.920451671E0
5.641531833E0,5.797139367E-1,-2.964050093E-1,-1.228858443E0,1.390689487E0
5.651501833E0,3.668346488E-1,-9.393233272E-1,1.464353299E-1,1.018989342E0
5.661471833E0,-1.526684983E-1,-5.244367719E-1,6.080309057E-1,8.173390853E-1
5.671442833E0,-2.966616656E-1,-1.788423532E-1,9.719288635E-1,1.031813184E0
5.681412833E0,-8.322173931E-2,-1.468934593E-1,5.344179690E-2,1.770863403E-1