"Time (s)","Linear Acceleration x (m/s^2)","Linear Acceleration y (m/s^2)","Linear Acceleration z (m/s^2)","Absolute acceleration (m/s^2)"
4.765708291E-3,-3.242639952E-1,-1.520315538E0,1.424744260E-1,1.561027046E0
1.473570830E-2,-4.345701105E-1,-2.099138140E0,4.976740658E-1,2.200661625E0
2.470670833E-2,-4.046368249E-2,-1.632154647E0,3.003638667E-1,1.660055588E0
3.467670828E-2,-1.752612991E-1,3.031027317E0,-7.139941478E-1,3.118914998E0
4.464770830E-2,-3.517820153E-1,6.940708714E0,-3.460602663E0,7.763566116E0
5.461770832E-2,-8.124268339E-1,5.669142208E0,-2.660798872E0,6.314987044E0
6.458870828E-2,-1.843583241E0,2.590634330E0,2.931109804E-1,3.193133171E0
7.455970830E-2,-2.369619811E0,-7.949719450E-1,3.171539710E0,4.038036971E0
8.452970831E-2,-2.911997010E0,-2.653820220E0,3.386132525E0,5.195034342E0
9.450070828E-2,-2.266143682E0,-2.145754190E0,2.661022235E0,4.101305593E0
1.044707083E-1,-1.730411552E0,-1.058139919E0,1.283531079E0,2.400299201E0
1.144417083E-1,-2.748641227E-1,-9.196603104E-1,5.567455035E0,5.649591219E0
1.244125833E-1,-3.662480269E-1,3.456476283E-1,3.883638191E0,3.916153150E0
1.343825833E-1,1.933135980E0,1.143079205E0,9.890454179E-1,2.453946948E0
1.443535833E-1,3.209915279E0,1.442491145E0,-2.284296656E0,4.195515226E0
1.543235833E-1,1.848708472E0,2.524471916E0,-7.320489464E0,7.961171236E0
1.642945833E-1,1.220932908E0,5.475660181E-1,-7.358347262E0,7.479022672E0
1.742645833E-1,1.390187399E-1,-1.581706625E0,-4.692381790E0,4.953742921E0
1.842355833E-1,4.232603895E-1,-1.861229261E0,1.249858718E0,2.281550029E0
1.942065833E-1,3.401646942E-1,-2.011800911E0,6.375862420E0,6.694376485E0
2.041765833E-1,4.462581830E-1,-9.780418351E-1,6.207887701E0,6.300284272E0
2.141475833E-1,-3.261358351E-1,-6.807919031E-1,2.059653647E0,2.193630631E0
2.241175833E-1,-5.964971632E-1,-2.733060517E0,-8.620707911E-1,2.927216204E0
2.340885833E-1,-1.604797389E-1,-3.037187651E0,-1.202607368E0,3.270554549E0
2.440585833E-1,2.047841650E-1,-5.995296389E-2,-2.246227189E0,2.256339402E0
2.540295833E-1,6.654013737E-1,1.162715617E0,-2.003699301E0,2.410285768E0
2.640005833E-1,4.977622491E-1,6.042021489E-1,-2.809963097E0,2.916971049E0
2.739705833E-1,7.932074015E-1,-1.542353694E0,-2.681958776E0,3.193890382E0
2.839415833E-1,6.277158496E-1,-1.138851083E0,-2.340234044E0,2.677256872E0
2.939115833E-1,4.397346272E-1,5.631704825E-1,3.215828276E-1,7.835451804E-1
3.038825833E-1,6.683804570E-1,2.028404665E0,1.957858300E-1,2.144642164E0
3.138535833E-1,9.657157584E-1,2.027409469E0,8.835318267E-1,2.413218715E0
3.238235833E-1,7.290288741E-1,1.769720628E0,-1.735699189E-1,1.921853459E0
3.337945833E-1,5.475495728E-1,1.635693675E0,1.553974158E0,2.321667508E0
3.437645833E-1,8.874457336E-1,1.233221635E0,9.812797308E-3,1.519372180E0
3.537355833E-1,2.019855743E0,8.212946481E-1,7.079972434E-1,2.292510026E0
3.637055833E-1,1.458583998E0,2.117108680E0,-3.721349305E-1,2.597710694E0
3.736765833E-1,5.097971711E-1,3.134616005E0,-3.122720137E0,4.453885013E0
3.836475833E-1,6.149481618E-1,1.761238365E0,-2.530162134E0,3.143539763E0
3.936175833E-1,5.029991982E-1,1.094735595E0,-2.702081383E0,2.958495905E0
4.035885833E-1,2.986969717E-2,9.615866008E-1,-1.980565962E0,2.201858878E0
4.135585833E-1,6.283798740E-1,7.787511840E-1,8.360582829E-1,1.303958636E0
4.235295833E-1,7.033386936E-1,2.158466621E0,6.415582556E-1,2.359080429E0
4.335005833E-1,7.701606010E-1,3.420747164E0,-1.437189474E0,3.789481772E0
4.434705833E-1,1.786487812E0,2.874690020E-1,1.533357460E0,2.371784609E0
4.534415833E-1,2.245221906E0,-2.808330262E0,3.036398277E0,4.706108240E0
4.634115833E-1,1.920067161E0,-1.808551987E0,1.703955824E0,3.140220318E0
4.733825833E-1,1.437161261E0,6.233055872E-1,1.810482738E0,2.394115722E0
4.833535833E-1,-2.802196423E-1,2.665327832E0,-7.451878738E-1,2.781690218E0
4.933235833E-1,-6.318109471E-1,3.764022285E-1,-1.119454699E0,1.339418730E0
5.032945833E-1,-8.463324255E-1,-9.591836876E-1,-9.844226092E-1,1.614125086E0
5.132645833E-1,5.275622183E-1,1.177940304E0,-2.057823468E0,2.429095034E0
5.232355833E-1,2.225731821E0,1.257522956E0,1.979342140E0,3.233116365E0
5.332055833E-1,1.680091583E0,1.547123560E-1,4.087119541E0,4.421672736E0
5.431765833E-1,2.057520583E0,-7.189452776E-1,3.584071884E0,4.194740103E0
5.531475833E-1,2.626967174E0,5.917429018E-1,1.370342935E0,3.021416217E0
5.631175833E-1,3.536540745E0,3.221469377E0,-4.363913866E0,6.475239735E0
5.730885833E-1,2.844340047E0,1.694454684E0,-7.641457749E0,8.327864283E0
5.830585833E-1,1.204473653E0,-8.156365898E-1,-6.485729263E0,6.646856693E0
5.930295833E-1,8.938911194E-1,-2.567110105E0,3.197982574E-1,2.737036088E0
6.030005833E-1,9.230902141E-1,-4.033271948E-1,5.093603110E0,5.192259721E0
6.129705833E-1,3.827064040E-1,3.023984054E0,-2.936430770E-1,3.062216518E0
6.229415833E-1,-2.683172146E-2,1.766090969E0,-2.596495287E0,3.140316071E0
6.329115833E-1,1.179109090E0,-1.332065892E-1,1.169605098E0,1.666138748E0
6.428825833E-1,2.597633447E0,-4.705690053E-1,6.939604175E0,7.424772106E0
6.528525833E-1,3.780988273E0,1.666024936E0,5.540517497E0,6.911500962E0
6.628235833E-1,2.314680104E0,4.305865341E0,-4.295946416E0,6.507947136E0
6.727945833E-1,-1.536492738E0,6.826972184E-1,-5.502369093E0,5.753516408E0
6.827645833E-1,-2.634124166E0,-1.847104142E0,-1.966087672E0,3.770398462E0
6.927355833E-1,-3.004071068E0,3.433508420E-1,1.742687196E0,3.489884160E0
7.027055833E-1,-3.945134527E0,4.509296697E-1,3.981580807E0,5.623202800E0
7.126765833E-1,-2.166024294E0,-7.274772424E-1,3.154430757E0,3.895037584E0
7.226475833E-1,-2.022299733E-1,-3.903279573E-2,3.672742571E0,3.678513084E0
7.326175833E-1,-6.041094705E-1,2.601846951E0,-1.943350189E0,3.303205377E0
7.425885833E-1,3.809207009E-2,1.287300194E0,-5.782348396E0,5.924031209E0
7.525585833E-1,1.160877471E0,-1.299286694E0,-3.234950425E0,3.674328057E0
7.625295833E-1,8.644523621E-2,-5.846622160E-1,-2.491988586E0,2.561114952E0
7.725005833E-1,2.738435643E-1,-1.260342776E0,1.613911042E0,2.065953306E0
7.824705833E-1,9.806362447E-1,-1.725831428E0,4.143498979E0,4.594423288E0
7.924415833E-1,6.918579049E-1,-7.715608630E-1,3.779799242E0,3.919292772E0
8.024115833E-1,1.266827192E0,-3.449942020E-1,-5.010023010E-1,1.405302614E0
8.123825833E-1,3.981933394E-1,-6.249992332E-1,-4.508936509E0,4.569429988E0
8.223535833E-1,7.918311131E-1,-1.586560983E0,-2.234314072E0,2.852425571E0
8.323235833E-1,5.880433685E-1,-2.359008869E0,3.396403159E0,4.176873504E0
8.422945833E-1,1.142611866E0,-7.236040467E-1,6.644349605E0,6.780600738E0
8.522645833E-1,8.948189264E-1,2.804845029E0,4.195200060E0,5.125188786E0
8.622355833E-1,1.305327160E0,1.114989765E0,7.885139877E-1,1.889136173E0
8.722065833E-1,4.451704547E-1,-1.411314375E0,-2.204514322E0,2.655158827E0
8.821765833E-1,3.740126176E-1,-5.023050606E-2,-3.766952909E0,3.785808073E0
8.921475833E-1,1.353449745E0,2.267722138E0,-2.997481549E0,3.994907451E0
9.021175833E-1,4.503305859E-1,2.750666191E0,-2.217802704E0,3.561967288E0
9.120885833E-1,5.701905034E-2,1.595503715E0,-3.069459604E0,3.459836056E0
9.220595833E-1,4.018341813E-1,1.713756635E0,-4.285268816E0,4.632705617E0
9.320295833E-1,-3.096137233E-2,5.953000554E-1,-1.989357251E0,2.076748188E0
9.420005833E-1,7.699011308E-1,-6.658572373E-1,1.784986539E0,2.054821295E0
9.519705833E-1,6.147766922E-1,-9.615325141E-1,4.531269949E0,4.672783165E0
9.619415833E-1,-7.948979777E-1,-1.113677650E0,1.383310305E0,1.945684482E0
9.719115833E-1,3.387788310E-1,2.600426370E-1,-2.849556348E0,2.881382420E0
9.818825833E-1,6.339953206E-1,5.321936882E-1,-2.326009523E0,2.468906739E0
9.918535833E-1,8.156811748E-1,-1.660369802E0,3.466541095E0,3.929258305E0
1.001823583E0,2.013218715E0,-3.336985508E-1,4.111521142E0,4.590099173E0
1.011794583E0,2.438564623E0,6.867353055E-1,2.175143173E0,3.339079308E0
1.021764583E0,1.307936772E0,1.467022553E-1,-6.098797953E-1,1.450576960E0
1.031735583E0,1.164367747E-1,9.837840933E-1,-3.936237404E0,4.058984302E0
1.041706583E0,-5.849156928E-1,-8.919167340E-2,-3.709801639E0,3.756688664E0
1.051676583E0,-1.722065236E0,-1.609312207E0,-8.885779738E-2,2.358662792E0
1.061647583E0,-1.351038499E0,-3.630857795E-1,2.309074817E0,2.699807922E0
1.071617583E0,-6.451402599E-1,1.651402512E0,1.284761918E0,2.189508939E0
1.081588583E0,-6.580369518E-1,1.957023610E0,-1.886945023E0,2.797054801E0
1.091559583E0,-3.894771874E-2,-7.729826134E-1,-4.303492833E0,4.372535833E0
1.101529583E0,9.980024752E-1,3.527633974E-1,-4.806400157E0,4.921578346E0
1.111500583E0,1.197933762E0,3.619296973E0,-4.163269000E0,5.645100942E0
1.121470583E0,1.119380732E0,8.952519858E-1,-3.570970613E-1,1.477162026E0
1.131441458E0,-3.537336697E-1,2.054003190E0,1.855568864E0,2.790554142E0
1.141412458E0,8.087605566E-2,1.034717435E-1,4.012206184E0,4.014354967E0
1.151382458E0,-5.137620219E-1,-1.517474961E0,4.317772318E0,4.605414147E0
1.161353458E0,6.381695017E-1,-6.528936678E-1,2.853304998E0,2.995810386E0
1.171323458E0,1.204316217E0,6.800724033E-1,-6.089898491E-1,1.511206359E0
1.181294458E0,8.208784725E-1,1.200279299E0,-2.475734496E0,2.871197165E0
1.191265458E0,1.842757468E0,1.024263198E0,-6.240399975E-1,2.198703278E0
1.201235458E0,1.533709463E0,6.727455497E-1,1.375549881E0,2.167253738E0
1.211206458E0,2.050200600E0,4.513994935E-1,3.113518374E0,3.755140565E0
1.221176458E0,8.842978851E-1,9.141531104E-1,3.626127983E0,3.842715551E0
1.231147458E0,1.308739010E0,9.862741300E-1,1.578306761E0,2.275211350E0
1.241118458E0,1.772545857E0,1.071042970E0,1.072642475E0,2.332297952E0
1.251088458E0,1.447843540E0,-1.736330688E-2,1.404876591E0,2.017481260E0
1.261059458E0,7.505088401E-1,-1.423346776E0,-1.693412125E-2,1.609181881E0
1.271029458E0,3.885981316E-1,-1.398691699E0,-1.680255890E-2,1.451767647E0
1.281000458E0,-9.366406247E-2,2.763914520E-1,-8.875295681E-1,9.342772209E-1
1.290971458E0,2.685971135E-1,4.884974456E-1,-2.641290221E0,2.699479245E0
1.300941458E0,8.774331077E-1,5.674830964E-1,-5.599586070E0,5.696252283E0
1.310912458E0,1.960370995E0,5.048024064E-1,-6.837673758E0,7.131035151E0
1.320882458E0,2.079511668E0,-1.396159562E0,-7.043785186E0,7.475863833E0
1.330853458E0,1.370637050E0,-3.376914974E0,-3.237560037E0,4.874832885E0
1.340824458E0,5.625375945E-1,-3.254297985E0,1.719307689E0,3.723294623E0
1.350794458E0,1.445642940E-1,-1.441165873E0,5.590291920E0,5.774878498E0
1.360765458E0,6.173285633E-2,-4.895955527E-1,6.612089932E0,6.630478717E0
1.370735458E0,4.884581231E-2,6.510845393E-2,3.280271024E0,3.281280697E0
1.380706458E0,3.209077665E-1,6.389281780E-1,8.213256383E-1,1.088938389E0
1.390677458E0,1.790925410E-1,1.485484259E0,-1.099922660E0,1.857031901E0
1.400647458E0,1.081285976E0,2.071404212E0,-1.763815525E0,2.927616774E0
1.410618458E0,6.964394177E-1,2.395382643E0,-7.047222179E-1,2.592203556E0
1.420588458E0,1.470495068E-1,1.884567545E0,2.073327945E0,2.805691922E0
1.430559458E0,-2.188104111E-1,2.068475634E0,2.897160285E0,3.566511904E0
1.440530458E0,4.292024396E-2,1.501026451E0,1.454997754E0,2.090918702E0
1.450500458E0,3.517016527E-1,3.129643241E-1,3.081225371E-1,5.626546174E-1
1.460471458E0,8.796850897E-1,2.240354830E-1,-5.062139243E-1,1.039370142E0
1.470441458E0,1.452543385E0,4.958935887E-2,1.130469684E0,1.841277572E0
1.480412458E0,1.124935002E0,7.177223325E-2,1.527382191E0,1.898295648E0
1.490383458E0,1.087931702E0,1.477714772E0,1.316018794E0,2.258127941E0
1.500353458E0,1.176695871E0,1.515477844E0,-3.136528337E-1,1.944135893E0
1.510324458E0,1.126054963E0,-7.968918782E-1,-1.826658475E0,2.289042951E0
1.520294458E0,6.798390263E-1,-1.874738083E0,-3.498509578E0,4.026958312E0
1.530265458E0,-1.862458053E-1,-1.295143649E0,-4.183545390E0,4.383393275E0
1.540236458E0,-1.092055816E0,-1.367310277E0,-2.505579270E0,3.056149665E0
1.550206458E0,-7.257751179E-1,-2.758383346E0,1.335562527E-2,2.852298473E0
1.560177458E0,2.262254845E-2,-3.526194682E0,4.282734632E-2,3.526527314E0
1.570147458E0,2.602812765E-1,-2.270639606E0,-1.639907178E0,2.812978158E0
1.580118458E0,3.779199829E-1,-2.067933597E0,-8.956367326E-1,2.285024733E0
1.590089458E0,7.956448133E-1,-1.621322973E0,1.506315842E0,2.351749618E0
1.600059458E0,1.451783393E0,-3.729772219E-1,4.040336553E0,4.309420668E0
1.610030458E0,1.827510122E0,2.169792093E0,3.080782737E0,4.187960512E0
1.620000458E0,2.182474119E0,4.452228165E0,1.651883445E0,5.226303458E0
1.629971458E0,1.359824379E0,5.345615766E0,2.554806393E-1,5.521775133E0
1.639942458E0,5.774461672E-1,3.752527243E0,-1.725947787E0,4.170587555E0
1.649912458E0,6.820597257E-1,2.484378727E0,-8.197299331E-1,2.703571766E0
1.659883458E0,7.208501543E-1,1.989584123E0,-1.782397392E0,2.766768944E0
1.669853458E0,1.022141609E0,1.543129327E0,-2.296606799E0,2.949648179E0
1.679824458E0,6.587991364E-1,3.173319018E0,-3.557322627E0,4.812329390E0
1.689795458E0,2.495477072E-1,4.453863631E0,-4.942433875E0,6.657839583E0
1.699765458E0,1.140614092E0,2.719261965E0,-5.069655254E0,5.864877708E0
1.709736458E0,1.185267743E0,-1.218919346E0,-3.170898855E0,3.597947129E0
1.719707458E0,1.753413182E0,-3.566238169E0,-7.719727993E-1,4.048265612E0
1.729677458E0,1.881503458E0,-1.302726026E0,-2.236085778E0,3.199567153E0
1.739648458E0,3.267127726E-1,7.948219639E-1,-3.141457540E0,3.256875599E0
1.749618458E0,1.640466611E0,-2.081595908E0,9.618545203E0,9.977002758E0
1.759589458E0,3.311766832E-1,-2.751716935E0,1.334448983E1,1.362927118E1
1.769560458E0,-3.781819747E-1,-6.342808110E-1,4.662048190E0,4.720172357E0
1.779530458E0,-9.920152187E-2,3.078795269E0,-9.546427399E-1,3.224928528E0
1.789501458E0,4.708433494E-1,3.811866250E0,-7.186562498E0,8.148539642E0
1.799471458E0,8.539207958E-1,-1.332749432E0,-7.823825973E0,7.982333909E0
1.809442458E0,-4.070761371E-1,-5.261835691E0,-4.081972822E0,6.671965823E0
1.819413458E0,-1.240333604E0,-4.470169177E0,2.437708883E0,5.240540479E0
1.829383458E0,9.923661979E-1,-2.789545497E0,1.222664253E1,1.258002951E1
1.839354458E0,1.923530467E0,-1.744055445E0,1.209611046E1,1.237164448E1
1.849324458E0,-1.037976801E-1,9.760607985E-1,6.467716330E-1,1.175492316E0
1.859295458E0,-6.844958219E-1,3.904017491E0,-5.082810904E0,6.445529753E0
1.869266458E0,-4.909662862E-1,5.136015304E0,-4.392758766E0,6.776136855E0
1.879236458E0,-1.013372393E0,1.862264510E0,-5.929486561E0,6.297123438E0
1.889207458E0,-4.654572232E-1,-1.052167865E0,-4.947730867E0,5.079739007E0
1.899177458E0,-9.666382297E-1,-2.474348998E0,-1.743908679E0,3.177736603E0
1.909148458E0,1.699148975E-1,-6.811848360E-1,2.952776662E0,3.035090421E0
1.919119458E0,2.178697403E0,7.563560557E-1,6.358503790E0,6.763827859E0
1.929089458E0,9.287321924E-1,-5.143579262E-1,2.597307465E0,2.805906918E0
1.939060458E0,6.063078044E-1,-1.117127215E0,1.497404101E0,1.964128664E0
1.949030458E0,-6.334641377E-2,1.968637642E-1,5.664010692E-1,6.029745276E-1
1.959001458E0,1.242145491E-1,2.659380922E0,-2.011693030E0,3.336861548E0
1.968972458E0,-5.291657806E-1,1.986370201E0,-1.377047938E0,2.474256256E0
1.978942458E0,-1.887580761E0,7.137713689E-1,-1.097479109E0,2.297148470E0
1.988913458E0,-6.561772449E-1,7.824480861E-1,-1.667580296E0,1.955407279E0
1.998883458E0,5.285418096E-1,2.044452056E0,-2.601789941E0,3.350888173E0
2.008854458E0,1.500620106E-1,5.443758357E0,-4.653152820E0,7.163019952E0
2.018825458E0,6.389152410E-1,3.994332707E0,-3.745038130E0,5.512550866E0
2.028795458E0,1.051064057E0,-1.452786629E0,2.079043014E0,2.745495310E0
2.038766458E0,7.985883748E-1,-2.571363662E0,6.296868875E0,6.848372953E0
2.048736458E0,1.054790780E0,-4.205973262E0,5.027306795E0,6.639021636E0
2.058707458E0,4.591365293E-1,-3.239806830E0,-8.834581518E-1,3.389344030E0
2.068678458E0,8.267792632E-1,1.403045828E0,-5.249048415E0,5.495872161E0
2.078648458E0,1.180005541E0,3.507110247E0,-4.299651212E0,5.672674493E0
2.088619458E0,3.935070153E-2,1.815660155E0,-3.283800988E0,3.752535037E0
2.098590458E0,-8.339569397E-1,1.397133708E-2,-8.626046419E-2,8.385226552E-1
2.108560458E0,-1.399319982E0,-3.169065461E0,2.556263520E0,4.305293891E0
2.118531458E0,-1.273296990E0,-3.954194788E0,3.460877482E0,5.406904344E0
2.128501125E0,-6.652057113E-1,-4.174869291E0,4.074524054E0,5.871437516E0
2.138472125E0,1.029001343E0,-4.292455629E-1,1.006675358E0,1.502162039E0
2.148443125E0,2.800750809E0,1.555573372E0,-2.435192242E0,4.024198661E0
2.158413125E0,1.876481138E0,-1.226050025E-1,-2.103744577E0,2.821693586E0
2.168384125E0,1.458877528E0,-1.116485775E0,-2.468975115E-1,1.853597181E0
2.178354125E0,2.001885641E-1,1.237765214E0,1.462724850E0,1.926577840E0
2.188325125E0,-3.110420154E-1,1.776663320E0,2.315523711E0,2.935120056E0
2.198296125E0,1.338303410E-2,9.474287376E-1,3.798813218E0,3.915198869E0
2.208266125E0,1.098495939E0,1.680982114E0,1.451727406E0,2.477883504E0
2.218237125E0,2.142462938E0,2.173673475E0,-2.067803496E-1,3.059045918E0
2.228207125E0,1.849940480E0,3.127280088E0,-3.151900667E-1,3.647122881E0
2.238178125E0,2.387586551E0,2.380647368E0,-4.374837050E0,5.523336912E0
2.248149125E0,2.537472907E0,4.182285315E-1,-1.339398885E0,2.899598806E0
2.258119125E0,1.139673348E0,6.714191088E-1,-1.644208975E0,2.110232715E0
2.268090125E0,2.100086120E0,1.608121714E-1,-1.145742611E0,2.397696477E0
2.278061125E0,1.222666534E0,3.094802606E-1,1.318404458E0,1.824522348E0
2.288031125E0,1.544646972E0,1.590249115E0,-9.852149069E-2,2.219128883E0
2.298002125E0,2.076224656E0,7.847928196E-2,2.909071648E-1,2.097973975E0
2.307972125E0,2.527968258E0,-1.235078126E-2,1.249644125E0,2.819997606E0
2.317943125E0,2.334368410E0,-2.425785241E0,2.161948346E0,4.000966203E0
2.327914125E0,1.585769563E0,-1.416093012E0,1.208155206E0,2.445326876E0
2.337884125E0,1.339343922E0,1.085450801E0,-8.137686968E-2,1.725881739E0
2.347855125E0,7.170408395E-1,1.716728190E0,-9.784479243E-1,2.102061746E0
2.357825125E0,1.329279986E0,5.817432860E-1,-2.111500323E0,2.562000029E0
2.367796125E0,9.094450785E-1,-9.557455248E-1,-3.274488713E0,3.530271404E0
2.377767125E0,1.443293383E0,-1.807880142E-1,-3.987656064E0,4.244665002E0
2.387737125E0,2.028680946E0,-2.168188494E-1,-3.295996526E0,3.876357813E0
2.397708125E0,1.738643993E0,-1.619078519E0,-1.562966591E-1,2.380908824E0
2.407678125E0,1.226294146E0,-1.589863198E0,8.616807818E-1,2.184938464E0
2.417649125E0,1.217019585E0,-2.700797627E0,5.475081891E0,6.225107727E0
2.427620125E0,1.095776765E0,-4.948820204E-1,9.577424659E0,9.652600583E0
2.437590125E0,6.610609125E-1,2.818725734E0,4.701463686E0,5.521410787E0
2.447561125E0,3.659133103E-1,-2.239410505E-1,2.982663535E0,3.013357580E0
2.457532125E0,5.625664286E-1,6.032414514E-1,-5.099345076E-1,9.697496776E-1
2.467502125E0,-4.115335426E-1,2.327019337E-1,-1.274866090E0,1.359703495E0
2.477473125E0,-1.293816916E0,1.534920421E-1,-3.482457216E0,3.718202561E0
2.487443125E0,-9.378549452E-1,-1.646308710E0,-2.061580305E0,2.800003146E0
2.497414125E0,-7.753662309E-1,-2.037696183E0,-1.591704487E0,2.699429884E0
2.507385125E0,-1.906635229E-1,1.082119350E0,-1.123869347E0,1.571756080E0
2.517355125E0,-2.985560538E-1,1.853166243E0,5.216002876E-1,1.948185746E0
2.527326125E0,1.285115674E-2,9.435131496E-1,1.924711019E0,2.143570555E0
2.537296125E0,-1.321273394E-2,8.364500463E-1,-3.938754630E-1,9.246410853E-1
2.547267125E0,2.244444592E-2,5.232439399E-1,-1.271554227E0,1.375186578E0
2.557238125E0,-1.284065076E0,3.852028728E-1,-2.366485704E0,2.719827009E0
2.567208125E0,-7.594281098E-1,2.268509173E-1,-2.712692910E0,2.826109555E0
2.577179125E0,-1.254216794E0,-2.280036959E-1,-9.732725537E-1,1.603840676E0
2.587150125E0,-9.124845343E-1,8.290179428E-1,-1.599960755E0,2.019844844E0
2.597120125E0,4.710782247E-1,5.595378998E-1,7.438289809E-1,1.043206072E0
2.607091125E0,-3.882604549E-1,-2.349712673E0,6.383405328E-2,2.382429561E0
2.617061125E0,7.952326577E-1,-4.822861823E0,3.664186925E-1,4.901699073E0
2.627032125E0,-8.838123469E-1,-4.311027847E0,-6.217835569E-1,4.444400990E0
2.637003125E0,-5.889220953E-1,-2.030515217E0,-2.833901598E0,3.535649806E0
2.646973125E0,7.701450876E-2,9.494483659E-1,-4.134382001E0,4.242699372E0
2.656944125E0,-5.105831100E-1,1.368502817E0,-7.178153032E-1,1.627499272E0
2.666914125E0,1.993863992E-1,7.388872066E-1,3.322354020E0,3.409361447E0
2.676885125E0,-1.352156194E-1,2.953189475E0,7.748637797E0,8.293431078E0
2.686856125E0,-8.424671236E-1,1.468755375E0,7.781571069E0,7.963657546E0
2.696826125E0,1.543374326E0,-4.002893031E0,1.523784516E1,1.583025843E1
2.706797125E0,1.484452737E-2,5.252968973E-1,3.425536911E0,3.465611103E0
2.716768125E0,9.233541428E-1,2.013921404E-1,5.342338986E0,5.425285938E0
2.726738125E0,-1.546911599E0,2.758153843E0,-1.615569897E0,3.551114502E0
2.736709125E0,-1.515478575E0,3.857645855E0,-9.324050186E0,1.020372573E1
2.746679125E0,-1.164560705E0,3.040974308E0,-6.560038603E0,7.323785418E0
2.756650125E0,-2.357549112E0,1.302338063E0,-3.603215668E0,4.498587044E0
2.766621125E0,-1.572157683E0,1.187958339E-1,-2.254930184E0,2.751454591E0
2.776591125E0,-3.249493254E-1,-1.241598941E0,-9.561051285E-1,1.600405265E0
2.786562125E0,-1.158503429E0,-2.108805049E0,-1.329690168E0,2.749047994E0
2.796532125E0,-6.727667458E-1,-1.104388179E0,-2.178555023E0,2.533454229E0
2.806503125E0,-7.044039832E-1,-3.456552297E-1,-3.004425117E0,3.105194486E0
2.816474125E0,-4.019543416E-1,-2.075647536E0,-2.429574822E0,3.220669775E0
2.826444125E0,-1.144759110E-1,-1.586276224E0,-2.280718160E0,2.780476994E0
2.836415125E0,-2.348585695E-1,-1.876721751E0,-3.131331332E0,3.658207073E0
2.846386125E0,-4.873136768E-1,-2.079301461E0,-4.294491044E0,4.796209182E0
2.856356125E0,-8.959456117E-1,-1.697394079E0,-6.088993927E0,6.384333343E0
2.866327125E0,-9.046502155E-1,-2.416752755E0,-2.160941455E0,3.365821425E0
2.876297125E0,1.397734509E0,-5.825447638E0,2.742776835E1,2.807440077E1
2.886268125E0,1.235008252E0,-3.733669388E-1,2.736757010E1,2.739796600E1
2.896239125E0,-2.538825953E0,8.680403305E0,-9.662652504E-1,9.095532271E0
2.906209125E0,1.428628858E0,3.520759695E0,-3.455615573E0,5.135952514E0
2.916180125E0,-2.223432403E0,-1.227825825E0,-5.949216236E0,6.468723347E0
2.926151125E0,-5.110094597E0,3.290003715E0,-1.152717989E1,1.303123430E1
2.936121125E0,-4.184541463E0,5.344538709E0,-6.247486800E0,9.225268158E0
2.946092125E0,-2.169303705E0,1.051934561E0,4.565321209E0,5.162809567E0
2.956062125E0,-6.480667182E-1,-7.274871826E0,9.063865462E0,1.164033538E1
2.966033125E0,1.866658985E0,-3.669110865E0,2.635024345E0,4.887754454E0
2.976004125E0,-3.597886077E-1,4.601360231E0,-9.461881923E0,1.052754356E1
2.985974125E0,-1.924627989E0,-3.554753653E0,-1.529969584E1,1.582470092E1
2.995945125E0,2.131170503E-1,-8.919018821E0,-1.337053801E1,1.607375508E1
3.005915125E0,-4.603914879E-2,-8.862618917E0,-1.099817995E0,8.930718521E0
3.015886125E0,4.455389024E-1,-9.078671781E0,3.512422442E1,3.628128895E1
3.025857125E0,1.634862201E0,-6.816865271E-1,3.683981387E1,3.688237190E1
3.035827125E0,-1.660229176E-1,1.060765143E1,3.754355668E0,1.125366691E1
3.045798125E0,-1.017150718E0,5.623857862E0,-1.018682030E1,1.168048290E1
3.055769125E0,-2.042943182E0,-4.075956329E0,-1.179595300E1,1.264640439E1
3.065739125E0,7.376975906E-1,-5.302550438E0,-1.197815458E1,1.312011532E1
3.075710125E0,-1.232719359E0,-2.091580614E0,-1.589165392E1,1.607603716E1
3.085680125E0,-1.800940082E0,-1.891942931E0,-1.636356164E1,1.657072668E1
3.095651125E0,1.021869786E0,-5.040577050E0,7.129666750E0,8.791119544E0
3.105622125E0,1.891591951E0,-2.765613136E0,2.934648539E1,2.953714510E1
3.115592125E0,-1.109638978E0,1.002567221E1,6.426623268E0,1.196022109E1
3.125563083E0,-3.099292683E0,1.647305894E1,-1.546389150E1,2.280568408E1
3.135533083E0,-6.942357629E0,2.649742488E1,-1.602430502E1,3.173465308E1
3.145504083E0,-3.869177880E-1,5.809004098E0,-6.810490052E0,8.959743787E0
3.155475083E0,2.627001380E0,-1.315765609E1,4.475172347E-1,1.342480248E1
3.165445083E0,4.224986654E0,-2.672027864E1,1.692894647E0,2.710515994E1
3.175416083E0,1.434354305E0,-1.423837825E1,9.603887987E-1,1.434263344E1
3.185387083E0,-1.600780973E0,3.569406483E0,1.454206626E0,4.173473286E0
3.195357083E0,-3.695623749E-1,1.230510281E1,-4.532995462E-1,1.231899396E1
3.205328083E0,2.837773990E-1,7.390969462E0,2.699906804E0,7.873782824E0
3.215298083E0,-3.167775565E0,-6.783504567E0,6.584917336E0,9.970550264E0
3.225269083E0,-1.977566487E0,-4.815162209E0,1.728228786E0,5.484827349E0
3.235240083E0,-1.783256055E0,-1.089042453E0,-3.591838156E0,4.155396126E0
3.245210083E0,-3.043192742E0,-1.012388380E0,-7.230712484E0,7.910066708E0
3.255181083E0,-8.975127386E-1,-2.949958304E-1,-6.938554015E0,7.002576917E0
3.265152083E0,-9.093431908E-1,7.508254083E0,-8.144843960E0,1.111482198E1
3.275122083E0,-1.003329873E0,8.084321185E0,-4.041972604E0,9.093979458E0
3.285093083E0,1.680367279E0,3.918140856E0,3.806659597E0,5.715428177E0
3.295063083E0,3.902111299E0,-9.142098284E0,1.015545584E1,1.421047912E1
3.305034083E0,2.251399051E0,-1.335210057E1,1.034027346E1,1.703727216E1
3.315005083E0,-2.146562275E0,-3.878050884E0,2.344296105E0,5.014252934E0
3.324975083E0,-2.136138736E0,6.959081250E0,-1.023164272E1,1.255700654E1
3.334946083E0,-1.322153546E0,9.543438302E0,-1.759579919E1,2.006084380E1
3.344917083E0,-1.928589039E0,7.059276214E-1,-4.592453460E0,5.030747287E0
3.354887083E0,1.144321226E0,-5.138295718E0,1.355885227E1,1.454489700E1
3.364858083E0,6.054419048E-2,-2.581437829E0,2.273247757E1,2.287865869E1
3.374828083E0,4.359919341E-1,4.416782344E0,8.855834978E0,9.905749259E0
3.384799083E0,2.330798246E0,2.657879064E0,-5.240244262E0,6.321162987E0
3.394770083E0,1.186084306E0,-3.827172799E0,-3.586071047E0,5.377169624E0
3.404740083E0,2.257227702E-1,-4.035163522E0,-1.278458619E-1,4.043493537E0
3.414711083E0,2.249704528E0,1.161629789E0,-1.262979285E0,2.829429431E0
3.424682083E0,3.054249973E-1,2.836626985E0,-1.585547953E0,3.264000520E0
3.434652083E0,1.360707309E0,1.205210549E-1,-2.402082968E-1,1.386993053E0
3.444623083E0,6.676974291E-1,1.423989385E0,-1.867127055E0,2.441255633E0
3.454593083E0,-6.832703917E-1,3.829460814E0,-6.704703981E-1,3.947297697E0
3.464564083E0,-1.251619461E0,2.940757417E0,1.081541938E0,3.374068527E0
3.474535083E0,-5.949122754E-1,-2.539897455E0,9.053343397E-1,2.761273251E0
3.484505083E0,7.289882725E-2,-7.048557683E0,-2.569165401E0,7.502538938E0
3.494476083E0,4.407685246E-1,-3.892394981E0,-6.081082059E0,7.233572740E0
3.504447083E0,-9.045852749E-2,-2.239951372E-1,-2.731802781E0,2.742462944E0
3.514417083E0,6.750290336E-1,2.999887678E-1,5.565906107E-1,9.249057060E-1
3.524388083E0,9.579787957E-1,3.776102632E-1,3.345662191E0,3.500538299E0
3.534358083E0,-1.041687316E-1,2.627955061E0,1.380679058E0,2.970399568E0
3.544329083E0,2.632524368E0,4.765387494E0,5.363370252E-1,5.470535615E0
3.554300083E0,3.035169193E0,1.020863627E0,-1.336159528E0,3.469832396E0
3.564270083E0,3.527952647E0,-2.482807873E0,-7.521232563E-1,4.379095136E0
3.574241083E0,1.742287100E0,-4.401447436E0,3.849935424E-1,4.749370895E0
3.584212083E0,1.392226432E0,-1.267498598E0,6.918051338E-1,2.005851809E0
3.594182083E0,1.876976836E0,7.160234824E0,-3.567695003E0,8.217082963E0
3.604153083E0,2.502044043E0,8.765713597E0,-3.529654772E0,9.775296520E0
3.614123083E0,2.645486476E0,2.560699510E0,3.500253217E0,5.080113508E0
3.624094083E0,2.164510303E0,-6.258726318E0,6.359116579E0,9.181237587E0
3.634065083E0,1.304384442E0,-5.163883134E0,6.481338004E0,8.388971934E0
3.644035083E0,1.355603274E0,2.131362730E-1,-2.134240145E0,2.537334882E0
3.654006083E0,1.212184961E0,1.835007130E0,-8.964414849E0,9.230242528E0
3.663977083E0,2.367992093E0,-5.134839429E0,7.338256229E0,9.264122570E0
3.673947083E0,1.512756989E0,-5.637515788E0,1.110362980E1,1.254434585E1
3.683918083E0,-1.303640384E0,-1.148115411E0,1.175881149E1,1.188643323E1
3.693888083E0,-7.351354869E-1,7.688562918E0,-1.381808156E-1,7.724863615E0
3.703859083E0,2.503968362E0,4.900332460E0,-1.348043292E1,1.456039792E1
3.713830083E0,-8.693274781E-1,-4.056134853E0,-1.108566365E1,1.183638031E1
3.723800083E0,-1.495986151E0,-4.518855433E0,-8.560718987E0,9.795097680E0
3.733771083E0,-1.388113647E0,-2.967892006E0,3.863842442E0,5.066016273E0
3.743742083E0,-5.348676564E-2,-1.736486516E0,1.927984875E1,1.935796514E1
3.753712083E0,-6.038810637E-2,1.455692111E0,1.182934294E1,1.191872647E1
3.763683083E0,4.475002412E-1,3.589168902E0,-3.729750584E0,5.195520118E0
3.773654083E0,-7.273786437E-1,2.495801263E0,-6.134367735E0,6.662474852E0
3.783624083E0,7.758310480E-2,1.426609230E0,-2.170517440E0,2.598534008E0
3.793595083E0,2.714498421E-1,2.253910138E0,-2.500150715E0,3.377062262E0
3.803565083E0,-3.685701937E-2,3.230750370E0,-2.225669548E0,3.923354602E0
3.813536083E0,-4.070957983E-1,2.253903121E0,-1.260966673E0,2.614544553E0
3.823507083E0,-2.680992231E-2,4.661236596E-1,-2.084953380E-1,5.113319313E-1
3.833477083E0,5.114600096E-1,1.793171471E-1,-5.053830349E-1,7.410519501E-1
3.843448083E0,-1.765204056E-1,4.660786361E-1,-2.593875734E0,2.641321653E0
3.853419083E0,-1.058625420E-1,-2.919374442E-1,-2.069244835E0,2.092416912E0
3.863389083E0,8.345692894E-1,7.615030673E-1,-2.881010275E0,3.094610319E0
3.873360083E0,1.392094578E0,-1.246828691E0,-4.128151792E-1,1.913877078E0
3.883330083E0,1.149813589E0,-2.213230474E0,1.488214032E0,2.904348709E0
3.893301083E0,1.122269183E0,-2.290008216E0,2.358335270E0,3.473524290E0
3.903272083E0,3.088273459E-1,2.054517160E0,-5.222890896E-1,2.142242046E0
3.913242083E0,-8.727456142E-1,-8.429389939E-1,9.449907410E-1,1.537933209E0
3.923213083E0,-2.742501102E-1,3.598212790E-1,3.596273854E0,3.624619995E0
3.933184083E0,-5.349208661E-1,-2.841385157E0,3.771992040E0,4.752634416E0
3.943154083E0,-9.338001204E-1,-7.172986432E0,1.685318409E0,7.427248156E0
3.953125083E0,-1.708977121E0,-4.628922544E0,-8.835300726E-1,5.012798829E0
3.963095083E0,-2.252652694E0,2.535999701E0,-2.036751857E0,3.956525846E0
3.973066083E0,-1.648185959E0,3.289343564E0,-1.081606842E0,3.834862631E0
3.983037083E0,-1.420626066E0,3.594843332E0,-7.414187586E-1,3.935832667E0
3.993007083E0,-2.257711997E0,4.090595126E-1,4.368811494E-1,2.335692250E0
4.002978083E0,-7.929511473E-1,-3.370351474E0,1.791994427E0,3.898625990E0
4.012949083E0,-1.724593499E-1,-3.103864329E0,2.173026481E0,3.792856454E0
4.022919083E0,-5.196755303E-1,-1.016683160E0,-1.944424907E0,2.254882596E0
4.032890083E0,5.974795320E-1,-1.622864299E0,-2.049065509E0,2.681294423E0
4.042861083E0,1.024261371E0,-2.896136145E0,6.778267801E-2,3.072671544E0
4.052831083E0,1.795675980E0,-2.433471991E0,1.807240457E0,3.523117401E0
4.062802083E0,1.824648934E0,-7.578584978E-1,4.093746775E0,4.545597419E0
4.072772083E0,1.446709143E-1,1.902865822E0,3.308078628E0,3.819059075E0
4.082743083E0,-1.625376116E-2,9.738257003E-1,3.387813014E0,3.525035844E0
4.092714083E0,-5.205105127E-1,-1.758778149E-1,6.491344929E-1,8.504350589E-1
4.102684083E0,-1.579233984E0,1.137043709E0,-1.891239218E0,2.713601693E0
4.112655083E0,-1.916784241E0,2.081250630E0,-4.271816127E0,5.123873441E0
4.122626083E0,-1.099235831E0,1.505397537E0,-4.295441802E0,4.682452501E0
4.132595708E0,-7.592335436E-3,-3.960553050E-2,-2.632179090E0,2.632487987E0
4.142566708E0,2.945154633E-1,8.007235587E-2,7.309820634E-1,7.921399607E-1
4.152537708E0,8.566220632E-1,2.228274482E-1,2.150956750E0,2.325955367E0
4.162507708E0,1.099987710E0,8.181555703E-1,1.487983652E0,2.023226840E0
4.172478708E0,1.806010349E0,-3.532139254E-1,1.127471232E0,2.158153108E0
4.182448708E0,1.480459162E0,-4.030719638E-1,7.231701833E-1,1.696231545E0
4.192419708E0,1.408958240E0,1.259237944E0,-9.504029238E-1,2.115209030E0
4.202390708E0,1.924759551E0,1.787118141E0,-2.869780698E0,3.890261153E0
4.212360708E0,1.433012369E0,1.577900965E0,-4.964432269E0,5.402673751E0
4.222331708E0,1.369309586E0,-9.119071949E-1,-4.064729383E0,4.385043721E0
4.232302708E0,1.203532617E0,-2.030302671E0,-2.105166035E0,3.162648215E0
4.242272708E0,9.597505020E-1,-1.072895367E0,4.617791784E-1,1.511775613E0
4.252243708E0,7.110601611E-1,-9.126287413E-1,8.327961212E-1,1.425498913E0
4.262213708E0,4.001770439E-1,-1.872502693E0,2.999937379E-1,1.938144536E0
4.272184708E0,2.014122767E-1,-1.937918710E0,2.274414276E0,2.994838248E0
4.282155708E0,-5.120186014E-1,-3.133233431E-1,2.967309331E0,3.027417915E0
4.292125708E0,2.507591223E-2,1.553052637E0,2.966269112E0,3.348335965E0
4.302096708E0,5.454863097E-1,2.248204717E0,2.937282125E0,3.738931137E0
4.312067708E0,-5.449425186E-1,2.379618258E0,8.146451944E-1,2.573556332E0
4.322037708E0,7.982629772E-2,1.164455456E0,1.299481698E0,1.746705880E0
4.332008708E0,-1.227265515E0,1.526900965E-1,3.006762834E0,3.251171735E0
4.341979708E0,-1.917821684E-1,1.249774810E0,2.197384812E0,2.535195749E0
4.351949708E0,-7.027750220E-2,1.654342492E0,7.204167295E-1,1.805765287E0
4.361920708E0,-6.650995843E-1,1.146172089E0,-1.878002291E0,2.298469169E0
4.371890708E0,-3.518172083E-1,6.828135780E-1,-2.350008250E0,2.472356872E0
4.381861708E0,4.213848950E-2,3.592400658E-1,-2.137760754E0,2.168144395E0
4.391832708E0,1.871963799E-1,-1.311890659E0,-8.772372991E-1,1.589227758E0
4.401802708E0,-5.472613416E-1,-1.976427303E0,-1.257648379E-1,2.054647574E0
4.411773708E0,-6.403190113E-1,-1.676673009E0,5.713191622E-1,1.883519684E0
4.421744708E0,-1.109110463E0,-1.854910175E0,8.553511709E-1,2.324315685E0
4.431714708E0,-1.529264410E0,-2.828315753E0,4.762831968E-1,3.250363874E0
4.441685708E0,-1.298692470E0,-2.603307293E0,-2.047992545E0,3.557820183E0
4.451656708E0,-1.772205256E0,-3.061385184E0,-2.034000742E0,4.080434993E0
4.461626708E0,-1.543896043E0,-2.036410965E0,-2.533446515E0,3.598462985E0
4.471597708E0,-5.064812151E-1,-1.201626790E0,-1.303300515E0,1.843643782E0
4.481568708E0,-1.291554482E0,-1.101655482E0,-1.731354707E-1,1.706380284E0
4.491538708E0,-6.449270558E-1,-1.865580466E-1,-5.404616511E-1,8.618779544E-1
4.501509708E0,-1.647867431E0,1.322736660E0,-4.101096725E0,4.613468727E0
4.511479708E0,-2.145831958E0,1.618734703E0,-6.981687171E0,7.481233360E0
4.521450708E0,-7.560166249E-1,-7.637890363E-1,-6.873462226E0,6.956969009E0
4.531421708E0,-1.278916895E0,-4.669445210E0,-5.385839347E0,7.242003346E0
4.541391708E0,3.892388403E-1,-5.522044973E0,1.682758264E1,1.771474034E1
4.551362708E0,-3.078201484E0,4.211958765E0,9.999103632E0,1.127820883E1
4.561333708E0,-5.499087051E-3,5.113912829E0,2.497390829E0,5.691141855E0
4.571303708E0,1.148500012E0,-2.201809692E0,5.271697605E-1,2.538685911E0
4.581274708E0,-1.158901332E-1,-3.187647912E0,1.544351395E0,3.543945678E0
4.591245708E0,4.086454567E-1,7.234561121E-1,4.308094591E0,4.387488902E0
4.601215708E0,9.096416911E-1,3.627925124E0,-1.545816123E0,4.047077489E0
4.611186708E0,5.255149619E-1,-2.565919027E-1,7.945144004E-1,9.865386521E-1
4.621156708E0,3.498798795E-1,-2.726487954E0,2.504276510E0,3.718541829E0
4.631127708E0,2.804417086E-1,9.329460615E-1,5.457895755E0,5.544155660E0
4.641098708E0,-1.252314110E0,3.496619757E0,3.139512756E0,4.863247958E0
4.651068708E0,-1.255421686E-1,8.282858714E-1,2.637326978E0,2.767184835E0
4.661039708E0,-9.156573066E-1,-1.053850109E0,-5.889280522E-1,1.515211076E0
4.671010708E0,-1.074582508E0,5.913435370E-1,-2.570137793E0,2.847810215E0
4.680980708E0,-1.794533142E0,8.963749436E-1,-3.580091100E0,4.103765286E0
4.690951708E0,-7.359673995E-1,-1.607053428E0,-2.843769359E0,3.348326881E0
4.700922708E0,-6.943527657E-1,-2.877201107E0,-3.170093694E0,4.337038852E0
4.710892708E0,2.373358521E-1,-2.247762960E0,-1.767013952E0,2.868990230E0
4.720863708E0,-3.229700795E-1,3.269423854E-1,-6.438474405E-1,7.910376238E-1
4.730834708E0,-8.337067520E-1,5.327740243E-1,-1.689832460E0,1.958174878E0
4.740804708E0,-5.833949782E-1,-2.162581015E0,-2.130089791E0,3.091017448E0
4.750775708E0,-1.196760591E-1,-4.932271414E0,-2.671940156E0,5.610783177E0
4.760745708E0,-4.739829753E-1,-4.372265152E0,-5.385493192E0,6.953049643E0
4.770716708E0,-3.264445681E-1,2.332757502E0,-3.553260566E0,4.263095620E0
4.780687708E0,-3.220536746E-4,8.832791685E0,1.662399663E0,8.987868585E0
4.790657708E0,3.589845059E-1,7.605699102E0,7.481021261E0,1.067432470E1
4.800628708E0,-2.593466721E-2,1.288824855E0,4.776206304E0,4.947109133E0
4.810599708E0,2.467174465E0,4.046969050E-1,-8.227061659E-1,2.632028659E0
4.820569708E0,4.239421383E0,3.178000591E0,-4.779993546E0,7.135875540E0
4.830540708E0,5.123529745E0,8.707468897E-1,5.550539625E-1,5.226551644E0
4.840511708E0,4.354005759E0,2.615722686E-1,-5.411750114E-1,4.395299375E0
4.850481708E0,2.657123019E0,-7.614042494E-1,-4.096709560E0,4.941970092E0
4.860452708E0,3.688672433E0,7.863753685E-1,-4.394415867E0,5.790991396E0
4.870422708E0,1.701342119E0,-7.573199692E-1,2.986420371E0,3.519489334E0
4.880393708E0,1.495697737E0,-2.150087854E0,2.587815680E0,3.681953217E0
4.890364708E0,1.573072480E0,-2.394046555E0,3.854612612E0,4.802505005E0
4.900334708E0,2.562556878E-2,-8.990038517E-1,2.402037359E0,2.564887536E0
4.910305708E0,8.216734745E-1,-1.681351073E0,4.255875447E0,4.649146648E0
4.920276708E0,8.543698619E-1,-2.475901434E0,2.480069622E0,3.607046035E0
4.930246708E0,-1.211451903E-1,-2.459702016E0,2.914437053E0,3.815593466E0
4.940217708E0,-1.730017522E-2,-1.276264744E0,2.218523081E0,2.559491288E0
4.950188708E0,1.202604591E0,-2.207329171E0,1.058898595E0,2.727604463E0
4.960158708E0,-7.264421755E-2,-2.490113384E0,1.379309056E0,2.847531443E0
4.970129708E0,3.811084331E-1,-1.783860365E0,-4.330617481E-1,1.874818369E0
4.980100708E0,-9.554885396E-1,-1.681258103E0,-3.194902260E0,3.734566589E0
4.990070708E0,-1.927955347E0,-1.722196214E0,-3.255081219E0,4.156744563E0
5.000041708E0,-5.945167478E-2,-1.594139560E0,-2.591387159E0,3.043041710E0
5.010011708E0,-5.144135479E-1,1.145282143E0,-2.569219780E0,2.859577375E0
5.019982708E0,-9.694388998E-1,1.834662729E0,-7.036913538E-1,2.191114016E0
5.029953708E0,-6.771904568E-1,2.044426620E0,1.546876808E0,2.651621198E0
5.039923708E0,-1.805211254E-1,1.617038133E0,3.000098763E0,3.412915584E0
5.049894708E0,-8.425976627E-1,2.428546296E0,3.482718587E-1,2.594051122E0
5.059865708E0,-5.993021091E-1,5.054929626E-1,-2.207098791E0,2.342215026E0
5.069835708E0,-6.473819362E-1,-1.094072521E0,-2.916833242E0,3.181825610E0
5.079806708E0,-4.875610871E-1,-2.436290056E0,3.022723979E-1,2.502917029E0
5.089777708E0,-1.402107057E0,8.005531123E-1,-3.046071911E-1,1.643038352E0
5.099747708E0,-1.448632767E0,4.276001564E-1,2.523687512E0,2.941152401E0
5.109718708E0,-2.539445466E0,1.257186449E0,3.197853935E-1,2.851589686E0
5.119688708E0,-3.229468368E0,5.060893786E-1,-1.679118022E0,3.674919010E0
5.129660583E0,-4.744209756E0,-2.117256323E-1,-4.199962617E0,6.339719232E0
5.139631583E0,-5.568955430E0,9.708626238E-1,-5.742473894E0,8.058029861E0
5.149601583E0,-3.150989671E0,1.922748694E-1,-3.391275151E0,4.633190335E0
5.159572583E0,-3.117992956E0,-1.859448199E0,-2.279277406E0,4.286552597E0
5.169543583E0,-1.219140736E0,-3.938350880E0,5.849815909E0,7.156623363E0
5.179513583E0,5.088321613E-1,-3.732637355E0,1.344887784E1,1.396652451E1
5.189484583E0,9.322742164E-2,-1.839978433E0,1.863037746E1,1.872124933E1
5.199455583E0,-1.703493894E0,4.749498855E0,2.217446609E0,5.511506172E0
5.209425583E0,-1.198052826E-1,1.449895474E0,2.434184182E0,2.835807261E0
5.219396583E0,2.663823929E0,1.726486900E-1,-6.691424954E-1,2.752002393E0
5.229367583E0,-2.818065291E0,4.531456183E0,-1.147893568E1,1.265865520E1
5.239337583E0,-8.845520928E-1,3.181413026E0,-8.453313822E0,9.075369734E0
5.249308583E0,-2.349312577E0,-2.911214653E0,-4.872649695E0,6.143057495E0
5.259279583E0,-9.705298441E-1,-4.904788038E0,-1.185182666E0,5.138436711E0
5.269249583E0,-1.522232256E0,-1.913089678E0,2.036081766E0,3.181624132E0
5.279220583E0,-1.837143410E0,1.386328931E0,4.080882316E0,4.685147201E0
5.289190583E0,-1.967558246E0,-2.476316002E0,2.102734762E0,3.798015255E0
5.299161583E0,-9.778488770E-1,-5.697386599E0,8.458757579E-1,5.842251987E0
5.309132583E0,-7.249387468E-1,-7.823545307E-2,3.136247671E0,3.219892300E0
5.319102583E0,-1.665241994E0,3.836298256E0,4.238202823E0,5.954206779E0
5.329073583E0,-2.385575401E0,2.474579671E0,3.654963527E0,5.017297372E0
5.339044583E0,-2.569442267E0,9.915623519E-1,-2.120697409E0,3.476001576E0
5.349014583E0,-2.442981171E0,-8.512405783E-2,-8.729729247E0,9.065515751E0
5.358985583E0,-2.787019792E0,9.286226302E-1,-1.110290358E1,1.148495917E1
5.368956583E0,-1.819145534E-1,-1.501300978E0,-1.364612079E1,1.372966169E1
5.378926583E0,-1.748685124E-1,-6.333822109E0,-1.705946450E1,1.819816504E1
5.388897583E0,4.442464484E-1,-9.119391207E0,1.287194593E1,1.578124339E1
5.398867583E0,8.860853789E-1,8.081232101E-1,3.347891851E1,3.350039097E1
5.408838583E0,-6.820452538E0,1.166822993E1,6.467682416E0,1.498322657E1
5.418809583E0,2.284003418E0,7.550410754E0,-1.524864263E1,1.716818209E1
5.428779583E0,-1.006098091E0,-4.600681369E0,-7.042568965E0,8.472088294E0
5.438750583E0,-3.885379784E-1,-5.216587597E0,2.420384753E0,5.763853769E0
5.448721583E0,-5.210907027E-2,-1.560430654E0,3.303174568E0,3.653576522E0
5.458691583E0,-2.670208503E-1,-7.528187826E-1,3.459237923E0,3.550262422E0
5.468662583E0,3.906989631E-1,-2.756420436E0,2.838724966E0,3.976035554E0
5.478633583E0,-3.181072426E-1,-5.484094205E0,6.755688778E0,8.707227591E0
5.488603583E0,-1.147090394E0,2.441133597E-1,1.310456922E0,1.758608839E0
5.498574583E0,2.135609855E0,-1.961945504E-2,4.620628268E0,5.090326116E0
5.508545583E0,-6.189498501E-1,-1.269091380E0,3.673610882E0,3.935620505E0
5.518515583E0,-1.687128122E0,-5.590297768E-1,1.162292570E0,2.123638296E0
5.528486583E0,-3.120653147E0,6.441526651E-1,-1.711803957E0,3.617137197E0
5.538457583E0,-4.520897573E0,1.661181688E0,-5.411188781E0,7.244239332E0
5.548427583E0,-4.726170803E0,4.973796585E-1,-5.877584921E0,7.558444383E0
5.558398583E0,-2.353923692E0,-1.184932989E0,-5.053201189E0,5.699110912E0
5.568368583E0,-1.353889894E0,-3.426905744E0,5.506556869E-1,3.725576802E0
5.578339583E0,6.734448767E-1,-5.607890285E0,4.841405098E0,7.439164252E0
5.588310583E0,1.513016167E0,-6.151498908E0,1.910161393E0,6.616560532E0
5.598280583E0,-8.751480889E-1,-5.105396360E0,-3.145887390E0,6.060327024E0
5.608251583E0,-2.178582359E0,3.717398926E0,-3.987482402E0,5.870714758E0
5.618222583E0,-1.148774393E0,1.476666366E1,-2.941409090E0,1.510052733E1
5.628192583E0,-3.343705128E0,1.651395203E1,2.522737924E0,1.703687713E1
5.638163583E0,-2.187829730E0,3.411283153E0,4.850216852E0,6.320447388E0
5.648134583E0,7.364199740E-1,-6.091208267E0,7.466438305E-1,6.180825960E0
5.658104583E0,1.585976116E0,-4.044579878E0,-2.822152787E0,5.180588092E0
5.668075583E0,3.181904192E0,6.900299191E-1,-4.699257531E0,5.716963960E0
5.678046583E0,-5.875387537E-1,2.539108374E0,-2.356105726E0,3.513332793E0
5.688016583E0,-2.220964878E0,9.459482226E-1,8.365687448E-1,2.554867960E0
5.697987583E0,-2.354060078E0,-6.897837514E-1,2.818235153E-1,2.469174957E0
5.707957583E0,-1.788557726E0,6.667688182E-1,1.680219637E0,2.542962333E0
5.717928583E0,-6.555778322E-1,-6.546250284E-3,2.754249657E0,2.831204041E0
5.727899583E0,-1.389884915E0,-1.584205725E0,3.467386603E0,4.057617245E0
5.737869583E0,-1.164834940E0,-2.525559790E0,5.165106372E0,5.866312003E0
5.747840583E0,-3.680272615E-1,-1.328702281E0,5.061631120E0,5.246046455E0
5.757811583E0,-9.990323161E-1,7.744660521E-1,5.288241717E0,5.437220217E0
5.767781583E0,4.231045246E-3,-1.632653707E-1,6.525451738E-1,6.726727933E-1
5.777752583E0,-1.998463558E0,-1.945568622E0,-3.234504282E-2,2.789290243E0
5.787723583E0,-3.836045364E-1,-1.120788449E-1,-1.990158319E0,2.029887742E0
5.797693583E0,-2.333645255E0,1.699776527E0,-2.883504113E0,4.080408851E0
5.807664583E0,-4.322997390E0,-1.605964091E-1,4.131367761E-1,4.345662163E0
5.817635583E0,-2.663053266E0,-2.553235247E0,3.699277235E0,5.224510980E0
5.827605583E0,-2.818936234E0,-2.029199301E0,3.504835095E0,4.934361189E0
5.837576583E0,-2.770899019E-1,6.035156858E-1,1.033057995E0,1.228095606E0
5.847547583E0,-5.728568338E-1,2.033705166E0,-2.938462678E0,3.619210489E0
5.857517583E0,-2.491463506E-1,-1.143566570E0,-3.582329414E0,3.768673830E0
5.867488583E0,1.420811715E0,-2.186914203E-1,-4.077958124E0,4.323918862E0
5.877458583E0,-4.548255233E-1,-9.617851138E-2,-1.744692791E0,1.805566254E0
5.887429583E0,-4.962021755E-1,7.904657882E-1,1.172866675E0,1.498889255E0
5.897400583E0,-1.343083508E-1,-1.169244325E-1,1.569914253E0,1.579981271E0
5.907370583E0,-9.616091126E-1,-1.791842692E0,4.028544474E0,4.512711257E0
5.917341583E0,3.758286166E-1,1.398163403E0,-2.853031933E-1,1.475637476E0
5.927312583E0,-1.233990690E0,9.193480691E-1,-1.500911261E0,2.149574030E0
5.937282583E0,-1.359080029E0,3.625203538E-1,-1.825055169E0,2.304201792E0
5.947253583E0,-1.902203040E0,-9.054811049E-1,-1.561580801E-1,2.112500363E0
5.957224583E0,-1.466572610E0,-2.627475590E-1,-1.862952143E-1,1.501525027E0
5.967194583E0,-1.438382014E0,6.067983127E-1,7.171990067E-1,1.717999251E0
5.977165583E0,-2.588667912E0,1.648542639E0,-1.446302944E-1,3.072427755E0
5.987136583E0,-2.641106619E0,-2.188921259E0,1.733890060E0,3.843591444E0
5.997106583E0,-7.838234974E-1,-3.237752995E0,1.651081792E0,3.717996076E0
6.007077583E0,-1.046369766E0,-9.103012571E-1,-3.485349834E-2,1.387354617E0
6.017048583E0,-1.691126741E0,-7.504176235E-1,1.442741990E-2,1.850201182E0
6.027018583E0,-1.096679209E0,4.112560192E-1,7.032738626E-1,1.366173828E0
6.036989583E0,-9.314446427E-1,-2.917916439E0,2.901505936E0,4.219071244E0
6.046960583E0,-8.512889640E-1,-3.205737736E0,4.207420741E0,5.357596161E0
6.056930583E0,-3.012634023E0,8.031463525E-1,3.268163195E0,4.516846078E0
6.066901583E0,-2.876350045E0,-6.732355464E-1,2.329176375E0,3.761874302E0
6.076871583E0,-8.093913250E-1,-4.213415306E0,3.232644868E0,5.371961997E0
6.086842583E0,-2.743472654E-1,-1.285774071E0,-3.411353320E-1,1.358254283E0
6.096813583E0,-3.228062697E0,1.892392289E0,-1.651380000E0,4.090060300E0
6.106783583E0,-4.239816070E0,1.704006988E0,-2.302328884E0,5.116678455E0
6.116754583E0,-4.363811540E0,-4.178110403E-1,-3.541207116E0,5.635385085E0
6.126725583E0,-3.313798374E0,-1.872999414E0,-2.964038399E0,4.824407746E0
6.136695583E0,-9.358012569E-1,-1.870104165E0,-1.110514891E-1,2.094121776E0
6.146666583E0,-2.214367319E0,1.839966738E-1,2.336081936E0,3.224058965E0
6.156637583E0,-1.765845678E0,2.638906896E-1,3.342550303E0,3.789523952E0
6.166607583E0,-9.455093890E-3,-2.414563265E0,1.298905748E0,2.741780680E0
6.176578583E0,-8.056176782E-2,9.860130519E-1,-1.006125135E0,1.411027896E0
6.186549583E0,-9.820031776E-1,2.409139680E0,-1.612725227E0,3.060909488E0
6.196519583E0,-5.996995736E-1,1.947335359E0,-1.296703686E0,2.415200825E0
6.206490583E0,-1.052526592E-1,-3.474032548E-1,-6.838710469E-1,7.742394672E-1
6.216461583E0,-1.130858889E0,-1.078635871E-2,-1.709319475E0,2.049568550E0
6.226431583E0,-1.828895766E-1,1.152548770E0,-4.510670793E-1,1.251111016E0
6.236402583E0,1.697527103E-1,1.585826281E0,-2.682197342E0,3.120551803E0
6.246373583E0,7.834478869E-1,-8.055492657E-1,-3.990769122E0,4.145954461E0
6.256343583E0,1.599657285E0,-2.271109430E0,-2.440400941E0,3.697620617E0
6.266314583E0,1.532999319E0,-1.371073837E0,1.714371470E0,2.677498817E0
6.276285583E0,1.952907755E0,6.329055458E-2,6.009211593E0,6.318898508E0
6.286255583E0,2.272076706E0,5.758150864E-1,3.037322137E0,3.836563741E0
6.296226583E0,1.571834478E0,7.769283146E-2,1.475093465E0,2.156988765E0
6.306196583E0,1.651534074E0,2.399330976E0,-2.666049671E0,3.948692794E0
6.316167583E0,6.095289258E-1,6.477136195E-1,-3.975524846E0,4.073801203E0
6.326138583E0,5.014857926E-1,2.859200746E-1,-3.593149102E0,3.639225021E0
6.336108583E0,8.112698892E-1,2.423963249E-3,-3.588702294E0,3.679259282E0
6.346079583E0,9.670584252E-1,-7.157453889E-1,-3.917780083E0,4.098352625E0
6.356050583E0,2.281429912E0,-1.077356793E0,-5.374196371E0,5.936969491E0
6.366020583E0,3.702666866E0,-2.251125109E0,2.468587444E0,4.987106390E0
6.375991583E0,3.195051072E0,-4.475606503E0,1.630781663E1,1.721000546E1
6.385962583E0,1.135814916E0,1.252778817E0,1.218199320E1,1.229880029E1
6.395932583E0,4.780380339E0,8.365211484E0,3.221904702E0,1.015920613E1
6.405903583E0,7.502577022E-1,7.014227511E0,-2.477340726E0,7.476596235E0
6.415874583E0,6.952924132E-3,8.046435320E-1,-5.659866185E0,5.716780982E0
6.425844583E0,-1.193784358E0,-2.041949447E0,-9.239121718E0,9.537088065E0
6.435815583E0,-1.189358966E0,9.359427595E-1,-1.062264135E1,1.072991486E1
6.445786583E0,1.246644503E0,2.406571583E0,-7.652155230E0,8.117954728E0
6.455756583E0,1.063565258E0,-2.876002135E0,-4.729065467E0,5.636188387E0
6.465727583E0,9.485104725E-2,-7.637778681E0,-1.828219682E0,7.854110205E0
6.475698583E0,-9.346825384E-1,-3.899525660E0,8.288282007E-1,4.094739065E0
6.485668583E0,-9.698851886E-1,-3.698606560E-1,2.858138891E0,3.040794651E0
6.495639583E0,-9.771556896E-1,-2.370952392E-1,-2.554093033E-1,1.037439784E0
6.505610583E0,-1.406212241E0,-2.853346806E0,-2.220566683E0,3.879424861E0
6.515580583E0,-6.818957844E-1,-6.512359822E0,1.994578347E1,2.099309626E1
6.525551583E0,-1.718012385E0,4.887675869E-1,2.169135977E1,2.176477772E1
6.535522583E0,1.750273374E0,7.881675986E0,1.023418392E1,1.303544375E1
6.545492583E0,3.163576972E0,1.516358435E0,5.179627932E0,6.255885842E0
6.555463583E0,1.044574086E0,-5.541624960E0,-3.117726030E0,6.443675800E0
6.565433583E0,-5.221107495E-1,-3.753962443E0,-7.629756301E0,8.519273142E0
6.575404583E0,-1.657105119E-1,2.517752588E0,-7.055459737E0,7.493066806E0
6.585375583E0,-6.754120262E-1,1.710512600E0,-3.306423866E0,3.783447309E0
6.595345583E0,-2.762809688E0,2.762225844E0,-2.959665266E0,4.901288348E0
6.605316583E0,-2.780623231E0,4.316381850E0,-4.116932740E0,6.581196928E0
6.615287583E0,-2.516735757E0,7.532421210E0,-3.613788604E0,8.725296341E0
6.625257583E0,-7.198752042E-1,-1.185798962E0,-2.905272127E0,3.219463561E0
6.635228583E0,2.625318515E-1,-1.309410154E1,-2.704685733E0,1.337309773E1
6.645199583E0,-5.278829746E-1,-7.204643843E0,-3.318839259E0,7.949858323E0
6.655169583E0,-1.381509509E0,1.473738957E0,-3.230452162E0,3.810025749E0
6.665140583E0,-8.066365555E-1,-1.310352549E0,4.563344851E0,4.815786806E0
6.675111583E0,2.164575463E-1,-7.490899547E0,1.075821957E1,1.311105329E1
6.685081583E0,2.568878814E-1,-3.073740643E0,7.989546005E0,8.564269863E0
6.695052583E0,-2.551962271E-1,5.105737837E0,9.130088103E-1,5.193001932E0
6.705023583E0,1.003488260E0,5.178636829E0,1.833341258E0,5.584479229E0
6.714993583E0,-8.159268675E-2,1.646282105E0,-2.349696009E0,2.870187009E0
6.724964583E0,3.844703263E-1,1.862189081E-1,-4.320618743E0,4.341686450E0
6.734935583E0,3.938736358E-1,6.857019271E0,-5.023603168E0,8.509432326E0
6.744905583E0,-6.391405050E-2,1.145326640E1,-3.959045638E0,1.211839258E1
6.754876583E0,-5.901924395E-1,7.133811257E0,2.127627529E0,7.467689674E0
6.764847583E0,1.877718372E-1,-9.699387637E-1,7.261963513E0,7.328857587E0
6.774817583E0,2.690697439E0,-5.693697006E0,5.154795392E0,8.138178778E0
6.784788583E0,3.387890198E0,-5.118235091E0,-6.736705792E-1,6.174784408E0
6.794759583E0,1.156740566E0,1.096158223E0,-6.211683714E0,6.412848520E0
6.804729583E0,-6.618814230E-1,4.257352162E0,-5.964210836E0,7.357645367E0
6.814700583E0,1.545251720E-1,2.332363400E0,-5.241414875E-1,2.395521103E0
6.824671583E0,1.068302087E0,-8.295813221E-1,5.158879087E0,5.333245537E0
6.834641583E0,1.205272602E0,-8.394432360E-1,4.366512369E0,4.606927095E0
6.844612583E0,4.077147992E-1,-1.839231158E0,4.191949008E0,4.595806686E0
6.854583583E0,-3.019967199E-1,-1.927761804E0,-2.053712876E0,2.832879131E0
6.864553583E0,7.419488818E-1,-1.338988118E0,-5.737663389E0,5.938363284E0
6.874524583E0,1.312192522E0,-3.213357242E0,-4.248945912E0,5.486442868E0
6.884495583E0,1.408902691E0,-3.739659861E-1,-3.159198577E0,3.479280529E0
6.894465583E0,7.059567113E-1,4.210537599E0,-8.386427522E-1,4.350899150E0
6.904436583E0,-4.735009089E-1,9.094028324E0,-1.441335735E0,9.219707315E0
6.914407583E0,-7.537088750E-1,3.776910425E0,-4.346036589E-1,3.875823753E0
6.924377583E0,9.525003932E-1,-3.691335255E0,3.613079921E0,5.252386075E0
6.934348583E0,1.928909320E0,-5.906129274E0,6.881481682E0,9.271345334E0
6.944319583E0,8.560778336E-1,-2.245419688E0,1.460862511E0,2.812276322E0
6.954289583E0,1.138203211E0,1.245157264E0,-6.778793465E0,6.985553952E0
6.964260583E0,9.112277484E-1,-6.662031001E-1,-6.644913862E0,6.740107033E0
6.974230583E0,-1.210438544E0,-3.643845046E0,-2.919456303E0,4.823483523E0
6.984201583E0,9.065217631E-1,-1.323523110E-1,1.409338601E0,1.680932519E0
6.994172583E0,6.681937847E-1,1.086761162E0,5.930053157E0,6.065728579E0
7.004142583E0,-1.656602295E0,-9.085997173E-1,2.720958534E0,3.312627349E0
7.014113583E0,1.298299976E0,-2.159498363E0,1.094915689E0,2.747336232E0
7.024084583E0,3.993374202E-2,-8.587776393E-2,-2.823693529E0,2.825281373E0
7.034054583E0,2.367429737E0,-4.405938390E-1,1.781174154E0,2.995234191E0
7.044025583E0,1.544131540E0,-6.271530551E-1,5.811541790E0,6.045798636E0
7.053996583E0,-4.179966528E-1,4.305474454E-1,1.880415437E0,1.973842578E0
7.063966583E0,2.859779986E-1,2.359177853E0,-1.285878736E0,2.702033990E0
7.073937583E0,4.768954734E-1,1.375787278E0,1.361880845E0,1.993724997E0
7.083908583E0,8.763519575E-1,-6.156787714E-1,5.990601075E-1,1.227161813E0
7.093878583E0,1.708688999E0,-2.272122460E0,-1.771634422E0,3.349753289E0
7.103849583E0,5.118283111E-1,9.929358628E-1,-5.451712909E0,5.564985489E0
7.113820583E0,3.928780742E-3,6.848431465E-1,-3.997237896E0,4.055482261E0
7.123790583E0,5.920856583E-1,-3.746388252E0,4.217011929E-1,3.816257624E0
7.133761708E0,-2.060727269E-1,-2.540183384E0,2.367478561E0,3.478498574E0
7.143732708E0,6.871327700E-1,-1.228236884E-1,3.110526354E0,3.187885082E0
7.153702708E0,4.910553832E-1,1.083862405E0,4.118490438E0,4.286940236E0
7.163673708E0,-1.927972304E0,6.486029810E-1,-7.354668778E-1,2.163024401E0
7.173644708E0,1.173357695E0,-2.455616566E0,-2.073717370E0,3.421567584E0
7.183614708E0,3.545270273E-1,-8.429477647E-1,-2.896867340E0,3.037777268E0
7.193585708E0,2.438057597E-1,1.061450028E0,-1.513816066E0,1.864874390E0
7.203556708E0,1.026833049E0,1.532949617E0,2.020449820E0,2.736153891E0
7.213526708E0,7.559530364E-1,1.780930325E-1,3.421457309E-1,8.486729774E-1
7.223497708E0,4.823273540E-1,3.393726888E-1,-2.046679260E0,2.129955279E0
7.233468708E0,6.992141408E-1,1.681171272E0,-4.264963775E0,4.637364905E0
7.243438708E0,1.995030073E0,7.657648104E-1,6.646705449E-2,2.137980030E0
7.253409708E0,5.139119299E-1,-7.328365079E-1,4.324571460E0,4.416228384E0
7.263380708E0,4.489216993E-1,2.874145937E0,1.591222676E0,3.315755594E0
7.273350708E0,-3.009580169E-2,4.339766035E0,5.903348923E-2,4.340271875E0
7.283321708E0,2.343200775E-1,2.508343248E0,-1.524332283E0,2.944534031E0
7.293292708E0,2.351012363E0,8.364389366E-1,-1.291655200E0,2.809850954E0
7.303262708E0,1.147172840E0,-1.697881152E0,-8.717613816E-2,2.050952367E0
7.313233708E0,2.507380504E0,-6.604538253E-1,6.147166121E-1,2.664776306E0
7.323204708E0,2.202095767E0,1.919601430E0,-5.120050067E-1,2.965846345E0
7.333174708E0,4.675090112E-1,1.382790488E-1,4.888406771E-1,6.903991443E-1
7.343145708E0,6.614104298E-1,-3.537250305E0,3.579307573E0,5.075534078E0
7.353116708E0,6.777294239E-1,2.728945246E-1,2.167802578E0,2.287609366E0
7.363086708E0,1.267372591E0,2.260504628E0,3.252420151E0,4.158647772E0
7.373057708E0,-1.716925241E-1,-2.407582274E-1,1.893229610E0,1.916184022E0
7.383028708E0,-4.144898218E-1,-3.301675342E0,-3.093574691E0,4.543464124E0
7.392998708E0,-7.867370188E-1,-2.187268836E0,-6.446472226E0,6.852744287E0
7.402969708E0,-1.069054697E0,-3.051849252E0,-4.650121039E0,5.663946282E0
7.412940708E0,-3.059552667E-1,-3.217409363E0,-8.365324920E-1,3.338430506E0
7.422910708E0,7.858746276E-1,-3.403035948E0,2.822956195E0,4.490805526E0
7.432881708E0,1.274436612E0,-4.904147476E-2,2.782771205E0,3.061112433E0
7.442852708E0,1.030608523E0,-9.555891117E-1,5.931602669E-1,1.525497814E0
7.452822708E0,6.083851008E-1,-1.287492567E-1,-3.336403710E-1,7.057086503E-1
7.462793708E0,4.361066126E-1,-7.367044410E-1,1.880204937E0,2.065936354E0
7.472764708E0,-1.129623592E-2,-8.128980464E-1,3.867067766E0,3.951600176E0
7.482734708E0,4.341557622E-4,2.395704825E0,1.295905541E0,2.723742456E0
7.492705708E0,-4.240350359E-1,2.896064809E0,1.215303428E0,3.169220647E0
7.502675708E0,1.688988706E0,4.621838057E-1,-1.822677691E0,2.527538464E0
7.512646708E0,2.119483819E0,5.642241508E-2,-3.047911445E0,3.712837099E0
7.522617708E0,1.029975123E0,2.476909786E-2,-3.330416746E0,3.486135104E0
7.532587708E0,2.092908517E0,1.278367403E0,1.220541948E0,2.739381668E0
7.542558708E0,9.801647399E-1,1.706334179E0,1.460302348E0,2.450465710E0
7.552529708E0,1.619893621E0,6.323693562E-1,-8.654674387E-1,1.942416081E0
7.562499708E0,3.570990201E0,9.634091780E-1,-1.721091090E0,4.079495410E0
7.572470708E0,2.830973605E0,1.317291148E0,-3.521422477E0,4.706387551E0
7.582441708E0,2.359235595E0,-2.478540867E0,1.200401214E0,3.626309487E0
7.592411708E0,1.082912306E0,-4.935314890E0,4.185270318E0,6.560984664E0
7.602382708E0,1.342844065E0,-5.286686942E-1,6.078642601E0,6.247608874E0
7.612353708E0,8.025418235E-1,1.458950764E0,7.802770150E0,7.978460548E0
7.622323708E0,1.339474753E0,1.294915315E0,5.233008918E0,5.554761977E0
7.632294708E0,2.588098685E0,6.518043315E-1,1.332852343E0,2.983219579E0
7.642265708E0,3.862287667E0,1.689747383E0,-2.269156460E0,4.787649035E0
7.652235708E0,3.482537908E0,3.515123271E0,-9.125788645E0,1.038095276E1
7.662206708E0,1.425654672E0,7.659560144E-1,-8.292093222E0,8.448549572E0
7.672177708E0,7.956540958E-1,-4.008851051E-2,-6.413844178E0,6.463131569E0
7.682147708E0,1.141698969E0,-7.631168988E-1,-3.638587230E0,3.889105420E0
7.692118708E0,1.211737284E0,-3.427354226E-1,-5.602911966E0,5.742682066E0
7.702089708E0,2.961192559E0,-1.877000079E0,-3.570307539E0,5.003887148E0
7.712059708E0,2.488230288E0,-6.185416267E0,4.497290609E0,8.042156874E0
7.722030708E0,2.215927356E-1,-6.759439182E0,1.878865223E1,1.996879000E1
7.732001708E0,1.730678623E0,5.157809047E0,6.805284276E0,8.712642351E0
7.741971708E0,2.848017654E0,8.623928558E0,-2.115167697E0,9.325088885E0
7.751942708E0,3.850721290E0,1.884401192E0,-4.909501187E0,6.517838922E0
7.761913708E0,4.620377130E0,-2.365472673E0,-4.025926090E0,6.568974553E0
7.771883708E0,2.278946453E-1,-6.448482499E0,5.839401433E0,8.702498010E0
7.781854708E0,-1.417080169E0,2.440008008E-1,8.661137314E0,8.779689754E0
7.791825708E0,-8.067858057E-1,4.035945587E0,3.152343301E0,5.184305971E0
7.801795708E0,4.960051974E-1,1.937985953E0,-3.625963676E-1,2.033048656E0
7.811766708E0,-3.387272293E-1,2.135511622E0,-3.628545222E0,4.223918376E0
7.821737708E0,1.277980609E-1,1.947928559E0,-3.525137798E0,4.029560088E0
7.831707708E0,1.764334466E-1,1.952238249E0,-3.205567582E0,3.757396234E0
7.841678708E0,1.640411793E0,-2.526439504E0,6.850007290E-1,3.089186530E0
7.851649708E0,-2.788735219E-1,-4.955639226E0,-1.245556337E-1,4.965042265E0
7.861619708E0,1.133978306E-1,-2.128241779E0,6.485626352E-1,2.227757983E0
7.871590708E0,3.848597874E-1,-1.234039953E0,3.566058952E-1,1.340947212E0
7.881561708E0,1.008986689E0,-1.053729072E0,1.594705862E0,2.161362043E0
7.891531708E0,3.004931998E-1,6.517481983E-2,-8.263337785E-1,8.816866982E-1
7.901502708E0,6.804768844E-1,-1.654196604E0,1.117636215E0,2.109152888E0
7.911473708E0,1.682624743E0,7.437558907E-1,-1.527579242E-1,1.846004831E0
7.921443708E0,1.629741940E0,2.007277505E0,-7.426016504E-1,2.690107616E0
7.931414708E0,1.308031205E0,-8.223179108E-1,3.886129689E-1,1.593164279E0
7.941385708E0,5.502928671E-1,-2.339482677E-1,-1.166864508E-1,6.092370305E-1
7.951355708E0,-2.627453297E-1,2.628671345E-1,-1.479330357E0,1.525304083E0
7.961326708E0,9.349830852E-1,-7.206035480E-1,-2.491178747E0,2.756707165E0
7.971297708E0,1.398269676E0,-3.453908771E0,-2.916425691E0,4.731826571E0
7.981267708E0,6.543605880E-1,-4.335666552E-1,-9.387891841E-1,1.223720947E0
7.991238708E0,3.918597085E-1,4.043418621E0,6.375184143E-1,4.112081943E0
8.001209708E0,7.821060971E-1,1.976084364E0,3.280874457E0,3.909058270E0
8.011179708E0,-6.008739138E-1,-2.481672928E0,2.986345527E0,3.929123259E0
8.021150708E0,-2.616026741E0,-5.439800377E0,-4.412450434E0,7.476947431E0
8.031121708E0,-1.761902901E0,-4.698564636E0,-8.728504840E0,1.006814820E1
8.041091708E0,-4.198946956E-1,5.243508178E-1,-7.328140545E0,7.358865347E0
8.051062708E0,-5.753746448E-1,-1.537832042E0,-1.945059915E0,2.545435413E0
8.061033708E0,7.626807696E-1,-6.436352450E0,6.141023036E0,8.928632524E0
8.071003708E0,1.520090567E0,-8.267126781E-1,7.529072510E0,7.725351904E0
8.080974708E0,3.608588967E0,1.666108844E0,2.313426315E1,2.347321802E1
8.090945708E0,2.296211673E0,3.535343820E0,1.278229993E1,1.345951097E1
8.100915708E0,1.293983269E0,-5.428522852E-1,6.645628976E0,6.792162085E0
8.110886708E0,-1.596506659E0,-4.581188214E-1,8.282035426E0,8.446941291E0
8.120857708E0,-3.856469395E0,8.058858315E0,-1.735042079E1,1.951549782E1
8.130827208E0,-8.923304976E-1,4.067625509E0,-7.994160043E0,9.013790867E0
8.140798208E0,-2.666615682E0,-5.488567910E-1,-5.216398147E0,5.884122076E0
8.150769208E0,-2.541508071E0,7.168069509E-1,-2.727687510E0,3.796492412E0
8.160739208E0,2.545449204E-1,3.503414514E0,9.853610873E-1,3.648238321E0
8.170710208E0,-4.830892096E-1,2.789845752E0,1.689926015E0,3.297342026E0
8.180681208E0,-1.520444177E0,-2.543350821E0,-9.564050907E-1,3.113694685E0
8.190651208E0,-8.529711349E-1,-2.464746701E0,-2.963453677E0,3.947732736E0
8.200622208E0,-1.444151754E0,5.072003496E-1,-2.967526848E0,3.339018130E0
8.210593208E0,-1.271721750E0,2.239754613E0,-2.303162697E0,3.455189625E0
8.220563208E0,-1.184284241E0,5.254544798E-1,-1.419565966E0,1.921925885E0
8.230534208E0,-6.675289562E-1,-2.554603495E0,-7.607449758E-1,2.747785807E0
8.240505208E0,4.380463168E-1,-2.284085864E0,-2.178140455E-1,2.335888646E0
8.250475208E0,-8.688713953E-2,-5.288767966E0,9.599081576E-2,5.290352560E0
8.260446208E0,-1.164503622E0,-4.001442337E0,-2.494674212E0,4.857057637E0
8.270417208E0,-1.497340951E0,-1.056863764E0,-7.235695481E-1,1.970417172E0
8.280387208E0,-1.403244779E0,3.994886146E0,2.060979211E0,4.709123755E0
8.290358208E0,-1.116380526E0,6.345373868E0,3.898428723E0,7.530459581E0
8.300329208E0,-2.345392896E0,9.938022448E0,7.207090902E-1,1.023643393E1
8.310299208E0,-1.041776778E0,-1.842987702E0,1.240787932E0,2.453865770E0
8.320270208E0,1.287044890E-1,-7.035572771E0,2.280589521E-1,7.040444585E0
8.330241208E0,2.142737611E0,-3.687669050E0,-9.807499731E-1,4.376311004E0
8.340211208E0,4.960656722E0,-8.356751148E0,-2.359476061E0,1.000052659E1
8.350182208E0,3.515348974E0,-4.588581141E0,-4.723432844E0,7.464822378E0
8.360153208E0,2.205435551E0,1.280869426E0,-7.221917102E0,7.659024683E0
8.370123208E0,2.141725604E0,-4.401771664E0,-5.935524981E0,7.693701264E0
8.380094208E0,1.207931697E-1,-1.307050334E1,5.932348773E0,1.435428196E1
8.390065208E0,-2.355034516E0,-1.042408979E1,3.065451922E1,3.246393975E1
8.400035208E0,-4.462348233E0,7.720572916E0,1.739133726E1,1.954426795E1
8.410006208E0,-1.213863039E0,1.038809199E1,5.971944364E0,1.204367212E1
8.419977208E0,-1.423083797E0,-3.445185894E0,9.836244643E-1,3.855125216E0
8.429947208E0,-6.090368461E-1,-7.113460608E0,-6.775883891E0,9.843010220E0
8.439918208E0,-2.114231850E0,-1.850360164E-1,-1.129743226E1,1.149505069E1
8.449889208E0,-1.245482662E0,3.884358860E0,-7.202458153E0,8.277371217E0
8.459859208E0,-5.174734689E-1,1.743991418E0,-4.618806276E0,4.964137011E0
8.469830208E0,-7.670318290E-1,5.435592136E-1,-5.193524424E0,5.277924819E0
8.479801208E0,-1.426794002E0,4.771858315E0,-1.753906249E0,5.280393928E0
8.489771208E0,-1.641927684E0,7.235725887E0,7.916252911E-1,7.461791087E0
8.499742208E0,-1.879284878E0,2.713910008E0,-1.910221619E0,3.813917385E0
8.509713208E0,3.659948424E-1,-6.960788637E-1,-4.116041039E0,4.190497804E0
8.519683208E0,-5.297935523E-1,-1.325047479E0,-3.764674249E0,4.026065602E0
8.529654208E0,-1.305786751E0,3.723626795E-1,-3.402535719E0,3.663465889E0
8.539625208E0,-7.696523318E-1,-2.763926799E0,7.397143537E0,7.934065072E0
8.549595208E0,-1.097811011E0,-4.854139749E0,2.132228118E1,2.189537706E1
8.559566208E0,-1.276989506E0,1.338735811E0,9.362950543E0,9.543990708E0
8.569537208E0,-3.164096497E-1,1.696142190E0,1.155266790E1,1.168080258E1
8.579507208E0,-2.668336810E0,2.004037271E0,-1.237779072E1,1.281974609E1
8.589478208E0,-1.740676339E0,-6.972602352E0,-1.188781978E1,1.389127052E1
8.599449208E0,-2.306885034E0,-4.550346198E0,-1.002663466E1,1.124992319E1
8.609419208E0,-3.571131996E0,1.058625296E1,-1.031044214E1,1.520286001E1
8.619390208E0,-5.659000213E0,2.068336061E1,1.479016362E0,2.149449182E1
8.629361208E0,-4.099409219E0,3.696772873E0,9.953309408E0,1.138154883E1
8.639331208E0,1.639232263E0,-1.385248190E1,6.367167610E0,1.533359581E1
8.649302208E0,5.165043222E0,-1.206144349E1,-3.560425744E0,1.359531986E1
8.659273208E0,1.577878599E0,7.061906292E0,-8.005399561E0,1.079104460E1
8.669243208E0,-9.162480947E-1,3.611366394E0,1.597948143E0,4.054000009E0
8.679214208E0,-2.594761149E-1,-3.152702028E0,3.512216620E0,4.726787865E0
8.689185208E0,-1.210541017E-1,-1.040338071E0,-8.467375206E0,8.531904844E0
8.699155208E0,-2.727080569E0,1.202798572E-1,-9.438664969E0,9.825468542E0
8.709126208E0,-3.991859920E0,-4.349100238E0,-8.533752798E0,1.037663507E1
8.719097208E0,-1.655150285E0,-1.114479069E1,-2.713754765E0,1.158923410E1
8.729067208E0,1.532526864E0,-9.045180684E0,2.817536528E1,2.963132027E1
8.739038208E0,-8.038404170E-1,3.208283321E0,2.666907575E1,2.687338539E1
8.749009208E0,-1.520547088E0,8.205521101E0,-2.035604049E0,8.589896614E0
8.758979208E0,2.636756875E0,5.052583138E0,-1.251411505E1,1.375078756E1
8.768950208E0,1.619569393E0,-3.918367436E0,1.022747015E0,4.361492845E0
8.778921208E0,-1.393394414E0,-5.170558316E0,1.195281275E1,1.309755526E1
8.788891208E0,-2.966657074E0,1.999920246E0,6.435350822E0,7.363047969E0
8.798862208E0,1.639951032E-1,-6.098023782E0,-3.707583790E0,7.138554895E0
8.808833208E0,-1.121218219E0,-6.284607849E0,-4.558496339E0,7.844317369E0
8.818803208E0,-9.627477848E-1,2.615758646E0,-4.149887062E0,4.999063835E0
8.828774208E0,-1.105958448E-1,4.029008743E0,-4.689738849E0,6.183752369E0
8.838745208E0,-5.375120962E-1,-2.371300301E-1,-2.175790460E0,2.253711168E0
8.848715208E0,-3.453022040E-2,-2.348393249E0,-2.527337344E0,3.450156118E0
8.858686208E0,2.231560618E-1,-9.066487938E-1,-2.148346553E0,2.342478084E0
8.868657208E0,-8.505184472E-2,8.434099871E-1,-2.892279614E0,3.013943528E0
8.878627208E0,-5.273359676E-1,-1.047917524E-1,-3.965583410E0,4.001864105E0
8.888598208E0,-3.727405559E-1,-2.815103677E0,-1.290440149E0,3.119131291E0
8.898569208E0,-4.944184823E-1,-1.546105268E0,4.480280474E0,4.765270639E0
8.908539208E0,-1.564745022E0,1.680514629E0,6.535266289E0,6.926922973E0
8.918510208E0,-4.081786296E-1,-3.217544433E-1,3.131535400E0,3.174373903E0
8.928481208E0,8.519146161E-1,-6.843657798E0,-1.693399261E0,7.101338721E0
8.938451208E0,2.056666012E-1,-1.256232651E1,-7.511017478E0,1.463795510E1
8.948422208E0,8.896179742E-1,-6.238438234E-1,-8.290306313E0,8.361206852E0
8.958393208E0,-2.715634060E0,1.668657236E1,-3.229603146E0,1.721181867E1
8.968363208E0,-5.059099860E0,2.814945509E1,9.773743755E-1,2.861715524E1
8.978334208E0,-1.098561574E0,9.643771260E0,4.413821606E0,1.066259738E1
8.988305208E0,1.326452273E0,-8.454555770E0,8.579445280E0,1.211799778E1
8.998275208E0,4.183506798E0,-1.448263516E1,7.239101484E0,1.672282992E1
9.008246208E0,-2.503306749E0,-6.716811810E0,-7.964405901E0,1.071512328E1
9.018217208E0,-1.851231692E0,2.211075482E0,-1.483886742E1,1.511647776E1
9.028188208E0,2.803864159E0,-2.324824584E0,-6.226626858E0,7.213691538E0
9.038158208E0,2.217457718E0,-2.690176745E0,4.418862491E0,5.628544693E0
9.048129208E0,-9.656636450E-1,-2.156304029E-1,7.989920812E0,8.050952572E0
9.058099208E0,-1.668442175E0,3.975194478E0,7.552671288E0,8.696477103E0
9.068070208E0,-1.803397521E0,2.031475330E0,2.375890365E0,3.608876510E0
9.078041208E0,-2.039169681E0,-1.218851810E0,1.760655105E-2,2.375736247E0
9.088012208E0,-1.493293508E0,1.101697290E-1,-2.283279240E0,2.730462774E0
9.097982208E0,5.867133827E-1,2.306700847E0,-6.834395224E-1,2.476326104E0
9.107953208E0,6.929587895E-1,-2.565584274E0,-1.389291422E0,2.998757277E0
9.117924208E0,6.859754598E-1,-3.955965909E0,-7.044655252E-1,4.076334172E0
9.127894208E0,1.212985007E0,-4.448824793E-1,-2.024832308E-1,1.307766227E0
9.137865750E0,2.145719253E0,7.081337759E-1,1.287109575E0,2.600426045E0
9.147836750E0,3.069644668E0,-1.801291207E0,2.866209219E0,4.569740002E0
9.157806750E0,3.383283761E0,-2.877321267E0,5.942476151E0,7.418801082E0
9.167777750E0,3.155205513E0,2.560269447E0,-7.613226807E-1,4.133994883E0
9.177748750E0,2.310852809E0,4.273497786E0,-2.854828198E0,5.634968329E0
9.187718750E0,2.018311347E0,3.788984048E0,-9.195875711E0,1.014860143E1
9.197689750E0,-4.783861845E-1,-1.488827697E0,-7.868420348E0,8.022312636E0
9.207660750E0,-1.041013205E0,-5.409400703E0,-2.634698655E0,6.106305058E0
9.217630750E0,-1.606250605E-1,-2.916873003E0,4.577871673E0,5.430548553E0
9.227601750E0,7.198813438E-1,1.908915059E0,5.312105373E0,5.690399753E0
9.237572750E0,2.820031418E0,3.194903722E0,4.973695428E0,6.549628478E0
9.247542750E0,4.932774713E-1,1.955171212E0,1.995532495E0,2.836929162E0
9.257513750E0,7.085097519E-1,2.043766177E0,-2.338826619E0,3.185761481E0
9.267484750E0,2.234341407E0,2.922864353E0,-7.022834027E0,7.928153336E0
9.277454750E0,-1.980887925E-1,1.858616140E0,-1.049352080E1,1.065868997E1
9.287425750E0,5.932627759E-1,-3.923417676E0,-6.439812248E0,7.564148912E0
9.297396750E0,-1.315493421E0,-7.199366730E0,3.427975785E0,8.081610127E0
9.307366750E0,8.772925553E-1,-4.996355143E0,2.872883230E1,2.917325852E1
9.317337750E0,-1.934499843E0,7.252848288E0,1.179824277E1,1.398372734E1
9.327308750E0,4.255220267E0,4.330635023E0,9.539072771E0,1.130730775E1
9.337278750E0,-2.642330149E0,-1.859285646E0,4.500396650E0,5.540074164E0
9.347249750E0,3.073719301E0,1.149203871E0,-1.703252755E1,1.734576071E1
9.357220750E0,6.367712863E-1,1.989700775E0,-6.253548024E0,6.593273066E0
9.367190750E0,4.542516191E-1,6.508336937E-1,-4.539699295E0,4.608557119E0
9.377161750E0,4.968439439E-1,-8.642892247E-1,-3.231143303E0,3.381440050E0
9.387132750E0,-2.008032673E0,-1.953803256E0,3.335392141E-1,2.821487336E0
9.397102750E0,1.916854700E0,-1.992345178E-1,1.137282275E0,2.237730392E0
9.407073750E0,3.810310598E0,7.221334720E-1,2.626738256E0,4.683983077E0
9.417044750E0,3.478563555E0,-1.170390379E0,-3.802795172E-2,3.670376571E0
9.427014750E0,3.153998063E0,-1.464443931E-1,7.767376953E-1,3.251533667E0
9.436985750E0,1.585711091E0,6.479384449E-1,9.969841826E0,1.011593050E1
9.446956750E0,1.345555565E0,4.097682536E0,6.298116086E0,7.633334015E0
9.456926750E0,3.079103124E0,-3.899712771E-2,3.185695819E0,4.430694605E0
9.466897750E0,1.512768245E0,-4.474526230E-1,-6.624788915E0,6.810030087E0
9.476868750E0,2.078047233E0,-2.440297738E0,-6.310699294E0,7.078012358E0
9.486838750E0,-3.142629907E0,-1.020886899E1,-6.841729971E0,1.268488856E1
9.496809750E0,-2.882111891E0,-4.450012070E0,-4.839814070E0,7.178647269E0
9.506780750E0,-4.406242445E-1,5.944907423E0,2.402605709E0,6.427175755E0
9.516751750E0,2.778869139E-1,1.517719784E1,2.735300000E0,1.542421542E1
9.526721750E0,3.736895882E0,1.001920402E1,4.613074835E0,1.164599929E1
9.536692750E0,4.689788842E0,-9.983640085E0,8.227323030E0,1.376066979E1
9.546663750E0,4.748855953E0,-1.249126997E1,5.247474929E0,1.435686078E1
9.556633750E0,2.801788982E0,-1.408303936E0,-3.766657625E0,4.901127538E0
9.566604750E0,2.229224947E0,-1.708605530E0,-1.752840301E0,3.310774206E0
9.576575750E0,-2.324652859E-1,-1.336304539E0,1.513928332E0,2.032665473E0
9.586545750E0,-6.732759652E-1,3.019293417E0,1.463546968E0,3.422192717E0
9.596516750E0,-2.586357055E-1,3.093193452E0,5.039001811E-1,3.144622959E0
9.606487750E0,-9.234629010E-1,-2.170568311E-1,-1.452593379E0,1.734913520E0
9.616457750E0,-2.360971341E0,-2.297084809E0,-1.996908930E0,3.852068219E0
9.626428750E0,-2.810311591E0,-4.650243831E-1,-9.508063817E-1,3.003020428E0
9.636399750E0,-2.265961395E0,1.009165687E0,1.939372913E0,3.148676503E0
9.646369750E0,-1.539520426E0,8.603926402E-1,3.461554590E0,3.884940002E0
9.656340750E0,-2.071840121E0,1.773654635E0,7.784526837E-1,2.836258245E0
9.666311750E0,-2.606633774E0,6.765845391E-1,-1.244885076E0,2.966824080E0
9.676281750E0,-2.227321679E0,-5.026430297E-1,-3.219786256E0,3.947231360E0
9.686252750E0,-2.582960737E0,-5.166115601E0,-5.395236992E0,7.903734483E0
9.696223750E0,-3.065450168E0,-6.260306820E0,-1.039271831E1,1.251387310E1
9.706193750E0,-2.971710823E0,-2.882062774E0,-1.135260425E1,1.208383111E1
9.716164750E0,-2.677005307E0,1.828534555E0,1.823946537E0,3.719768407E0
9.726135750E0,-1.380350153E0,5.825913076E0,7.214709824E0,9.375428927E0
9.736105750E0,-8.296553624E-1,1.617693021E0,7.885521115E0,8.092385432E0
9.746076750E0,2.426192207E0,-3.254980647E0,4.752699328E0,6.250556659E0
9.756047750E0,2.919953024E0,-8.589241120E-1,1.556381457E0,3.418508378E0
9.766017750E0,-4.259646317E0,5.010925235E0,-1.102562210E1,1.283815801E1
9.775988750E0,3.665430554E-1,-7.637194544E-1,-5.313301129E0,5.380407987E0
9.785959750E0,2.946333395E-1,-7.716138972E0,1.163736833E0,7.808962342E0
9.795929750E0,-6.057650731E-1,-4.445751789E0,5.285901076E0,6.933427037E0
9.805900750E0,-1.156075811E0,5.437560893E0,2.933626446E0,6.285677678E0
9.815871750E0,-3.056331728E0,7.135668333E0,-2.907774151E0,8.289395436E0
9.825842750E0,-3.056500420E0,-1.337970995E0,-9.143820289E0,9.733540501E0
9.835812750E0,-2.644894737E0,-7.621673695E0,-1.011472180E1,1.293804371E1
9.845783750E0,-4.319049496E-1,-4.282025950E0,-1.834499007E0,4.678426523E0
9.855754750E0,8.546497974E-1,-1.162879631E0,9.233186794E0,9.345290455E0
9.865724750E0,2.952550667E0,-1.928058843E0,7.266859971E0,8.077265638E0
9.875695750E0,7.499616138E-1,-5.100495808E0,1.259569540E1,1.360988767E1
9.885666750E0,7.332509585E0,-4.396408305E0,1.231322577E1,1.499031793E1
9.895636750E0,4.954294367E0,1.886364979E0,8.092053543E0,9.673920407E0
9.905607750E0,-3.538959738E0,3.238026060E0,1.860689855E0,5.145018516E0
9.915578750E0,-3.656168053E0,-2.708629388E0,-9.963211083E-1,4.657992459E0
9.925548750E0,-4.921484470E0,-2.924313585E0,-6.964943084E0,9.015711370E0
9.935519750E0,-9.272090074E0,3.060202000E0,-8.362047556E0,1.285536191E1
9.945490750E0,1.616374036E0,5.025585374E0,1.015927524E1,1.144901947E1
9.955460750E0,2.227697216E0,2.029389043E0,1.611487020E1,1.639420924E1
9.965431750E0,-1.091451652E0,3.479239494E0,-1.702750713E0,4.024392396E0
9.975402750E0,1.713667611E-1,9.312270970E0,-1.269358714E1,1.574404369E1
9.985372750E0,6.375281353E-2,1.701538001E0,-1.163800801E1,1.176190998E1
9.995343750E0,1.197540464E0,-7.757271211E0,-1.277250350E1,1.499153780E1
1.000531475E1,2.996317587E-1,-2.952920211E0,-1.030337636E1,1.072236361E1
1.001528475E1,-8.153828207E-1,3.220693451E0,-9.930624551E-1,3.467547908E0
1.002525575E1,1.125869387E0,4.409359011E0,1.074906517E1,1.167272166E1
1.003522675E1,3.025547014E0,-3.309538970E0,1.175020673E1,1.257673809E1
1.004519675E1,9.132904999E-1,-5.786288250E0,-9.918930119E-1,5.941303140E0
1.005516775E1,7.784124841E-1,1.417029152E0,-8.555162378E0,8.706589512E0
1.006513875E1,-1.973067200E0,7.746536892E0,-5.520999491E0,9.715104908E0
1.007510975E1,-1.715180870E0,5.888705156E0,-5.476392837E0,8.222504019E0
1.008507975E1,1.903767535E-2,-1.654914057E-1,3.882758185E0,3.886330012E0
1.009505075E1,-1.776323743E0,-2.432449020E0,1.160414094E1,1.198867054E1
1.010502175E1,-2.465886031E0,4.543464610E0,8.805977524E0,1.021121465E1
1.011499175E1,1.097493800E0,3.022881854E0,-3.071643539E0,4.447167792E0
1.012496275E1,2.104843561E0,-7.750872018E0,-1.026914442E1,1.303693640E1
1.013493333E1,3.253295187E0,-1.184153439E1,-1.084822927E1,1.638566277E1
1.014490333E1,4.575248905E0,-5.151502824E0,4.396655935E-1,6.903925675E0
1.015487433E1,3.758790489E0,3.452273889E0,1.206824146E1,1.310302076E1
1.016484533E1,4.201144339E0,5.722903848E0,1.452706581E1,1.616900997E1
1.017481533E1,4.441358191E0,-1.746211313E0,6.753099046E0,8.269175488E0
1.018478633E1,2.046439415E-1,-2.798886132E0,4.140717459E-1,2.836740759E0
1.019475733E1,-3.861739783E0,-1.116231129E0,8.375551701E-1,4.106154497E0
1.020472733E1,-4.972336535E0,-2.163270109E0,-1.669982332E-1,5.425104294E0
1.021469833E1,-2.979144973E0,-3.197254888E0,-2.507310045E0,5.038288127E0
1.022466933E1,-1.287752915E0,-1.561823753E0,-9.016386656E0,9.240824061E0
1.023463933E1,-5.731827430E-1,2.086591477E0,-1.000626881E1,1.023756895E1
1.024461033E1,2.486554403E-1,2.636755705E0,-5.940389280E0,6.504039896E0
1.025458133E1,1.513636556E0,-1.885528535E0,2.792163588E0,3.693574283E0
1.026455133E1,1.391872237E0,-2.359143647E0,7.261695710E0,7.761126958E0
1.027452233E1,1.325414684E0,2.171836280E0,2.729842209E0,3.731706768E0
1.028449333E1,1.792595667E0,2.880685755E0,-2.814943171E-1,3.404554111E0
1.029446333E1,9.366335350E-1,-1.651893678E0,1.111848056E0,2.200509305E0
1.030443433E1,4.725727730E-1,-6.163935935E-1,6.194686443E-1,9.934825057E-1
1.031440533E1,-4.697700198E-1,5.271951374E0,-2.606505720E0,5.899832814E0
1.032437633E1,4.608432584E-1,6.190661219E0,-5.712549013E0,8.436224219E0
1.033434633E1,1.364361234E0,-3.246935463E-1,-1.070657463E1,1.079803907E1
1.034431733E1,1.235615485E0,-8.138161762E0,-8.627539213E0,1.192438071E1
1.035428833E1,2.238530791E0,-8.098166807E0,1.443064055E1,1.669834460E1
1.036425833E1,1.386312851E0,2.227956394E0,2.237049282E1,2.252386739E1
1.037422933E1,5.289506469E0,1.416567748E1,6.559961420E0,1.648266941E1
1.038420033E1,5.005354593E0,8.437695324E0,-4.101796052E0,1.063357926E1
1.039417033E1,6.721373223E0,-3.004998145E-1,-1.161592191E1,1.342374016E1
1.040414133E1,6.117030156E0,-3.471719097E0,-1.272215079E1,1.453698773E1
1.041411233E1,4.247630873E0,-6.031213496E0,-1.110832980E0,7.460017036E0
1.042408233E1,2.680712149E0,-2.973686597E0,9.330310800E0,1.015301577E1
1.043405333E1,1.005900748E0,-9.868933502E-1,8.954757003E0,9.064958233E0
1.044402433E1,7.614701767E-1,-2.242681145E0,1.278726422E0,2.691578869E0
1.045399433E1,6.955549532E-1,-1.200522251E0,-4.942828562E0,5.133868381E0
1.046396533E1,2.892909944E-2,1.699247646E-1,-3.516828319E0,3.521049949E0
1.047393633E1,-1.284698183E0,7.280719042E-2,-2.917818498E0,3.188952037E0
1.048390633E1,-1.552371436E-1,1.802903285E0,-3.964096463E0,4.357593326E0
1.049387733E1,1.980891067E0,6.206123596E-1,-2.861508057E0,3.535154520E0
1.050384833E1,2.626252352E0,-5.123730889E-1,1.979556733E0,3.328418912E0
1.051381833E1,2.478386208E0,-2.913652942E-1,8.627284275E0,8.980942372E0
1.052378933E1,3.346293105E0,-2.955899075E-1,7.253549370E0,7.993686846E0
1.053376033E1,5.361887398E0,-8.439128476E-1,6.383945611E0,8.379545747E0
1.054373033E1,5.160582381E0,-3.353967284E0,2.347026170E0,6.587050849E0
1.055370133E1,4.320751474E0,1.349194433E0,-3.928086970E0,5.993253387E0
1.056367233E1,6.287216291E0,5.768760052E0,-9.504039763E0,1.277240984E1
1.057364333E1,3.032651966E0,9.791200032E0,-1.486123185E1,1.805327638E1
1.058361333E1,-4.124761869E-1,-2.760400343E-1,-1.155572599E1,1.156637964E1
1.059358433E1,-2.964708490E0,-1.417366477E1,5.835417141E0,1.561199420E1
1.060355533E1,-1.969633862E0,-9.131827065E0,1.989282407E1,2.197712839E1
1.061352533E1,1.426377826E-1,4.683404852E0,5.299087717E0,7.073539226E0
1.062349633E1,1.001373322E0,6.717607616E0,-8.160380012E0,1.061700535E1
1.063346733E1,-2.383763349E0,-3.631469122E0,-8.035805082E0,9.134771973E0
1.064343733E1,-2.461811399E0,-2.964565818E0,1.602423602E-1,3.856791862E0
1.065340833E1,1.185501120E0,1.616394062E0,1.073587502E1,1.092140811E1
1.066337933E1,3.403813043E0,-1.039451633E0,1.775912362E1,1.811222997E1
1.067334933E1,-3.010739526E0,8.258545992E-1,4.868615701E0,5.783598114E0
1.068332033E1,4.681527531E-1,1.035106274E0,-1.337365224E0,1.754752900E0
1.069329133E1,8.604340093E-1,-4.002797721E0,-3.699287760E-1,4.110910311E0
1.070326133E1,-1.480615868E0,-1.675840950E0,1.121267921E0,2.501581097E0
1.071323233E1,-1.253582663E0,-2.905979933E0,1.989471856E0,3.738206406E0
1.072320333E1,-4.533871375E0,-6.931125712E-1,2.129175872E-1,4.591484355E0
1.073317333E1,-5.574164130E0,1.586653954E0,-2.671968808E0,6.381864448E0
1.074314433E1,-4.273326463E0,-2.686817519E0,-3.645471742E0,6.226537694E0
1.075311533E1,-1.798725157E0,-1.061383369E0,-5.169400567E0,5.575360891E0
1.076308533E1,-2.343380431E0,4.381615142E0,-3.553631279E0,6.108868829E0
1.077305633E1,-5.314511283E-1,6.362606782E0,-6.044617653E-1,6.413312669E0
1.078302733E1,-2.135984680E-2,4.032501577E0,2.926853031E-1,4.043165826E0
1.079299833E1,-1.155883510E0,-3.741043897E0,1.778930578E0,4.300705771E0
1.080296833E1,-7.928120566E-1,-6.110602312E0,1.136315145E0,6.265718130E0
1.081293933E1,-5.649832290E-1,-4.358684701E0,1.107269102E0,4.532480914E0
1.082291033E1,-3.780811834E-1,-1.127834052E0,8.033980751E-1,1.435410567E0
1.083288033E1,-9.933886566E-1,3.357322124E-1,3.958816427E-1,1.120829789E0
1.084285133E1,-1.537658526E0,1.648725657E0,1.341481664E0,2.623406771E0
1.085282233E1,-1.768469470E0,2.933316251E0,-2.443580657E-1,3.433881093E0
1.086279233E1,-2.849498753E0,9.611989304E-1,-2.291208649E0,3.780632699E0
1.087276333E1,-3.205217918E0,3.670424150E0,-5.151415116E0,7.091016362E0
1.088273433E1,-3.719646596E0,7.432547843E0,-5.452355518E0,9.940156887E0
1.089270433E1,-3.475046163E0,5.747144065E0,-7.215621990E-1,6.754721515E0
1.090267533E1,-1.615651904E0,-4.260717527E0,6.920501906E0,8.285975595E0
1.091264633E1,1.317249340E0,-8.461361929E0,4.236751544E0,9.554049150E0
1.092261633E1,2.168159258E0,-3.530935312E0,-1.681860951E0,4.471808919E0
1.093258733E1,2.494135976E0,2.130807829E0,-2.689749606E0,4.242146770E0
1.094255833E1,2.631288851E0,5.280714011E-1,2.840884928E0,3.908090019E0
1.095252833E1,8.659689836E-1,-2.951193528E0,5.750486918E0,6.521314692E0
1.096249933E1,2.739033155E-2,-3.655556434E-1,4.344062569E0,4.359502353E0
1.097247033E1,2.428750291E-1,2.593942977E0,8.208601999E-1,2.731545335E0
1.098244033E1,1.047683197E0,1.020910112E0,-6.219443554E-1,1.589563562E0
1.099241133E1,1.527114973E0,-1.166468944E0,-3.749807703E0,4.213524386E0
1.100238233E1,2.009333094E0,-1.327015360E0,-4.103955429E0,4.758239108E0
1.101235333E1,1.433166005E0,-5.650977248E-1,-3.861644474E0,4.157595252E0
1.102232333E1,1.766836635E0,-1.583361679E-1,-1.697970614E0,2.455582669E0
1.103229433E1,1.607323861E0,-1.636459660E0,-4.676357496E-1,2.340977020E0
1.104226533E1,1.502698755E0,-2.564953651E0,1.583963358E0,3.368386958E0
1.105223533E1,1.268130828E0,-5.420035619E-1,-6.448321116E-1,1.522409968E0
1.106220633E1,1.526052534E0,-5.342840677E-1,-5.716409930E0,5.940676585E0
1.107217733E1,1.162042163E0,-1.252654856E0,-8.055318995E0,8.234540078E0
1.108214733E1,2.873670960E-1,-3.733959410E0,-8.642105797E0,9.418653053E0
1.109211833E1,9.332966021E-1,-5.590056862E0,-9.910176837E0,1.141627712E1
1.110208933E1,-1.118528043E-2,-8.091141962E0,1.803234529E1,1.976441702E1
1.111205933E1,-3.005450719E0,-1.807722268E-1,3.388319266E1,3.401670410E1
1.112203033E1,2.316296713E0,1.327532663E1,4.797735752E0,1.430446769E1
1.113200175E1,4.640106513E0,7.171862597E0,-1.741024248E0,8.717646873E0
1.114197175E1,-2.105415418E0,-4.597038554E0,2.850393085E0,5.804332717E0
1.115194275E1,-2.160470170E-1,1.468183225E-1,-4.710740293E0,4.717976902E0
1.116191375E1,9.469028536E-1,7.402243479E0,-9.309870104E0,1.193161828E1
1.117188375E1,1.319926342E0,5.432719399E0,-2.884580585E0,6.291061180E0
1.118185475E1,4.696612251E0,-1.731211158E0,1.010381323E0,5.106479132E0
1.119182575E1,1.628950373E0,-3.178777686E0,1.214022303E-1,3.573911778E0
1.120179675E1,1.193646437E0,1.745496783E0,-2.218936479E0,3.065163933E0
1.121176675E1,2.849137980E0,2.822596299E0,-3.017595971E0,5.019016093E0
1.122173775E1,2.574291947E0,-2.596678305E0,-5.810170033E0,6.864968540E0
1.123170875E1,3.392685718E-1,-7.759051103E0,-6.869286144E0,1.036846514E1
1.124167875E1,-5.074943183E-1,-4.623873180E0,-6.830488699E0,8.263977828E0
1.125164975E1,3.400882236E-2,-9.736903372E-1,-2.939274271E0,3.096540443E0
1.126162075E1,-1.599655092E0,-3.059062085E0,1.114793182E1,1.167018171E1
1.127159075E1,-2.622845764E0,-2.519533650E0,1.621994233E1,1.662269229E1
1.128156175E1,-1.965411587E0,1.600095241E0,4.013820600E0,4.746988866E0
1.129153275E1,8.993868443E-1,-1.972318757E0,2.245124989E0,3.120821076E0
1.130150275E1,1.022056605E0,-9.113441080E0,7.698492660E0,1.197356243E1
1.131147375E1,-2.573507799E-1,-2.432341724E0,5.704473424E-1,2.511558452E0
1.132144475E1,2.062231465E-1,1.357677632E1,-5.917088710E0,1.481159418E1
1.133141475E1,-1.517893622E0,2.141204296E1,-8.999223908E0,2.327585907E1
1.134138575E1,-1.699522758E0,1.598953046E1,-1.416548101E1,2.142928637E1
1.135135675E1,1.313748904E0,-6.875523954E0,-1.503510231E1,1.658472392E1
1.136132675E1,3.904802188E0,-2.561936956E1,-1.395355102E1,2.943299446E1
1.137129775E1,3.624697754E0,-2.187280589E1,2.955147006E1,3.694384189E1
1.138126875E1,-6.534846020E-1,3.354834133E0,4.252920382E1,4.266632315E1
1.139123975E1,8.478722897E-1,6.147226932E0,-1.297677715E1,1.438415905E1
1.140120975E1,5.479424618E0,8.371876141E0,-9.224800717E0,1.360916429E1
1.141118075E1,-5.128267744E0,-8.580202494E0,-1.502073687E0,1.010817641E1
1.142115175E1,-1.307706977E0,7.394539772E0,-5.944666518E0,9.577493200E0
1.143112175E1,-1.706732375E0,-1.427726340E-1,6.196157017E0,6.428505363E0
1.144109275E1,-2.206945009E0,-6.576683872E0,5.237124188E0,8.691999010E0
1.145106375E1,6.470517877E-1,-1.359660949E0,-7.570998216E-1,1.685394332E0
1.146103375E1,-1.699970801E0,4.368855056E0,-4.949350546E0,6.817101000E0
1.147100475E1,-1.965884042E0,7.151114337E0,-2.524897301E0,7.834426764E0
1.148097575E1,-3.145345646E0,4.903457212E0,-4.820968494E0,7.561668406E0
1.149094575E1,-3.137471201E0,-1.483089825E0,-4.669521516E0,5.817878664E0
1.150091675E1,-3.670428243E0,-2.341925644E0,-6.122313700E0,7.512615007E0
1.151088775E1,-2.573452579E0,2.091086524E0,-1.629099770E0,3.694491452E0
1.152085775E1,-4.427038798E-1,1.370917424E0,1.387626603E1,1.395084801E1
1.153082875E1,6.004005086E-2,-2.490472403E0,1.811254220E1,1.828305889E1
1.154079975E1,-8.086147416E-1,-1.112144803E0,-1.159643197E-1,1.379917239E0
1.155077075E1,7.339123955E-1,-3.743123459E0,-3.596176790E0,5.242336134E0
1.156074075E1,1.560295437E0,-2.784276571E0,-1.211173071E1,1.252520414E1
1.157071175E1,-2.088132218E0,4.699904233E-2,-1.199506356E1,1.217555152E1
1.158068275E1,-7.354518212E-1,2.837264039E0,-1.235549529E1,1.269839440E1
1.159065275E1,-5.643891007E0,7.035935884E0,-1.253625728E1,1.544395176E1
1.160062375E1,-3.984012664E0,4.670053320E0,1.586130804E1,1.700772905E1
1.161059475E1,4.938531297E-1,-1.769658940E0,3.994334988E1,3.998558219E1
1.162056475E1,4.555429182E0,-2.242148756E0,1.722484715E1,1.795757571E1
1.163053575E1,1.116013247E0,-3.156711464E0,-1.907477053E1,1.936639315E1
1.164050675E1,-6.915263678E-1,-1.066805083E1,-1.693150404E1,2.002401923E1
1.165047675E1,-1.343714131E0,-5.500948219E0,-1.175058446E1,1.304385810E1
1.166044775E1,-2.665020269E0,2.549294516E0,-9.765882173E0,1.043904642E1
1.167041875E1,-3.419043578E0,-1.451601691E0,-7.556421107E0,8.420006319E0
1.168038875E1,-2.389323466E0,-8.372616398E0,2.918737096E-1,8.711759997E0
1.169035975E1,3.821957082E0,-1.028961669E1,3.225058924E1,3.406734616E1
1.170033075E1,6.679252220E0,-5.228201337E0,4.316035695E1,4.398593993E1
1.171030175E1,-3.593860416E0,9.359903558E0,-5.876019037E0,1.162115429E1
1.172027175E1,-1.464609700E0,6.167963498E0,-1.633234921E1,1.751954582E1
1.173024275E1,-1.658312020E-1,-3.584359860E0,-1.228038079E1,1.279386133E1
1.174021375E1,-2.166402755E0,2.660893012E0,-1.209147128E1,1.256890330E1
1.175018375E1,5.168688668E-1,7.094686368E0,-6.220893663E0,9.449933653E0
1.176015475E1,2.432398588E-1,5.365060097E-1,4.790894510E0,4.826973641E0
1.177012575E1,1.492941798E0,-4.583687314E0,1.678200944E1,1.746066739E1
1.178009575E1,-8.462200128E-2,-5.066029980E0,1.089740202E1,1.201770325E1
1.179006675E1,-3.975645298E0,-1.798630432E0,-1.049378977E1,1.136487795E1
1.180003775E1,-2.202845088E0,-1.276728428E0,-2.090943033E1,2.106387521E1
1.181000775E1,1.026100320E0,-6.948284951E0,-1.020382869E1,1.238748019E1
1.181997875E1,1.277714415E0,-3.170819333E-1,-4.205424501E0,4.406664307E0
1.182994975E1,-2.145707997E0,1.658355962E1,-1.967227294E0,1.683711661E1
1.183991975E1,-2.713507428E0,2.767431503E1,7.014001223E0,2.867798891E1
1.184989075E1,-1.158826999E0,3.179381996E0,1.834625658E1,1.865573585E1
1.185986175E1,2.537003668E0,-1.611568531E1,1.920817125E1,2.520130043E1
1.186983275E1,-3.943363698E0,-2.444032062E1,-3.497003335E0,2.500216834E1
1.187980275E1,-2.177203732E0,-2.052297265E0,-2.638860118E1,2.655768086E1
1.188977375E1,7.033926196E0,1.524392042E1,-1.240955397E1,2.087702702E1
1.189974475E1,5.288901867E0,7.466714879E0,-8.939929048E0,1.279244486E1
1.190971475E1,5.148133878E-1,7.411212523E0,-8.759221433E0,1.148542833E1
1.191968575E1,1.739489939E0,2.487587972E0,8.100917922E0,8.650941587E0
1.192965675E1,6.685128672E0,-5.065822989E0,2.558923769E1,2.692884315E1
1.193962675E1,5.038546312E0,-8.492673769E0,1.935053107E1,2.172453703E1
1.194959775E1,-4.550388005E0,-3.407685362E0,-6.095422940E0,8.335018377E0
1.195956875E1,-9.939222881E-1,-5.895563355E-1,-1.045839540E1,1.052204793E1
1.196953875E1,1.837109204E0,-2.535680151E-1,3.701326100E0,4.139937422E0
1.197950975E1,-9.003910305E-1,4.165008254E0,9.869489572E0,1.075010801E1
1.198948075E1,-2.004166348E0,2.401521050E0,1.527201512E0,3.480851988E0
1.199945175E1,-2.665524006E0,-1.538586625E0,-5.047883731E0,5.912139815E0
1.200942175E1,-2.314358068E0,-2.294871345E0,-2.822689562E0,4.311642857E0
1.201939275E1,6.787820689E-1,-5.704236612E-1,1.424879331E0,1.678216124E0
1.202936375E1,-3.477867225E-1,-1.465055257E0,-7.562812114E-1,1.685023377E0
1.203933375E1,-7.274253483E-1,3.351582204E0,-4.739575253E0,5.850284137E0
1.204930475E1,-6.704975876E-1,2.324028778E0,-5.621416649E0,6.119722373E0
1.205927575E1,-2.479995655E0,-3.442517518E0,-3.976273874E0,5.814813774E0
1.206924575E1,-1.700205420E0,-2.061044700E0,-2.967678291E0,3.993209005E0
1.207921675E1,-2.648831083E-1,-9.767715275E-2,1.481934122E0,1.508586302E0
1.208918775E1,1.763046909E0,-1.997338116E0,7.520420385E0,7.978371809E0
1.209915775E1,1.771231256E-3,-4.256520980E0,5.162230711E0,6.690784700E0
1.210912875E1,-1.276845372E0,-3.424477688E0,-1.032772066E0,3.797894111E0
1.211909975E1,-2.655857974E-1,-2.007739143E0,-2.196731093E0,2.987838646E0
1.212906975E1,-6.115353613E-1,2.830638852E0,-1.524605348E0,3.272753164E0
1.213904058E1,-1.100703190E0,6.603298059E0,-1.228792369E-2,6.694418851E0
1.214901158E1,-2.174618239E0,5.974168060E0,3.335555863E-1,6.366388915E0
1.215898258E1,-2.887311235E0,7.332779726E-1,9.816714942E-1,3.136549326E0
1.216895258E1,-1.891201211E0,-2.929491879E0,1.888831919E-1,3.492025423E0
1.217892358E1,-1.498705106E0,-2.335345772E0,-1.106059313E-1,2.777083100E0
1.218889458E1,-1.681626039E0,-5.803554493E0,5.483530533E-1,6.067108204E0
1.219886458E1,-1.109613689E-1,-3.590992941E0,8.573895103E-1,3.693597095E0
1.220883558E1,1.123975620E0,-3.359117219E-1,1.936859779E0,2.264416853E0
1.221880658E1,1.787954293E0,-1.796768386E0,2.198904503E0,3.355642740E0
1.222877658E1,1.677429346E0,-1.394255124E0,2.215821083E0,3.109273168E0
1.223874758E1,-1.169359881E0,1.192857428E0,1.552739811E0,2.280638572E0
1.224871858E1,-1.379203806E0,-5.453247803E-1,2.150619950E0,2.612421946E0
1.225868858E1,-2.183793836E0,-4.162907642E-1,1.495724196E0,2.679448523E0
1.226865958E1,-2.433264707E0,2.780415362E-1,1.056792428E0,2.667375951E0
1.227863058E1,-1.717352673E0,5.021460164E-1,1.768706721E-1,1.797980550E0
1.228860158E1,-2.680902768E0,2.071425261E0,-1.684456530E0,3.783574509E0
1.229857158E1,-3.394897501E0,1.765254233E0,-2.497981982E0,4.569613280E0
1.230854258E1,-2.714350596E0,1.220697776E0,-3.239309524E0,4.398969017E0
1.231851358E1,-1.428550505E0,1.511093895E0,-2.303749173E0,3.103453166E0
1.232848358E1,8.354647905E-1,-1.689411753E0,4.566864290E0,4.940482054E0
1.233845458E1,1.425577196E0,-6.895542482E-1,1.719836277E0,2.337860608E0
1.234842558E1,3.658947089E-1,2.264031668E0,-5.699230810E0,6.143366354E0
1.235839558E1,-2.022193752E-1,2.326452157E0,-1.139734714E1,1.163412198E1
1.236836658E1,-9.661423858E-1,-2.950045135E0,-5.127932113E0,5.994321076E0
1.237833758E1,1.577420177E-1,-4.973356290E0,4.513450559E0,6.717915695E0
1.238830758E1,3.720181324E-1,-1.986094505E-1,8.645410643E0,8.655689943E0
1.239827858E1,-4.245851127E-1,5.165167767E0,4.691235736E0,6.990488060E0
1.240824958E1,-4.649664225E-1,3.686930839E0,1.471223778E-1,3.719045278E0
1.241822058E1,7.243735403E-1,-1.222009892E0,-1.227674382E0,1.877554151E0
1.242819058E1,-1.613946272E-1,-2.219077982E0,3.332643950E-1,2.249760092E0
1.243816158E1,-2.406625523E-1,8.561361596E-1,1.045914268E0,1.372889014E0
1.244813258E1,-7.918120366E-1,2.306523969E0,1.018229456E0,2.642689983E0
1.245810258E1,2.887108044E-1,-1.212937644E0,8.445010775E-1,1.505906281E0
1.246807358E1,2.672314232E-1,-2.910700098E0,5.079487932E-1,2.966749007E0
1.247804458E1,-1.131716310E0,-9.896102589E-1,9.105284214E-2,1.506121141E0
1.248801458E1,-1.492181222E0,1.816025314E-1,1.119378101E0,1.874190921E0
1.249798558E1,-1.488870528E0,-1.950540217E0,1.323017911E0,2.787780297E0
1.250795658E1,-6.241309217E-1,-2.199221714E0,6.619258618E-1,2.379970883E0
1.251792658E1,-1.495564274E0,-5.341761866E-1,-4.902434242E-1,1.662045521E0
1.252789758E1,-1.902110654E0,1.099049378E0,-3.764799964E-1,2.228827419E0
1.253786858E1,-1.808591310E0,1.346862271E-1,6.349918324E-1,1.921550815E0
1.254783958E1,-1.348286068E-1,-1.225746847E0,2.156973535E-1,1.251862386E0
1.255780958E1,1.042302735E-1,-1.191426907E0,2.365286440E-1,1.219142249E0
1.256778058E1,2.836762056E-2,-3.840621395E0,2.435644816E0,4.547916346E0
1.257775158E1,1.455144227E0,-2.946533882E0,1.310571527E1,1.351144994E1
1.258772158E1,1.286195655E0,-6.361478269E-2,1.064809311E1,1.072568101E1
1.259769258E1,1.594479575E0,2.413922702E0,7.458593681E0,8.000000477E0
1.260766358E1,7.014049463E-2,8.125768588E0,-2.233680818E0,8.427476777E0
1.261763358E1,-1.857454298E0,6.132415935E0,-1.417796833E1,1.555864543E1
1.262760458E1,-1.492283694E0,-2.037646189E0,-1.307261770E1,1.331436240E1
1.263757558E1,-2.091391018E0,-4.823064429E0,-1.393726185E1,1.489574216E1
1.264754658E1,-1.706723312E-1,-2.559314597E0,-1.162539791E1,1.190500301E1
1.265751658E1,1.462971310E0,-1.735576397E-1,9.615810460E-1,1.759274116E0
1.266748758E1,2.897745299E0,-5.301278669E-1,1.198257040E1,1.233936614E1
1.267745858E1,2.431833747E0,-1.104173586E-1,4.863394137E0,5.438622059E0
1.268742858E1,1.644982561E0,5.575068694E-1,-3.204190562E0,3.644669902E0
1.269739958E1,1.639959219E0,3.309942135E-1,-3.293217929E0,3.693820209E0
1.270737058E1,-1.035169278E0,-7.252974004E-2,-7.248331314E-1,1.265787923E0
1.271734058E1,-1.122895055E0,-1.556119502E0,1.081014519E0,2.202497128E0
1.272731158E1,-4.873532186E-1,-2.858326295E0,6.757165200E-1,2.977269753E0
1.273728258E1,1.080869215E0,-4.810530630E-1,1.810980921E0,2.163178727E0
1.274725358E1,2.173368250E0,9.752275702E-1,3.551714562E0,4.276596158E0
1.275722358E1,1.802904308E0,2.550216329E-1,3.431494054E0,3.884668766E0
1.276719458E1,1.605682402E0,-4.412525278E-1,2.332114601E0,2.865602603E0
1.277716558E1,1.124652874E0,-3.498193243E-1,1.027689666E0,1.563126257E0
1.278713558E1,9.385161191E-1,4.723875186E0,5.360370630E-1,4.845941086E0
1.279710658E1,2.582228008E-1,4.204694476E0,1.014671425E0,4.333092747E0
1.280707758E1,3.226183695E-1,-3.890460722E0,2.540214082E0,4.657515950E0
1.281704758E1,2.121224828E0,-7.497010472E-1,1.078171602E0,2.494814709E0
1.282701858E1,1.752934149E0,-6.548279268E-1,-5.282550037E-2,1.871995801E0
1.283698958E1,1.362470537E0,-3.051395508E0,2.260289742E0,4.034383501E0
1.284695958E1,8.543176755E-1,4.938719139E-1,2.704633693E0,2.879029623E0
1.285693058E1,-3.631827702E-1,8.766537470E-1,1.747580146E0,1.988582380E0
1.286690158E1,-2.056030493E-1,2.324844173E-1,1.770513511E-1,3.573077092E-1
1.287687258E1,-6.197051641E-1,2.148103893E0,-1.054931259E0,2.472097245E0
1.288684258E1,-2.105837441E-1,2.086777126E0,-2.002422854E0,2.899772676E0
1.289681358E1,8.458414055E-2,1.246691574E0,-3.351510576E0,3.576872586E0
1.290678458E1,-4.163941137E-2,-2.825243041E-1,-4.007547122E0,4.017709268E0
1.291675458E1,1.100139299E0,-8.324651688E-1,-3.813735312E0,4.055598817E0
1.292672558E1,1.430321919E0,-4.093217602E-1,-3.305291845E0,3.624681955E0
1.293669658E1,1.838902399E0,4.509425336E-1,-3.863325548E0,4.302347672E0
1.294666658E1,1.869617676E0,-2.495533168E-2,-4.440082036E0,4.817719535E0
1.295663758E1,2.014699084E0,-4.833425403E-1,-2.646368528E0,3.360937190E0
1.296660858E1,2.036429091E0,-1.424888979E0,1.182131004E0,2.752232867E0
1.297657958E1,1.769563338E0,-9.513165513E-1,3.168095115E0,3.751424296E0
1.298654958E1,2.560106017E0,-1.161125466E-1,3.254916328E0,4.142717133E0
1.299652058E1,2.625869067E0,3.579928547E-2,2.646916412E0,3.728623934E0
1.300649158E1,1.808787630E0,1.413201857E-1,1.190035855E0,2.169762526E0
1.301646158E1,2.386409652E0,2.154447538E-1,4.904042226E-1,2.445784899E0
1.302643258E1,1.966180496E0,7.812570083E-1,7.295869178E-1,2.237973487E0
1.303640358E1,1.737042002E0,-8.034074306E-2,2.069529594E0,2.703094947E0
1.304637358E1,1.483925684E0,2.398627263E-1,2.596330395E0,3.000083513E0
1.305634458E1,2.076405627E0,1.817247382E-1,2.829578751E0,3.514398970E0
1.306631558E1,2.557401095E0,-1.272140703E0,3.265729584E0,4.338620984E0
1.307628658E1,1.999610928E0,-1.092438516E0,1.739289379E0,2.866529840E0
1.308625658E1,2.034449809E0,-1.299239331E0,1.042842141E0,2.629549124E0
1.309622758E1,1.744910015E0,-2.063043278E0,3.559317112E-2,2.702244512E0
1.310619858E1,2.172405360E0,-2.294823398E0,-1.503864105E0,3.499595223E0
1.311616858E1,1.080008505E0,-3.172666469E0,-1.512158965E0,3.676799645E0
1.312613958E1,5.674159996E-1,-2.786609610E0,-1.613043900E0,3.269413504E0
1.313611046E1,7.636091613E-1,-2.357583902E0,-3.928136086E-1,2.509104091E0
1.314608046E1,9.897964197E-1,-2.010407812E0,2.048455060E-2,2.240949830E0
1.315605146E1,1.352285272E0,-1.510840710E0,-5.561754584E-2,2.028400458E0
1.316602246E1,1.510100014E0,-7.298515043E-1,-5.670594656E-1,1.770491940E0
1.317599346E1,1.384285621E0,1.402336268E0,-1.973463349E0,2.788790290E0
1.318596346E1,1.387555676E0,3.061514115E0,-2.817974952E0,4.386246945E0
1.319593446E1,9.618137652E-1,3.133945914E0,-3.433022516E0,4.746824866E0
1.320590546E1,2.977660950E-1,1.836815381E0,-3.943908951E0,4.360845469E0
1.321587546E1,9.118791282E-1,7.691456705E-2,-2.591545034E0,2.748371347E0
1.322584646E1,7.145053406E-1,-3.690891159E-1,6.978792214E-1,1.064791090E0
1.323581746E1,1.326244989E0,1.636109412E-1,5.185474563E0,5.354889425E0
1.324578746E1,1.651129447E0,7.792253932E-1,7.428671724E0,7.649744064E0
1.325575846E1,1.550748834E0,2.828612499E0,4.523456315E0,5.555855258E0
1.326572946E1,2.706873761E0,3.191054792E0,1.985251336E0,4.631546083E0
1.327570046E1,2.323896047E0,2.437209823E0,-1.678089496E0,3.762508328E0
1.328567046E1,1.593179447E0,1.440007540E0,-3.876309291E0,4.431435002E0
1.329564146E1,1.784010346E0,4.299255940E-1,-1.180323045E0,2.181900873E0
1.330561246E1,2.965676350E-1,-3.444536269E-2,1.216552978E0,1.252653181E0
1.331558246E1,6.591739429E-1,1.982368951E0,-7.466333055E-1,2.218503603E0
1.332555346E1,-2.002394349E-1,2.384978693E0,-3.156419395E0,3.961212263E0
1.333552446E1,-1.956680817E-1,8.562855560E-1,-4.131537915E0,4.223874583E0
1.334549446E1,-1.674347571E0,-1.637349314E0,-3.108932403E0,3.892276101E0
1.335546546E1,-1.875020504E0,-2.454947644E0,-1.042853251E0,3.260370029E0
1.336543646E1,-1.660815798E0,-1.955605660E0,1.305254654E0,2.878609443E0
1.337540746E1,-5.723288668E-1,-2.120529594E0,2.987511461E0,3.708022495E0
1.338537746E1,-1.016489105E-1,-2.009168495E0,3.318368558E0,3.880548985E0
1.339534846E1,4.295117208E-1,-2.389043677E0,2.184054329E0,3.265287632E0
1.340531946E1,-3.873637844E-2,-1.397395663E0,6.238569796E-1,1.530820916E0
1.341528946E1,8.003582539E-1,-8.582586989E-1,-2.020768493E-1,1.190804930E0
1.342526046E1,1.175709153E0,-1.568496011E0,-1.024956093E0,2.212014182E0
1.343523146E1,1.392605039E0,6.974149525E-2,-2.286530292E-1,1.412973772E0
1.344520146E1,1.090615866E0,2.658880692E0,2.649794412E-1,2.886053293E0
1.345517246E1,1.581349652E0,2.724843132E0,5.569689256E-1,3.199320428E0
1.346514346E1,1.653141181E0,6.447654533E-1,7.319930470E-1,1.919482242E0
1.347511446E1,1.379705789E0,-1.622249464E0,3.342718703E-1,2.155694568E0
1.348508446E1,1.247958227E0,-2.999215248E0,-5.931509113E-1,3.302199244E0
1.349505546E1,6.058676187E-1,-7.350967491E-1,-5.966820449E-1,1.124042821E0
1.350502646E1,6.799879110E-1,-7.042939094E-1,9.479166877E-1,1.362703019E0
1.351499646E1,-2.525047355E-1,-2.404199660E0,2.449224390E0,3.441312941E0
1.352496746E1,1.180066352E0,-8.046964493E-1,4.295830641E0,4.527057971E0
1.353493846E1,1.161317767E0,1.826789745E0,4.423696384E0,4.924927352E0
1.354490946E1,5.145346583E-1,1.707712660E0,1.531900334E0,2.351116135E0
1.355487946E1,1.216413814E0,1.165769033E0,-1.351581559E0,2.159965906E0
1.356485046E1,7.140673111E-1,2.634509790E-1,-2.686332493E0,2.792074642E0
1.357482146E1,4.386030813E-1,7.163391736E-1,-4.630881945E0,4.706440488E0
1.358479146E1,-3.558930465E-1,1.294518289E0,-4.694074559E0,4.882291821E0
1.359476246E1,-5.192533979E-2,6.638028181E-1,-2.412070597E0,2.502281956E0
1.360473346E1,-9.365639714E-2,-2.245421442E-1,-1.744949484E-1,2.993980332E-1
1.361470346E1,1.676268820E-2,-1.376401235E0,3.332404214E0,3.605506788E0
1.362467446E1,2.629145700E-1,-4.136583477E-1,4.573768097E0,4.599955642E0
1.363464546E1,1.734358166E-1,1.705231687E0,1.321599961E0,2.164375555E0
1.364461646E1,1.394619771E-1,1.327877239E0,-1.052854328E0,1.700355799E0
1.365458646E1,4.674558746E-1,-7.992500603E-1,1.566188407E-1,9.390660865E-1
1.366455746E1,1.191508604E-1,1.784561446E-1,-7.363287574E-1,7.669573404E-1
1.367452846E1,8.581100334E-1,4.073123646E-1,-2.842220432E-1,9.914829104E-1
1.368449846E1,1.115883293E0,1.029177198E-1,4.669323295E-1,1.214007158E0
1.369446946E1,1.394726117E0,7.820358574E-2,1.426466850E0,1.996543117E0
1.370444046E1,1.615487744E0,5.216824409E-1,1.646567742E0,2.364981722E0
1.371441146E1,1.597637072E0,1.799530026E0,1.456195264E0,2.812695713E0
1.372438146E1,1.274935672E0,2.659328297E0,7.513344669E-1,3.043352007E0
1.373435246E1,1.093339061E0,1.603352725E0,-4.994831944E-1,2.003899629E0
1.374432346E1,1.642494023E-1,5.464559242E-1,-9.930566078E-1,1.145318021E0
1.375429346E1,-5.786393281E-1,1.231039747E0,-5.559447273E0,5.723437456E0
1.376426446E1,-1.561781945E0,-3.400629526E-1,-8.271273041E0,8.424296017E0
1.377423546E1,-1.496930184E0,-2.855416135E0,-5.823142666E0,6.656064287E0
1.378420546E1,-6.176304989E-1,-6.104640491E0,2.900516587E0,6.786832798E0
1.379417646E1,-5.598034730E-2,-3.834591746E0,9.485660795E0,1.023156823E1
1.380414746E1,-3.457323033E-1,1.725072751E0,6.880895206E0,7.102262010E0
1.381411846E1,-7.566821111E-1,2.026387083E0,1.780291809E0,2.801473069E0
1.382408846E1,-8.957438097E-1,-3.945157331E-1,1.593506598E-1,9.916613682E-1
1.383405946E1,-1.882474534E0,-1.607015421E0,-1.906380583E0,3.124179230E0
1.384403046E1,-1.014132897E0,-7.516142562E-1,-9.836665642E-1,1.600309168E0
1.385400046E1,-1.105774188E0,-5.196069717E-2,-3.698030609E0,3.860164097E0
1.386397146E1,-2.387062019E-1,-2.740310479E0,-1.896756651E0,3.341252455E0
1.387394246E1,-7.744360851E-1,-2.358664468E0,-1.933083647E0,3.146404569E0
1.388391346E1,1.108970495E-1,-3.070302773E-1,1.653866821E0,1.685776144E0
1.389388346E1,1.437418685E0,1.658726442E0,1.016769991E0,2.418959921E0
1.390385446E1,1.202026155E0,-3.648370206E-3,1.797149332E0,2.162088322E0
1.391382546E1,1.176591059E0,-7.454556763E-2,8.607300246E-1,1.459719061E0
1.392379546E1,5.383080119E-1,-8.395438081E-1,2.391116515E0,2.590761955E0
1.393376646E1,1.907672379E0,5.494739646E-1,2.694209277E0,3.346625042E0
1.394373746E1,1.288796350E0,9.483058199E-1,9.382857388E-1,1.854901638E0
1.395370746E1,7.366120550E-1,2.414742190E-1,8.084717041E-1,1.120059648E0
1.396367846E1,7.698525989E-1,-6.484705415E-1,-3.989338893E-1,1.082744344E0
1.397364946E1,1.270561223E-1,-1.935850258E0,-1.869327362E0,2.694075772E0
1.398362046E1,-9.451565827E-1,-2.118372264E0,-2.740994019E0,3.590803563E0
1.399359046E1,-1.828949707E0,6.688016027E-2,-3.815269037E0,4.231525471E0
1.400356146E1,-1.944414090E0,3.299200215E0,-1.919462559E0,4.283667205E0
1.401353246E1,-1.529525195E0,1.919926243E0,3.328421676E0,4.135692802E0
1.402350246E1,-1.971086164E0,-4.298902184E-1,5.710729360E0,6.056601034E0
1.403347346E1,-1.110248258E0,-7.481468573E-1,3.678605574E0,3.914653737E0
1.404344446E1,-1.922401515E-1,8.669935620E-1,1.526817350E0,1.766297068E0
1.405341546E1,-3.112871964E-1,8.888589326E-1,-3.283240825E0,3.415646386E0
1.406338546E1,-1.074578050E0,-1.270201474E0,-4.640957868E0,4.930174408E0
1.407335646E1,-2.248604374E0,-2.126992521E0,-9.700795062E0,1.018261968E1
1.408332746E1,-2.500965524E0,-2.270028865E0,-7.076926035E0,7.841603261E0
1.409329746E1,-2.619408186E0,-1.255903277E0,-3.764221090E-1,2.929212504E0
1.410326846E1,-2.106915229E0,-2.768785543E0,6.132083813E0,7.050369994E0
1.411323946E1,-1.665770875E0,-8.245287430E-1,6.807247186E0,7.056433555E0
1.412321046E1,-2.897001533E0,5.830451685E-1,2.798878530E0,4.070169601E0
1.413318046E1,-3.398901089E0,-6.802206302E-1,-1.099796360E0,3.636589165E0
1.414315112E1,-4.174436013E0,-2.122893038E-1,1.167597165E0,4.339846300E0
1.415312212E1,-3.351033443E0,7.012469253E-1,-1.670561206E-1,3.427693122E0
1.416309212E1,-3.798082901E0,-4.769097260E-1,1.433768268E0,4.087611534E0
1.417306312E1,-2.272485426E0,6.160918772E-2,2.107806053E0,3.100134200E0
1.418303412E1,-3.340606104E0,2.312232606E0,-1.824705505E0,4.453719675E0
1.419300512E1,-3.519570079E0,8.288679618E-1,-4.171906507E0,5.520797002E0
1.420297512E1,-3.001414386E0,-8.752670798E-1,-8.680419677E-1,3.244699930E0
1.421294612E1,-2.985149771E0,5.191561514E-1,4.582702643E-1,3.064417383E0
1.422291712E1,-2.293260876E0,1.312336802E0,2.776659696E0,3.832898693E0
1.423288712E1,-3.084481393E0,3.578346875E-1,7.247609183E0,7.884789788E0
1.424285812E1,-1.237586289E0,1.653646966E0,4.058438364E0,4.553799519E0
1.425282912E1,-5.539063002E-1,6.533588138E-1,-6.265092766E-1,1.061227498E0
1.426279912E1,-1.848915171E0,7.439927030E-1,-3.208252623E0,3.776889904E0
1.427277012E1,-3.453644769E-1,1.589083180E-1,-2.313512853E0,2.344540509E0
1.428274112E1,-1.876032218E0,-2.254772017E0,-2.847113966E0,4.087731849E0
1.429271212E1,-2.040231682E0,-3.024238115E0,-3.214806767E0,4.862462755E0
1.430268212E1,-2.495696013E0,-1.381465801E0,-2.188958389E0,3.595620278E0
1.431265312E1,5.750999719E-1,-2.172351712E0,1.758934854E0,2.853717533E0
1.432262412E1,2.041235210E-1,-3.333868357E0,6.981425216E0,7.739292130E0
1.433259412E1,6.035855600E-1,-1.125140239E0,9.628058038E0,9.712350780E0
1.434256512E1,2.120792426E0,4.166255173E-1,6.680756124E0,7.021669298E0
1.435253612E1,3.360003072E-1,2.885510585E0,5.180042499E-1,2.950829705E0
1.436250712E1,-1.010444912E0,1.982422161E0,-1.397772809E0,2.627692023E0
1.437247712E1,-4.000653547E0,-1.293361125E0,-2.464282140E0,4.873468813E0
1.438244812E1,-5.849417714E0,-1.103102668E0,-7.487441504E-1,5.999428380E0
1.439241912E1,-1.498646342E0,1.975832641E-2,-5.538085055E-1,1.597821990E0
1.440238912E1,-2.499172475E0,1.736490902E0,-1.223824575E0,3.280093033E0
1.441236012E1,-1.881718782E0,1.059801697E0,1.579344057E0,2.675513570E0
1.442233112E1,4.373952658E-1,-1.229180624E0,3.772491392E0,3.991727812E0
1.443230212E1,-1.453997880E-2,-2.396434557E-1,1.134338319E1,1.134592361E1
1.444227212E1,-1.146487400E0,2.574655352E0,1.016228539E1,1.054586781E1
1.445224312E1,-7.115491346E-1,2.372003429E0,6.035000153E0,6.523337281E0
1.446221412E1,2.384469400E0,-2.566217235E-1,1.680286880E0,2.928295243E0
1.447218412E1,-1.714968909E0,1.976887479E0,-1.350028305E1,1.375161245E1
1.448215512E1,-1.539414591E0,-8.751165140E-1,-1.637594137E1,1.647140194E1
1.449212612E1,4.840456679E-1,-5.889253625E0,-1.451465568E1,1.567140192E1
1.450209712E1,-5.022138441E-1,-3.919371695E0,-1.074702683E1,1.145042702E1
1.451206712E1,-6.489982527E-1,-3.380702508E0,4.853633380E0,5.950471004E0
1.452203812E1,5.120012060E-2,1.080050021E0,1.201537211E1,1.206392541E1
1.453200912E1,-1.147852287E-2,1.636642970E0,5.558286601E0,5.794245585E0
1.454197912E1,1.702473263E0,-6.546512239E0,8.636620524E0,1.097025304E1
1.455195012E1,2.107291790E0,-3.977284273E0,1.006494796E1,1.102554517E1
1.456192112E1,2.206003169E-1,4.778735225E0,7.174307318E0,8.622972826E0
1.457189212E1,-2.945796548E0,7.261410366E0,-4.246382493E0,8.912775218E0
1.458186212E1,-4.182264265E0,1.119305010E0,-1.029506981E1,1.116837680E1
1.459183312E1,-4.767130256E0,-2.720646878E0,-1.205156286E1,1.324264391E1
1.460180412E1,-3.895494005E0,-1.100224084E0,-3.835780485E0,5.576609947E0
1.461177412E1,-2.485234467E0,1.035256548E0,2.495084687E0,3.670639464E0
1.462174512E1,-9.448023145E-1,3.336769161E-1,4.161686159E0,4.280610165E0
1.463171612E1,1.550288073E0,-3.421679210E0,2.579713778E0,4.556995162E0
1.464168712E1,1.624255351E0,-2.997660181E0,1.969108928E0,3.937202303E0
1.465165712E1,3.591566845E0,3.086097856E0,3.182586855E-1,4.746013166E0
1.466162812E1,3.960840148E0,4.861474788E0,-2.002949104E0,6.582856288E0
1.467159912E1,2.543262528E0,4.923335114E-1,-5.255760434E0,5.859487547E0
1.468156912E1,-9.709482855E-1,2.291433475E0,-1.025739737E1,1.055498028E1
1.469154012E1,1.299206294E0,3.028906240E0,-7.276541791E0,7.988133101E0
1.470151112E1,9.082887185E-1,-3.311924049E0,6.462294207E0,7.318133350E0
1.471148212E1,1.593773670E0,-6.351039820E0,1.527521238E1,1.661950464E1
1.472145212E1,2.061018095E0,1.033333691E0,4.366017110E0,4.937375771E0
1.473142312E1,2.507780454E0,4.918565540E0,3.042908567E-1,5.529361871E0
1.474139412E1,2.452913983E0,1.060116570E0,1.934234380E0,3.298772012E0
1.475136412E1,1.928395350E0,-2.954422653E-2,3.368639410E-1,1.957819910E0
1.476133512E1,-6.836276565E-1,1.206579089E0,-4.539986393E0,4.747068182E0
1.477130612E1,-1.226145920E0,5.069243610E-1,-2.141070278E0,2.518846573E0
1.478127712E1,2.055984665E0,-4.929058954E0,2.860466668E0,6.058462236E0
1.479124712E1,8.237582262E-1,-6.818953897E0,4.176350976E0,8.038570603E0
1.480121812E1,1.696128157E0,-1.265741217E0,7.495031190E-1,2.245151772E0
1.481118912E1,2.532434069E0,2.603197950E0,-1.955109524E0,4.124598785E0
1.482115912E1,1.893004785E0,2.365078571E0,-1.063474041E-1,3.031233005E0
1.483113012E1,1.212138330E0,-2.065284516E0,-3.412728585E0,4.169100125E0
1.484110112E1,-9.092835126E-2,-3.805258604E0,-4.853424634E0,6.167981168E0
1.485107112E1,3.521286821E-1,2.861320361E0,-1.056119063E1,1.094759774E1
1.486104212E1,1.274466579E0,4.445638061E-1,-7.607588922E0,7.726403513E0
1.487101312E1,2.533582462E0,-1.017640290E1,1.798180196E1,2.081642183E1
1.488098412E1,2.436047068E-1,-5.084400762E0,1.807479491E1,1.877787755E1
1.489095412E1,4.334975996E0,9.271657380E0,1.676646988E0,1.037144120E1
1.490092512E1,5.248387095E0,7.122056015E0,-4.789032757E0,1.006002404E1
1.491089612E1,5.559605733E-1,-1.984140657E0,-7.540759340E0,7.817221868E0
1.492086612E1,-3.214095746E0,-9.119624510E-1,-9.981124613E0,1.052544230E1
1.493083712E1,-2.759380589E0,3.840788917E0,-6.785118983E0,8.270651749E0
1.494080812E1,-1.398166290E-1,1.382137354E0,2.234526910E0,2.631152384E0
1.495077912E1,8.849287996E-1,-2.112381206E0,3.697803152E0,4.349597854E0
1.496074912E1,7.556375791E-1,-1.836476535E0,-1.199593713E0,2.320055881E0
1.497072012E1,2.014310682E0,1.117823911E0,-6.825706261E-1,2.402681935E0
1.498069112E1,2.424288939E0,1.960577548E0,2.796456614E0,4.188222865E0
1.499066112E1,1.212504804E0,-6.650403813E-1,4.168763044E0,4.392155726E0
1.500063212E1,1.076780111E0,-1.716475590E0,1.714484321E0,2.654279629E0
1.501060312E1,-1.283846828E0,-6.293676880E-1,2.979589069E-1,1.460529313E0
1.502057412E1,7.838848201E-1,4.115158110E0,-1.916536027E0,4.606746360E0
1.503054412E1,4.510635710E-1,-9.467621550E-1,-1.992631692E-1,1.067484301E0
1.504051512E1,-7.071766598E-1,-4.575800882E0,-1.485310889E0,4.862530306E0
1.505048612E1,-1.398783811E-1,-3.941542583E0,1.514283258E0,4.224734036E0
1.506045612E1,-8.082410315E-1,3.589722633E0,-3.698144045E0,5.216860313E0
1.507042712E1,7.863505910E-1,2.082659225E0,-2.072480099E0,3.041544091E0
1.508039812E1,-6.848660237E-1,-2.820474637E0,4.071264816E0,4.999931584E0
1.509036912E1,-8.515852717E-1,-2.511884322E0,7.170020725E0,7.644864781E0
1.510033912E1,-3.949546032E-1,-1.256541208E0,3.351664358E0,3.601185765E0
1.511031012E1,1.629699255E0,2.400368564E0,-2.582246207E0,3.884029400E0
1.512028112E1,1.865569064E0,-2.945651829E-2,-2.468225502E0,3.094083507E0
1.513025112E1,3.888679075E-1,-4.936634606E-1,-1.495775067E0,1.622425626E0
1.514022250E1,-2.428148942E-1,-5.928559193E-1,-4.315648609E-1,7.724541689E-1
1.515019350E1,-3.322112749E-1,1.424900673E0,9.069142574E-1,1.721394705E0
1.516016350E1,-5.908433808E-1,-1.079668490E0,-1.692396464E0,2.092602623E0
1.517013450E1,-8.893479060E-1,-1.372618087E0,-3.413816167E0,3.785387818E0
1.518010550E1,-2.433999556E0,-7.875737554E-1,-3.177352427E0,4.079239476E0
1.519007650E1,-9.509945890E-1,-2.196351316E0,-4.182653689E-1,2.429669881E0
1.520004650E1,-4.829854947E-3,-4.016847119E-1,4.040410228E0,4.060331113E0
1.521001750E1,2.731103965E-1,1.442241761E0,2.162152414E0,2.613341471E0
1.521998850E1,1.072354500E0,3.098284038E0,-1.271178836E-1,3.281077127E0
1.522995850E1,6.698948859E-1,2.089522979E0,-2.374073051E0,3.232814298E0
1.523992950E1,-7.261744827E-2,-1.116240777E0,-1.429995060E-2,1.118691760E0
1.524990050E1,-1.013084345E0,-1.038709329E0,1.120311316E0,1.833126947E0
1.525987150E1,-1.419403998E0,3.671367306E-1,1.405115742E0,2.030725816E0
1.526984150E1,-1.657063932E0,1.717555863E0,-1.300691487E0,2.718024533E0
1.527981250E1,-1.746443740E0,1.260090176E0,-3.097216921E0,3.772352800E0
1.528978350E1,-2.590665320E0,-3.938716623E-1,-2.474082073E0,3.603854019E0
1.529975350E1,-1.840964127E0,2.999978310E-1,2.753814039E0,3.326054626E0
1.530972450E1,-6.144483711E-1,6.735992432E-3,7.106797705E0,7.133313802E0
1.531969550E1,-3.766299775E-1,-5.735814500E-1,3.460962267E0,3.528329014E0
1.532966650E1,-9.103732509E-1,-6.766821876E-1,-9.946727782E-1,1.508659065E0
1.533963650E1,-1.618397611E0,-1.286199456E0,-2.644627812E0,3.356721038E0
1.534960750E1,-2.265325072E0,-2.559447913E0,6.981961405E-1,3.488545421E0
1.535957850E1,-1.638569043E0,-6.001114368E-2,-8.463815421E-1,1.845229406E0
1.536954850E1,-9.893426757E-1,-2.011183738E0,2.405849159E0,3.288125474E0
1.537951950E1,-5.006336340E-1,-3.247973051E0,1.806925877E0,3.750325866E0
1.538949050E1,-4.663357674E-1,-8.285454878E-1,-5.144199067E-1,1.081010876E0
1.539946050E1,-1.105520200E0,1.810814860E0,-2.721019930E0,3.450387635E0
1.540943150E1,-2.080598958E0,-9.464218470E-1,2.370268267E0,3.292837378E0
1.541940250E1,-1.734633972E0,-2.241854641E0,5.448606868E0,6.141838817E0
1.542937350E1,-1.479624180E0,-4.422921628E-2,2.357286864E0,2.783531084E0
1.543934350E1,-2.597496623E0,2.073540492E0,-8.286054218E-1,3.425367983E0
1.544931450E1,-3.736683920E0,2.203466793E0,-2.343648233E0,4.930594251E0
1.545928550E1,-2.071672306E0,-1.068978610E0,-2.270179138E0,3.253959854E0
1.546925550E1,-1.511395611E0,4.425763375E-1,-2.041261230E0,2.578165611E0
1.547922650E1,-1.806615097E0,7.691608733E-1,-1.567312242E0,2.512356309E0
1.548919750E1,-1.459315338E0,-7.878368801E-1,-3.708957886E0,4.062838515E0
1.549916850E1,-1.958039272E0,-1.663547471E-1,-1.378449515E0,2.400357214E0
1.550913850E1,-1.908631761E0,-1.089663135E0,4.176877225E0,4.719803418E0
1.551910950E1,-1.314796726E0,1.510282301E0,6.498628805E0,6.800133779E0
1.552908050E1,-1.400359909E0,4.498427016E0,3.584568897E0,5.919965175E0
1.553905050E1,-1.483683025E0,-1.230251250E-1,2.310792144E0,2.748856277E0
1.554902150E1,-6.945009926E-1,-1.291565738E0,6.299205422E-2,1.467801650E0
1.555899250E1,-2.112855562E0,7.171422887E-1,-1.156814314E0,2.513298837E0
1.556896350E1,-2.092115049E0,3.975862522E0,-4.690221244E0,6.494813584E0
1.557893350E1,-1.075938112E0,3.140445971E-1,-1.344592382E0,1.750484363E0
1.558890450E1,1.202702312E0,-2.279630578E0,3.622286947E0,4.445691301E0
1.559887550E1,1.386251601E0,-2.768001723E0,4.723392498E-1,3.131554152E0
1.560884550E1,1.004677730E0,2.199106524E0,-4.376124022E0,4.999590813E0
1.561881650E1,1.870990749E0,2.028906648E0,-3.526872666E0,4.478381334E0
1.562878750E1,2.276158647E0,-5.545782330E0,1.595202291E-1,5.996836378E0
1.563875850E1,1.169954323E0,-4.518305210E0,1.327997984E0,4.852571868E0
1.564872850E1,1.008049892E0,-7.562575302E-1,5.220581245E-1,1.364050850E0
1.565869950E1,-6.106259000E-1,8.444022596E-2,-2.388326223E0,2.466596094E0
1.566867050E1,8.699037212E-1,-1.164144384E0,-8.089283717E0,8.218787969E0
1.567864050E1,-2.229587913E-1,-4.913527579E0,-9.618296111E0,1.080296644E1
1.568861150E1,1.223259295E0,-7.781432490E0,-1.167817605E-1,7.877860933E0
1.569858250E1,8.406620881E-1,-5.457136202E0,1.393246947E1,1.498668588E1
1.570855350E1,-7.686271687E-1,2.652870047E-1,2.216514562E1,2.218005513E1
1.571852350E1,1.363304934E0,7.548209277E0,1.063163203E1,1.310975451E1
1.572849450E1,-7.145246364E-2,6.198186586E0,5.649690861E0,8.386991667E0
1.573846550E1,-2.537393970E0,3.316735723E0,2.285255014E0,4.760409068E0
1.574843550E1,-2.716854081E0,2.193851924E0,-1.292849085E1,1.339179443E1
1.575840650E1,-2.900423616E0,-1.500385889E0,-1.074205202E1,1.122743500E1
1.576837750E1,-2.044733307E-1,-3.296189776E0,-5.265721750E0,6.215665848E0
1.577834850E1,1.460976532E0,-1.531210363E0,5.871890903E-2,2.117192838E0
1.578831850E1,1.306182315E0,2.164764073E0,2.883971305E0,3.835310447E0
1.579828950E1,2.143333735E0,5.327147920E0,1.515184899E0,5.938701015E0
1.580826050E1,1.787842027E0,4.566184258E-1,1.581952500E0,2.430525296E0
1.581823050E1,1.666853633E0,-1.011349622E0,-1.425020834E0,2.414935500E0
1.582820150E1,8.440946230E-1,-1.313377022E0,-3.687938315E-1,1.604201927E0
1.583817250E1,-1.856811105E-1,3.938503200E-1,-3.150774493E0,3.180719330E0
1.584814350E1,-7.557739654E-1,8.915191233E-1,-2.141985952E0,2.440103369E0
1.585811350E1,2.354435652E-1,1.240416634E-1,-1.248824930E0,1.276864798E0
1.586808450E1,3.355645435E-1,-3.696959691E0,1.856864022E0,4.150669647E0
1.587805550E1,2.252351307E-1,-4.465492574E0,5.373994642E-1,4.503349084E0
1.588802550E1,-9.660073151E-1,-2.155641247E0,-3.104630606E0,3.901114010E0
1.589799650E1,-1.511555678E0,1.354761860E0,-6.006876215E0,6.340563234E0
1.590796750E1,-2.077566300E0,6.194957169E0,-5.497105429E0,8.538849112E0
1.591793750E1,-1.175377177E0,8.195333498E0,-2.731243787E0,8.718067175E0
1.592790850E1,1.785906598E0,8.428819835E-2,8.614001740E0,8.797590173E0
1.593787950E1,3.244213292E0,-8.129826556E0,1.379643750E1,1.633893165E1
1.594785050E1,2.776979538E0,-5.768061309E0,1.784129337E0,6.645695157E0
1.595782050E1,4.718728759E0,1.056973399E0,-1.363652785E1,1.446853433E1
1.596779150E1,3.048451143E0,-2.928911543E0,-8.211000527E0,9.235372589E0
1.597776250E1,3.041366949E0,-3.050347687E0,1.086118787E1,1.168417459E1
1.598773350E1,1.775952152E0,9.063608184E-1,2.271298529E1,2.280033326E1
1.599770350E1,3.374795358E0,6.190230864E0,7.958265740E0,1.063213033E1
1.600767450E1,3.176101562E-2,5.047661537E0,-2.305952404E0,5.549532615E0
1.601764550E1,3.255569754E0,2.829756507E0,-7.532304851E0,8.679969624E0
1.602761550E1,-1.261064030E0,-1.937854975E-2,-5.335552123E0,5.482588301E0
1.603758650E1,-9.072942533E-1,-2.555965019E0,-2.788466978E-1,2.726517105E0
1.604755750E1,-8.344702522E-1,-2.478494967E0,-1.973610699E-1,2.622637850E0
1.605752750E1,-7.977707148E-1,-4.508817226E-1,-2.702615234E0,2.853745179E0
1.606749850E1,-7.377335601E-2,-1.044751549E0,-3.686373015E0,3.832270125E0
1.607746950E1,-2.642449030E-1,-1.543111786E0,-3.155398471E0,3.522436495E0
1.608744050E1,5.083337227E-1,-1.755747829E0,-7.222463232E-1,1.965373594E0
1.609741050E1,7.387200493E-1,-1.899251073E0,-6.825454831E-3,2.037868626E0
1.610738150E1,1.949973476E0,-2.601763628E0,4.009289593E-1,3.276021148E0
1.611735250E1,2.116371346E0,-3.049741331E0,2.975887781E-1,3.724044702E0
1.612732350E1,8.532352097E-1,6.391111958E-1,-1.623435572E0,1.942167990E0
1.613729321E1,5.341200899E-1,2.923339439E0,-2.636462760E0,3.972673361E0
1.614726421E1,6.600932714E-1,3.654479670E0,-2.078189321E0,4.255562905E0
1.615723521E1,1.713357526E-1,8.057989419E-2,-3.277640947E0,3.283105121E0
1.616720521E1,1.636416939E-1,-4.320678969E0,-4.955369085E0,6.576528577E0
1.617717621E1,-4.847754370E-1,-5.135230608E0,-4.085512726E0,6.580046722E0
1.618714721E1,-1.005945918E0,5.159495384E-2,1.143330635E0,1.523743472E0
1.619711721E1,-7.564167206E-1,8.936334765E0,6.882943486E0,1.130509426E1
1.620708821E1,-1.744391952E0,5.796225008E0,7.358361295E0,9.528095748E0
1.621705921E1,-1.382671643E0,-4.362863122E0,4.642690982E0,6.519274120E0
1.622703021E1,-2.113051444E-1,-6.508320565E0,-9.942909551E-1,6.587222552E0
1.623700021E1,-1.357959702E0,-2.288780885E0,-3.143537394E0,4.118786210E0
1.624697121E1,-1.823281124E0,5.622594863E-1,-7.883508503E-2,1.909634718E0
1.625694221E1,-1.719255941E0,2.008645461E0,3.154809657E0,4.116226616E0
1.626691221E1,-5.469943431E-1,-2.439441121E0,4.289092310E0,4.964512931E0
1.627688321E1,-1.014238731E0,-2.521262379E0,-9.318941474E-2,2.719214676E0
1.628685421E1,-5.925402062E-1,2.347012429E0,-1.671075761E0,2.941439348E0
1.629682521E1,-1.372554206E-1,1.808452877E0,-7.931461519E-1,1.979500361E0
1.630679521E1,-8.060858209E-2,-1.839878738E0,7.774013543E-1,1.999000845E0
1.631676621E1,-4.297257654E-2,-4.969336914E0,1.433739617E0,5.172210871E0
1.632673721E1,-9.790120344E-1,1.246535161E0,-5.070775580E-1,1.664164090E0
1.633670721E1,-1.633822419E0,3.953673216E0,-2.294464964E-1,4.284104725E0
1.634667821E1,-1.436495117E0,-2.427690849E-1,1.656212139E-1,1.466248764E0
1.635664921E1,-1.432340817E0,-4.297585683E0,-7.081744140E-1,4.585014059E0
1.636662021E1,-1.428047645E0,-2.462052011E0,-3.094824826E0,4.204635642E0
1.637659021E1,-1.498122139E0,7.105732343E-1,-2.831369169E0,3.281148524E0
1.638656121E1,-1.443720814E0,3.595706089E0,-2.123680074E0,4.418534726E0
1.639653221E1,-1.452263888E0,3.715803806E0,-1.822406380E0,4.386049856E0
1.640650221E1,-1.893956712E0,3.376650680E0,-3.998162341E-1,3.892132431E0
1.641647321E1,-1.475024322E0,2.090908769E0,-4.637643081E-1,2.600514096E0
1.642644421E1,-2.101995821E0,-3.746118110E-1,-2.710874426E-1,2.152256685E0
1.643641521E1,-2.064791888E0,-1.312440298E0,-2.197785346E0,3.288787847E0
1.644638521E1,-1.332308552E0,2.799015355E-1,-2.698799926E0,3.022732537E0
1.645635621E1,-1.207090648E0,1.646415714E0,3.654527324E-1,2.073959555E0
