"Time (s)","Linear Acceleration x (m/s^2)","Linear Acceleration y (m/s^2)","Linear Acceleration z (m/s^2)","Absolute acceleration (m/s^2)"
7.703375013E-3,8.953641061E-1,1.582297486E0,-1.024073163E0,2.086640376E0
1.767337503E-2,3.530935458E-1,6.313326448E-2,-5.992594975E-1,6.984073357E-1
2.764337498E-2,1.222158265E0,-1.804486418E0,-3.335713738E-1,2.204792943E0
3.761337500E-2,1.257846014E0,-1.175989088E0,-1.171701325E0,2.082789218E0
4.758337501E-2,7.191141160E-1,-5.088214901E-1,-2.425816816E0,2.580816081E0
5.755237502E-2,9.841147533E-1,-4.444588485E-1,-1.094054979E0,1.537199341E0
6.752237503E-2,1.991322208E0,-1.893597400E-1,1.311284888E0,2.391796250E0
7.749237499E-2,2.292335554E0,-3.848073086E-1,7.812757194E-1,2.452197118E0
8.746237500E-2,1.425140409E0,-1.088965563E0,3.898286051E-1,1.835439327E0
9.743237501E-2,1.072807878E0,-1.008777139E0,1.431966156E0,2.054038737E0
1.074013750E-1,2.612504379E0,5.078140149E-1,6.896662223E-1,2.749307858E0
1.173713750E-1,1.262886314E0,1.239154513E0,-7.502299279E-1,1.921778003E0
1.273413750E-1,1.269584154E0,2.296017399E-1,-3.745340431E-1,1.343442084E0
1.373113750E-1,2.093911753E0,1.336471477E0,-1.006243833E0,2.680139752E0
1.472813750E-1,8.005528931E-1,1.686943643E0,-1.776670044E0,2.577444516E0
1.572513750E-1,1.190406714E0,9.348931843E-1,-5.045983386E-1,1.595529033E0
1.672203750E-1,-2.047273922E-1,3.782347459E-1,-5.332040870E-1,6.850411860E-1
1.771903750E-1,3.517779223E-1,-1.770001879E-1,8.179436088E-2,4.022027979E-1
1.871603750E-1,1.617621978E0,8.908855775E-1,-7.097496539E-1,1.978414149E0
1.971303750E-1,-1.195382768E0,1.231657797E0,-1.107721092E0,2.042784107E0
2.071003750E-1,1.668986697E0,1.165883346E0,-2.538074001E0,3.253708685E0
2.170703750E-1,2.241844847E0,2.944970629E-1,-3.431958323E0,4.109858242E0
2.270393750E-1,2.366726170E0,-1.043378623E0,-5.799502373E-1,2.650730841E0
2.370093750E-1,2.347965087E0,-1.218267381E0,1.839420024E0,3.221890979E0
2.469793750E-1,1.406280946E0,-1.204991278E-1,1.353112945E0,1.955264888E0
2.569493750E-1,4.627355636E-1,-7.153936788E-1,2.551950029E0,2.690420277E0
2.669193750E-1,3.305235127E-1,-1.543781877E-2,2.630177588E0,2.650908950E0
2.768893750E-1,1.679242860E0,1.798407653E0,-1.376680148E-1,2.464361814E0
2.868583750E-1,1.121337868E0,1.131824192E0,-3.085932380E-1,1.622853783E0
2.968283750E-1,9.194524419E-1,-4.438416749E-1,-6.275056422E-2,1.022900708E0
3.067983750E-1,8.420490476E-1,-1.013826795E0,-6.140564615E-1,1.453945221E0
3.167683750E-1,7.040673298E-1,1.561383457E0,-1.072564707E0,2.020896870E0
3.267383750E-1,8.162835111E-1,2.287584545E0,-4.684198612E-1,2.473616581E0
3.367073750E-1,1.363644511E0,5.747628799E-1,-9.264457119E-1,1.745903886E0
3.466773750E-1,1.476601754E0,3.684269187E-1,-3.681729741E0,3.983870608E0
3.566473750E-1,1.335392666E0,-1.180254632E-1,-2.515209634E0,2.850172465E0
3.666173750E-1,2.048618051E0,3.055483004E-1,2.826006103E-1,2.090468557E0
3.765873750E-1,1.963894381E0,1.044842766E0,1.273781431E0,2.563415042E0
3.865573750E-1,1.716167150E0,-5.415585887E-1,1.550637152E0,2.375498046E0
3.965263750E-1,1.290466461E0,-1.042840387E0,1.552279050E0,2.272089349E0
4.064963750E-1,1.757714979E0,-2.314974073E-1,8.291708475E-1,1.957211611E0
4.164663750E-1,1.814918874E0,5.953936109E-1,-5.201922780E-1,1.979652515E0
4.264363750E-1,2.544802100E0,2.453751889E-1,7.505795914E-1,2.664506790E0
4.364063750E-1,1.921920436E0,-1.288904670E-1,6.012884814E-1,2.017904545E0
4.463763750E-1,1.587685549E0,-1.001071971E0,2.326794219E-1,1.891303838E0
4.563453750E-1,1.202517906E0,-1.006668341E-1,-8.618088359E-1,1.482868030E0
4.663153750E-1,1.334601391E0,1.299070054E-1,4.071767092E-1,1.401367038E0
4.762853750E-1,8.214001903E-1,-3.209188762E-1,1.210807503E0,1.497912550E0
4.862561250E-1,4.245681923E-1,5.068699819E-1,8.525158560E-1,1.078869136E0
4.962261250E-1,7.136614412E-1,5.439503923E-1,1.416710186E-1,9.084411701E-1
5.061961250E-1,7.295120734E-1,-1.104320936E0,1.176138192E-1,1.328738351E0
5.161651250E-1,9.703007063E-1,6.200679839E-2,8.247164387E-1,1.274945296E0
5.261351250E-1,1.295046878E0,1.829438242E0,6.611236238E-1,2.336894337E0
5.361051250E-1,1.144537281E0,1.689730718E0,-1.938001156E-1,2.050052188E0
5.460751250E-1,1.521451214E0,9.527327469E-1,-1.030335531E0,2.069807911E0
5.560451250E-1,2.099602848E0,-3.216237581E-1,-1.009659777E0,2.351847534E0
5.660151250E-1,1.669755752E0,4.775377169E-1,-2.414528182E0,2.974234840E0
5.759841250E-1,2.416289655E0,8.032855162E-1,-7.433957022E-1,2.652613897E0
5.859541250E-1,1.900223757E0,-2.316082120E-1,-8.636366755E-1,2.100085950E0
5.959241250E-1,1.428278610E0,-8.401571810E-2,-1.846950653E0,2.336293034E0
6.058941250E-1,1.029347571E0,2.148591551E-1,-8.668848038E-2,1.055099887E0
6.158641250E-1,8.167464644E-1,-4.610237181E-3,-6.501039612E-1,1.043901912E0
6.258341250E-1,1.165703617E0,-5.217605013E-1,-1.094957204E0,1.682269367E0
6.358031250E-1,1.127509093E0,-9.338061869E-1,-1.720414567E-1,1.474065470E0
6.457731250E-1,3.360409454E-1,-9.351826215E-1,1.706477144E0,1.974728917E0
6.557431250E-1,3.682942600E-1,7.044286877E-2,8.476591587E-1,9.268920698E-1
6.657131250E-1,9.926823860E-1,4.348352087E-1,1.217117819E0,1.629685786E0
6.756831250E-1,8.002998548E-1,-1.624124081E0,2.817680837E0,3.349266216E0
6.856531250E-1,9.462284504E-1,-1.687907849E0,2.066278542E0,2.830881170E0
6.956221250E-1,1.080765720E-1,3.946475878E-1,-3.374065626E-1,5.303493683E-1
7.055921250E-1,7.433798417E-1,1.791287791E0,-1.081023290E0,2.220346120E0
7.155621250E-1,3.447446720E-1,5.227513120E-1,-8.784675533E-1,1.078806315E0
7.255321250E-1,1.289619346E0,-8.849146932E-2,-3.050305295E-1,1.328153764E0
7.355021250E-1,1.861329833E0,2.630077600E-2,-2.457771850E-1,1.877670605E0
7.454721250E-1,1.190089210E0,-1.265034581E0,-5.186480284E-3,1.736851093E0
7.554411250E-1,1.018495212E0,4.406724840E-1,-1.272702620E0,1.688578306E0
7.654111250E-1,4.541104089E-1,5.613134068E-1,-5.039042741E-1,8.804592674E-1
7.753811250E-1,1.532038913E0,4.510030523E-1,1.506503538E0,2.195472590E0
7.853511250E-1,1.461172121E0,5.148236570E-1,1.351333053E0,2.055764672E0
7.953211250E-1,1.312980288E0,-5.014060512E-1,7.290998447E-1,1.583323040E0
8.052911250E-1,5.219832802E-1,5.816927075E-1,-1.588245274E0,1.770128809E0
8.152601250E-1,1.628609627E-1,1.121035202E0,-7.694772077E-1,1.369430097E0
8.252301250E-1,1.292320906E0,3.873686814E-1,1.424265373E0,1.961805208E0
8.352001250E-1,8.735030479E-1,5.468813092E-2,5.508901602E-1,1.034155856E0
8.451701250E-1,1.110177799E0,-4.492588279E-1,5.290975875E-1,1.309302294E0
8.551401250E-1,-7.060556754E-2,6.786556229E-1,-8.458120233E-1,1.086718261E0
8.651091250E-1,-1.002863996E-1,1.470598710E0,-1.500609545E0,2.103460704E0
8.750791250E-1,7.892658665E-1,1.226573059E0,6.202457392E-1,1.584969039E0
8.850491250E-1,2.326126906E-1,5.932318953E-1,2.489013523E-1,6.840940202E-1
8.950191250E-1,1.345370062E0,1.708685052E-1,-1.151289865E0,1.778956155E0
9.049891250E-1,2.051451465E0,1.442975879E-2,8.924312890E-1,2.237206950E0
9.149591250E-1,1.366900679E0,2.363819666E0,4.617762548E-1,2.769349777E0
9.249281250E-1,1.495746123E0,7.626251480E-1,-2.947329980E-1,1.704617588E0
9.348981250E-1,1.707410652E0,-4.830893558E-1,1.439046550E-1,1.780262624E0
9.448681250E-1,6.121257839E-1,-7.291396058E-1,1.156741224E0,1.498129767E0
9.548381250E-1,9.089608560E-1,3.573376742E-1,5.823680609E-1,1.137124712E0
9.648081250E-1,9.774645688E-1,8.308343804E-1,6.016223574E-1,1.416923502E0
9.747781250E-1,1.023393863E0,-3.946481726E-1,1.892194068E-1,1.113052633E0
9.847471250E-1,8.856122661E-1,8.575789601E-2,6.472528589E-1,1.100272587E0
9.947171250E-1,1.329637544E0,5.155402333E-2,3.635880554E-1,1.379416575E0
1.004687125E0,2.011771675E0,3.932933727E-1,1.592132503E-1,2.056028650E0
1.014657125E0,1.222400924E0,7.331937727E-1,-5.038446325E-1,1.511852024E0
1.024627125E0,1.271868807E0,3.031863177E-1,-1.763956443E0,2.195703655E0
1.034597125E0,1.111316618E0,3.540734661E-1,-4.576416886E-1,1.252927994E0
1.044566125E0,1.749336357E0,-4.639151663E-2,2.970514190E-1,1.774984341E0
1.054536125E0,1.157038336E0,6.948448089E-1,-8.647874075E-1,1.602936143E0
1.064506125E0,9.237812088E-1,8.218416551E-1,-1.432332192E0,1.892186813E0
1.074476125E0,1.274863605E0,8.692409393E-1,-4.356310147E-1,1.603318871E0
1.084446125E0,1.361234728E0,3.429479688E-1,-1.246719933E-1,1.409296420E0
1.094416125E0,1.541787684E0,-5.386501837E-1,-1.120392008E0,1.980538193E0
1.104385125E0,1.426421826E0,-4.116118222E-2,-1.779595406E0,2.281081603E0
1.114355125E0,8.397172511E-1,1.592022575E0,-2.395198456E0,2.996103567E0
1.124325125E0,1.116314160E0,1.417470616E0,-8.029864311E-1,1.974884164E0
1.134295125E0,1.697506930E0,-8.241048199E-1,-1.522094554E-1,1.893104923E0
1.144265125E0,1.429663377E0,-1.824816602E0,9.632802469E-1,2.510338989E0
1.154235125E0,8.049695874E-1,4.570607677E-1,4.271069437E-1,1.019461095E0
1.164204125E0,4.097967734E-1,1.920601304E0,-4.394504160E-1,2.012401409E0
1.174174125E0,2.182357906E0,1.515094559E0,5.282561731E-1,2.708736262E0
1.184144125E0,1.900137949E0,-1.107962874E0,6.085822982E-1,2.282209099E0
1.194114125E0,7.383513824E-1,4.728412333E-1,-1.701633895E0,1.914236012E0
1.204084125E0,1.298018725E0,1.101132157E0,-1.149405307E0,2.053893180E0
1.214053125E0,1.703391860E0,2.566679165E-1,4.257767022E-2,1.723146862E0
1.224023125E0,1.446941460E0,-7.569165114E-1,-7.032715237E-1,1.777963169E0
1.233993125E0,1.210833450E0,-5.687478492E-1,-4.665569383E-1,1.416780554E0
1.243963125E0,2.730487449E-1,4.609485814E-1,6.787436235E-1,8.647092680E-1
1.253933125E0,1.014290114E0,8.232593125E-1,7.778147525E-1,1.520373678E0
1.263903125E0,1.076330314E0,-8.903099191E-1,2.211973615E0,2.616097469E0
1.273872125E0,4.615116683E-1,-1.101355813E0,3.332129980E0,3.539642333E0
1.283842125E0,3.594705192E-1,1.327894489E0,2.217852405E0,2.609864387E0
1.293812125E0,7.167311563E-1,1.239343962E0,1.411237777E0,2.010290792E0
1.303782125E0,1.424996714E0,-5.193116874E-1,2.450264609E0,2.881683001E0
1.313752125E0,2.959939501E-1,-6.311966971E-1,1.429417940E0,1.590363900E0
1.323722125E0,2.466693970E-1,1.492363509E0,-5.128540224E-1,1.597189369E0
1.333691125E0,9.330823747E-1,1.194489386E0,-5.711244500E-1,1.619762560E0
1.343661125E0,1.268218975E0,-3.120083043E-1,-3.506598616E-1,1.352290978E0
1.353631125E0,7.177549307E-1,-9.142864269E-1,-6.335797298E-1,1.323825927E0
1.363601125E0,8.307239411E-1,3.325788090E-1,-3.626975244E-1,9.655363404E-1
1.373571125E0,5.239975729E-1,1.391643173E-1,4.326471806E-1,6.936308430E-1
1.383541125E0,1.137416030E0,-7.566984102E-1,7.505345678E-1,1.558720580E0
1.393510125E0,1.977299561E-1,-1.837532250E0,1.469875994E0,2.361388859E0
1.403480125E0,2.382725760E-2,-1.724870145E-2,7.399066687E-1,7.404911439E-1
1.413450125E0,2.225089212E-1,2.782716241E-1,1.856420803E-1,4.017565168E-1
1.423420125E0,7.192545953E-1,-2.561185706E-1,8.506003082E-1,1.142998154E0
1.433390125E0,1.160107101E0,-8.909054580E-1,3.598756582E-1,1.506343755E0
1.443359125E0,1.573922373E0,4.666349986E-1,-1.452572329E0,2.192018757E0
1.453329125E0,1.830270301E0,1.226151182E0,-1.003198019E0,2.420690472E0
1.463299125E0,1.975941107E0,-3.240813428E-1,5.442635107E-1,2.074992709E0
1.473269125E0,1.242033097E0,8.770080882E-1,-1.404724563E0,2.070033937E0
1.483239125E0,1.971143613E0,1.449394952E0,-1.948444283E0,3.127712901E0
1.493209000E0,1.501074398E0,8.715628687E-1,-1.741648731E0,2.458899446E0
1.503178000E0,1.525137299E0,-8.025566608E-2,1.672484940E-1,1.536377821E0
1.513148000E0,1.263865284E0,-1.125527617E-1,2.240407455E-1,1.288494407E0
1.523118000E0,1.430277627E0,1.040972494E0,-7.641813844E-1,1.926990143E0
1.533088000E0,1.921595915E0,3.986479604E-1,-3.735166276E-1,1.997740156E0
1.543058000E0,1.276122656E0,-1.199144647E0,2.694841361E-1,1.771738869E0
1.553028000E0,1.982146172E0,-6.300418720E-1,-4.828034270E-1,2.135171037E0
1.562997000E0,2.427676084E0,-4.094284719E-1,2.691420740E-1,2.476626799E0
1.572967000E0,2.048065781E0,3.685535109E-1,9.555069584E-1,2.289846869E0
1.582937000E0,1.354822086E0,-7.919702768E-2,8.161578691E-1,1.583644127E0
1.592907000E0,1.716791486E0,-3.899806327E-1,7.751069069E-1,1.923603030E0
1.602877000E0,1.873806183E0,-3.684090847E-1,2.821679163E-1,1.930412805E0
1.612846000E0,1.271087619E0,2.404532951E-1,1.377589390E0,1.889770899E0
1.622816000E0,8.526099962E-1,1.178312480E0,4.204843873E-1,1.513991818E0
1.632786000E0,1.946718477E0,2.400428206E-1,5.044428027E-1,2.025289097E0
1.642756000E0,1.340565405E0,-3.129368421E-1,-1.009351044E0,1.706995782E0
1.652726000E0,1.371017119E0,7.995681489E-1,-1.986750562E0,2.542867469E0
1.662696000E0,1.562836198E0,4.865263492E-1,-7.249348730E-1,1.790166317E0
1.672665000E0,1.045524916E0,-5.055014411E-1,1.719321138E-1,1.173973896E0
1.682635000E0,1.170327741E0,-7.705390620E-1,3.493652880E-1,1.444109958E0
1.692605000E0,5.600475577E-1,-1.228066438E0,4.143348706E-1,1.411904326E0
1.702575000E0,1.036292967E0,-7.390646696E-1,9.460888481E-1,1.585939409E0
1.712545000E0,1.137679886E0,5.486962849E-1,2.992049485E-1,1.298039574E0
1.722515000E0,1.592594725E0,1.659609371E-1,-5.127411711E-1,1.681310352E0
1.732484000E0,1.339589212E0,-1.084429000E0,6.862309831E-1,1.855100665E0
1.742454000E0,1.451563538E0,-4.670823106E-1,3.085160547E-1,1.555758576E0
1.752424000E0,1.169340073E0,7.006133795E-2,-6.634835601E-2,1.173314494E0
1.762394000E0,1.347435737E0,1.371190782E0,9.744221163E-1,2.155283203E0
1.772364000E0,9.373355663E-1,1.325198045E0,2.082441416E0,2.640323858E0
1.782333000E0,7.722620903E-1,5.410966587E-1,7.763973874E-1,1.221461106E0
1.792303000E0,1.774328527E0,-1.069835812E-1,5.383648396E-2,1.778365984E0
1.802273000E0,1.502630196E0,1.225735445E0,-7.198612440E-1,2.068459595E0
1.812243000E0,2.192970018E0,2.785233468E0,-1.145623328E0,3.725465847E0
1.822213000E0,2.558091944E0,6.240148544E-1,-7.547258520E-1,2.739131257E0
1.832183000E0,1.981560427E0,-1.220384366E0,3.208507562E-1,2.349226455E0
1.842152000E0,1.105647961E0,-2.664207798E-1,-9.076165080E-2,1.140909779E0
1.852122000E0,1.004932888E0,5.752876675E-1,2.869170249E-2,1.158304460E0
1.862092000E0,1.156432637E0,2.575818363E-1,6.882716614E-1,1.370183465E0
1.872062000E0,8.708135480E-1,1.021627858E0,7.849898708E-1,1.555071964E0
1.882032000E0,1.226211116E0,-3.220617145E-2,1.039499288E0,1.607852514E0
1.892001000E0,1.129420255E0,-9.148150152E-1,6.444000024E-1,1.589883011E0
1.901971000E0,1.374801583E0,-4.314572722E-1,7.588037002E-1,1.628501712E0
1.911941000E0,1.703821923E0,9.190460604E-1,9.939114708E-1,2.176123806E0
1.921911000E0,1.826929640E0,2.792451856E-1,5.804741478E-1,1.937162879E0
1.931881000E0,1.815637351E0,-8.663839898E-1,-8.701820487E-1,2.191888913E0
1.941851000E0,1.406565121E0,-1.772387543E-1,-1.107932761E0,1.799264855E0
1.951820000E0,1.562175024E0,8.656460711E-1,-7.169393903E-1,1.924509292E0
1.961790000E0,1.469371818E0,9.371259436E-1,-9.092560673E-1,1.965707295E0
1.971760000E0,2.474641652E0,-8.264711881E-1,2.543597281E-2,2.609128766E0
1.981730000E0,1.907155631E0,-2.490074793E-1,1.555490341E0,2.473620328E0
1.991700000E0,2.068729110E0,2.576873785E-1,1.173953088E0,2.392531874E0
2.001669000E0,2.433008453E0,-1.029145038E-1,4.677433383E-1,2.479698642E0
2.011639000E0,1.889546742E0,7.262212604E-2,1.331635537E0,2.312771944E0
2.021609000E0,1.799163113E0,1.422879291E0,4.660798055E-1,2.340684466E0
2.031579000E0,2.023902016E0,4.299922523E-1,-8.894106174E-1,2.252137641E0
2.041549000E0,2.449502717E0,-5.973699698E-1,7.819364548E-2,2.522504448E0
2.051519000E0,2.228071292E0,1.788584623E0,-4.811246914E-1,2.897381163E0
2.061488000E0,2.370961747E0,1.631570803E0,-1.513388634E0,3.251742310E0
2.071458000E0,1.792711588E0,-8.329241753E-1,-3.673337817E-2,1.977100620E0
2.081428000E0,1.210122648E0,-3.332538700E-1,8.936223668E-1,1.540784184E0
2.091398000E0,1.138804305E0,2.325555194E0,-5.644317269E-1,2.650219874E0
2.101368000E0,1.531062721E0,6.891578069E-1,3.954998195E-1,1.724967143E0
2.111337000E0,2.305930915E0,-5.316753325E-1,1.671627738E0,2.897297938E0
2.121307000E0,2.229582212E0,1.127772656E0,3.749690759E-1,2.526560867E0
2.131277000E0,1.750570997E0,5.824557692E-1,-6.026666701E-2,1.845910510E0
2.141247000E0,2.138720574E0,-1.392448334E0,8.659434021E-1,2.694976073E0
2.151217000E0,2.176896168E0,-4.019200623E-1,6.384563076E-1,2.303919078E0
2.161187000E0,1.641782088E0,1.037348389E0,2.178087831E-1,1.954221270E0
2.171156000E0,6.496861046E-1,-7.208333436E-1,4.506332159E-1,1.069935998E0
2.181126000E0,1.018081302E0,-1.499519331E0,1.629828333E0,2.437496288E0
2.191096000E0,9.696580973E-1,-3.808291554E-3,4.378517872E-1,1.063938681E0
2.201066000E0,8.313797794E-1,3.858820269E-1,-1.140980054E0,1.463534339E0
2.211036000E0,1.371318543E0,-1.474422789E0,-6.065930754E-1,2.102948470E0
2.221005000E0,1.218147733E0,-7.504521221E-1,8.787148905E-1,1.679047988E0
2.230975000E0,7.657551625E-1,-3.262000814E-1,6.142745626E-1,1.034466384E0
2.240945000E0,2.295812747E-1,-2.318027196E0,-3.118092066E-1,2.350145235E0
2.250915000E0,1.298909256E-1,-2.189005752E0,8.662182212E-2,2.194566284E0
2.260885000E0,6.175193287E-1,-7.381489956E-1,8.519276261E-1,1.285291695E0
2.270855000E0,2.267133616E-1,-1.264444597E0,6.123794800E-1,1.423104956E0
2.280824000E0,1.000766089E0,-2.100513698E0,1.694648226E0,2.878458471E0
2.290794000E0,3.565904000E-1,4.757306349E-1,1.145058487E0,1.290207460E0
2.300764000E0,1.304587633E0,1.964803331E0,7.096601915E-1,2.462928868E0
2.310734000E0,9.649776936E-1,-4.094875288E-1,-1.204479647E-1,1.055163351E0
2.320704000E0,9.667279114E-1,-1.430590307E0,-5.018682736E-1,1.798060968E0
2.330673000E0,1.308716498E0,4.814492118E-1,-7.637954682E-1,1.589942054E0
2.340643000E0,1.118626076E0,1.665427936E0,-1.145808685E0,2.310379200E0
2.350613000E0,2.057306428E0,1.109101911E0,-1.100039020E0,2.583157493E0
2.360583000E0,2.478528296E0,8.872068018E-1,-1.667391431E0,3.116156704E0
2.370553000E0,1.454334972E0,1.725303716E0,-8.979738647E-1,2.428604576E0
2.380523000E0,4.529207198E-1,7.685378525E-1,-6.988475204E-2,8.948024853E-1
2.390492000E0,1.103458837E0,-6.989548168E-1,1.259881430E0,1.814789370E0
2.400462000E0,6.611694514E-1,7.834149233E-1,2.619973612E-1,1.058076842E0
2.410432000E0,1.545660295E-1,1.062700747E0,-6.799376249E-2,1.076032847E0
2.420402000E0,2.756317525E-1,1.731012645E-1,-4.790699798E-1,5.791761013E-1
2.430372000E0,1.090441473E0,5.190807223E-2,3.172231436E-1,1.136832255E0
2.440341000E0,8.929902828E-1,1.012647119E-1,3.830990446E-1,9.769601143E-1
2.450311000E0,-9.710894957E-2,-7.431018797E-1,2.887875491E-1,8.031368502E-1
2.460281000E0,1.111621477E-1,-7.703548747E-1,7.456661761E-1,1.077878334E0
2.470251000E0,-4.109218508E-2,7.613662425E-1,7.338436908E-1,1.058250294E0
2.480221000E0,6.226085991E-2,-6.861988235E-1,3.032553148E-1,7.528007877E-1
2.490190792E0,2.305924045E-1,-2.077682367E0,-2.554999352E-2,2.090595532E0
2.500159792E0,2.846187402E-1,-5.617890778E-1,5.398178726E-1,8.294685834E-1
2.510129792E0,6.395618699E-2,6.736889979E-1,5.739743829E-1,8.873521578E-1
2.520099792E0,6.416829474E-1,-7.429024896E-1,7.896699822E-1,1.259857053E0
2.530069792E0,9.779912567E-1,-6.188962018E-1,-4.095097482E-2,1.158091702E0
2.540039792E0,8.109514352E-2,1.053215394E0,-1.791503845E0,2.079741598E0
2.550008792E0,1.407856040E-1,1.002706560E0,-1.303961250E0,1.650925793E0
2.559978792E0,9.128500584E-1,-6.036142114E-1,-1.993625718E-1,1.112380681E0
2.569948792E0,1.525544703E0,-1.034162534E0,1.063147182E0,2.127689056E0
2.579918792E0,8.497904688E-1,1.636830373E0,3.824599439E-1,1.883516159E0
2.589888792E0,6.730200765E-1,2.120356809E0,-8.254935336E-1,2.372827131E0
2.599858792E0,1.088630079E0,3.872023281E-1,-1.859701091E-1,1.170310203E0
2.609827792E0,8.078115535E-1,5.114626774E-1,-2.654818339E0,2.821739533E0
2.619797792E0,1.456920392E-1,1.842514370E0,-3.051810953E0,3.567861470E0
2.629767792E0,1.270464744E-2,7.359141898E-1,-1.893539513E0,2.031556790E0
2.639737792E0,6.346224345E-2,-1.144199531E0,-7.854348439E-1,1.389290437E0
2.649707792E0,7.493378621E-2,-3.336696070E-1,5.613022971E-1,6.572752450E-1
2.659676792E0,-2.498894952E-1,7.504538763E-1,-1.382854807E-1,8.029624240E-1
2.669646792E0,8.007719444E-1,5.404324150E-1,4.522406155E-1,1.066688556E0
2.679616792E0,9.891018435E-1,7.858602288E-1,3.078996997E0,3.328080718E0
2.689586792E0,4.812003032E-1,1.145279804E0,1.351876844E0,1.835971286E0
2.699556792E0,3.876269456E-1,-7.397020161E-3,-9.250178218E-1,1.002979230E0
2.709526792E0,6.999233349E-1,1.146258920E-2,-3.563796079E-1,7.855128838E-1
2.719495792E0,7.207175687E-1,9.908831978E-1,-4.006968248E-1,1.289124226E0
2.729465792E0,2.818321399E-1,-8.737380329E-1,5.010099024E-1,1.045876870E0
2.739435792E0,4.932673118E-1,-1.352903615E0,8.827342665E-1,1.689047251E0
2.749405792E0,4.035951800E-1,2.242550460E-1,7.521752965E-1,8.825797820E-1
2.759375792E0,1.225061480E-1,9.959533185E-1,1.234517378E0,1.590900351E0
2.769344792E0,-1.881908085E-3,2.230280077E-1,5.482641757E-1,5.918941123E-1
2.779314792E0,1.123235143E-1,5.385765088E-1,-8.333410817E-1,9.985682682E-1
2.789284792E0,-2.586649782E-1,4.673229235E-1,-2.111868698E0,2.178368124E0
2.799254792E0,-3.181607446E-1,-1.238320407E-1,-1.249904911E0,1.295693992E0
2.809224792E0,9.286231784E-2,-6.188789526E-1,-8.427936906E-1,1.049731286E0
2.819193792E0,1.647874558E-1,3.532969558E-1,-1.973837571E0,2.011966302E0
2.829163792E0,2.983920394E-1,-9.604566264E-1,-6.827197301E-1,1.215574338E0
2.839133792E0,8.577470675E-2,-1.266728812E0,1.100006860E0,1.679873292E0
2.849103792E0,3.278632123E-1,-6.672231469E-1,6.129343808E-1,9.635193661E-1
2.859073792E0,-7.157273356E-2,-2.002542722E-1,1.245065171E0,1.263096081E0
2.869043792E0,-7.141082416E-1,7.409977591E-1,1.209774300E0,1.588263869E0
2.879012792E0,-6.215885523E-1,7.906122610E-1,7.321976995E-1,1.244007053E0
2.888982792E0,-3.765295881E-1,7.129167983E-1,-5.565403247E-1,9.796744485E-1
2.898952792E0,-1.097869922E0,2.489180169E-1,-1.179494494E0,1.630486371E0
2.908922792E0,-8.930356718E-1,-3.808238930E-1,-6.008131027E-1,1.141716223E0
2.918892792E0,-4.701200853E-1,8.664108869E-1,-1.159550811E0,1.521919447E0
2.928861792E0,7.812985601E-2,1.978830216E0,-2.013009238E-1,1.990576640E0
2.938831792E0,2.029501127E-1,-4.952387005E-2,4.398222989E-1,4.869137671E-1
2.948801792E0,4.308870773E-2,-1.202281971E0,-1.184031934E0,1.687978138E0
2.958771792E0,-5.295575966E-4,5.316083819E-2,1.295123184E0,1.296213877E0
2.968741792E0,1.302775727E-1,1.466204820E0,2.033551676E0,2.510390655E0
2.978710792E0,3.717331537E-1,-1.481380391E-1,8.537677449E-1,9.428943623E-1
2.988680792E0,5.503720238E-1,1.301318309E-1,-3.585840082E-1,6.696462864E-1
2.998650792E0,4.001325685E-1,1.503704476E0,-9.011886638E-1,1.798158567E0
3.008620792E0,2.140704936E-2,4.606766859E-1,-1.280072451E-1,4.786095752E-1
3.018590792E0,-1.762011842E-2,-1.289964770E0,-1.759386259E-1,1.302026872E0
3.028560792E0,-4.960356029E-1,-1.297026452E-1,-1.478232835E0,1.564623408E0
3.038529792E0,-2.809698218E-1,-1.970050622E0,1.267084615E0,2.359141139E0
3.048499792E0,-2.508948691E-1,-1.941835175E0,1.442430333E0,2.431928730E0
3.058469792E0,-7.553650623E-2,-5.351669973E-1,-2.148144239E-1,5.815966949E-1
3.068439792E0,-1.774781613E-2,-2.679784781E-1,1.576151478E0,1.598868641E0
3.078409792E0,1.067528281E0,-1.081844531E0,1.544077746E0,2.166605711E0
3.088378792E0,3.338434886E-1,9.957282007E-2,-1.050651097E-1,3.638748393E-1
3.098348792E0,3.632907245E-1,9.767115936E-1,-2.244074244E0,2.474230163E0
3.108318792E0,1.217760866E-1,-1.044608292E0,-7.199249786E-1,1.274491222E0
3.118288792E0,1.438858160E-1,-1.005765823E0,1.050265181E-1,1.021419889E0
3.128258792E0,-6.642853595E-1,2.267412820E-1,-8.881838715E-1,1.132058849E0
3.138228792E0,-5.578856959E-1,7.512669316E-1,1.461871156E0,1.735714760E0
3.148197792E0,3.304933630E-1,5.759206286E-1,2.043718815E0,2.148882739E0
3.158167792E0,9.959134843E-2,6.436208609E-1,9.685111660E-1,1.167124727E0
3.168137792E0,9.881940633E-3,1.194415711E0,1.689103897E0,2.068767391E0
3.178107792E0,-2.339069717E-1,1.885955966E0,3.246514463E-1,1.927936965E0
3.188077792E0,-1.007731950E0,1.517305976E0,-2.344669157E-1,1.836495533E0
3.198046792E0,-1.505262174E0,1.999918199E0,-2.250821346E0,3.366256637E0
3.208016792E0,-1.272120968E0,2.185869597E0,-3.896100361E0,4.644988233E0
3.217986792E0,-6.870555867E-1,1.653072184E-1,-3.524519162E0,3.594663709E0
3.227956792E0,-4.932439594E-1,-1.651207507E0,-3.484222491E0,3.887104604E0
3.237926792E0,-8.980850349E-1,-2.728632420E-1,-6.374266130E-1,1.134602911E0
3.247895792E0,-5.789575993E-1,1.071233296E-1,1.851210349E0,1.942587724E0
3.257865792E0,-7.887034374E-1,-1.121536893E0,2.321037635E0,2.695758487E0
3.267835792E0,-8.019782250E-1,-8.174609211E-1,-6.732308686E-2,1.147145949E0
3.277805792E0,-3.404798957E-1,7.653408873E-1,-2.591652038E0,2.723661785E0
3.287775792E0,-1.867019612E-1,1.759207919E-1,-8.296444720E-1,8.683983517E-1
3.297744792E0,-2.117996726E-1,-1.507631173E0,1.070174950E0,1.860936668E0
3.307714792E0,-6.937434858E-1,-2.147685233E-1,-3.091912912E0,3.176055887E0
3.317684792E0,-7.565145884E-1,-1.689777204E0,-4.272510191E0,4.656393954E0
3.327654792E0,-6.241189349E-1,-3.641097440E0,-1.227552760E-1,3.696239152E0
3.337624792E0,-1.265528233E0,-1.972025227E0,5.647565398E0,6.114363427E0
3.347594792E0,-1.500022776E0,-1.322296657E0,9.196631756E0,9.411512760E0
3.357563792E0,-1.941862657E0,4.362897035E-1,4.424263564E0,4.851318106E0
3.367533792E0,-1.321438432E0,1.784200673E0,-1.396967647E0,2.623183215E0
3.377503792E0,-4.609664154E-1,2.306494440E0,-3.794692100E0,4.464537465E0
3.387473792E0,-2.663164801E-1,3.333129269E-1,-2.006969064E-1,4.714883064E-1
3.397443792E0,-1.951416130E0,-5.382215828E-1,2.239212869E0,3.018572785E0
3.407412792E0,-2.357305283E0,1.453862517E0,1.921787996E0,3.371034488E0
3.417382792E0,-1.193473944E0,1.566133735E0,-1.199096115E0,2.305425433E0
3.427352792E0,-7.956337767E-1,-5.183103517E-1,-1.794535042E0,2.030279474E0
3.437322792E0,-5.669960964E-1,1.396450168E0,-2.148920165E0,2.624769613E0
3.447292792E0,-1.249285983E0,2.634637844E0,-2.672664042E0,3.955396961E0
3.457261792E0,-7.847504273E-1,1.967295706E-3,-2.121293825E-1,8.129181867E-1
3.467231792E0,1.777796949E-1,-1.625882924E0,1.172519935E0,2.012437304E0
3.477201792E0,-2.350854781E-1,1.929569471E0,-1.188317943E0,2.278289503E0
3.487171792E0,-7.836037152E-1,2.293575895E0,1.402430116E0,2.800238454E0
3.497141375E0,-1.300937070E0,-4.721869299E-1,2.833587018E0,3.153508069E0
3.507110375E0,-1.623687148E0,-1.275305216E0,1.255688977E0,2.416509498E0
3.517080375E0,-1.718667565E0,-6.674526501E-1,-1.625601380E0,2.458025852E0
3.527050375E0,-8.741621753E-1,-5.213169900E-1,-1.400491179E0,1.731273074E0
3.537020375E0,-1.504784895E0,-3.564024121E-2,8.362453938E-2,1.507528066E0
3.546990375E0,-1.519584198E0,-1.132472355E0,1.063884516E0,2.173356858E0
3.556960375E0,-8.304006632E-1,-1.360127850E0,2.856621539E0,3.271054822E0
3.566929375E0,-1.244130785E0,1.332355329E0,2.074154742E0,2.761367420E0
3.576899375E0,-1.139448815E0,1.587676340E0,4.744980419E-1,2.011021669E0
3.586869375E0,-1.184623233E0,-3.682757682E-1,6.038331896E-1,1.379700608E0
3.596839375E0,-1.534741643E0,-2.296754149E-1,-2.104909927E-1,1.566042517E0
3.606809375E0,-1.258883749E0,9.781462079E-1,-2.751822478E0,3.180264965E0
3.616778375E0,-1.562369006E0,9.783818507E-1,-3.715304453E0,4.147495044E0
3.626748375E0,-1.799053770E0,-2.640140659E0,-9.136707151E-1,3.322910071E0
3.636718375E0,-1.420763184E0,-1.238653406E0,-3.174821752E-1,1.911445844E0
3.646688375E0,-7.072515772E-1,7.560101929E-1,9.991897523E-1,1.438796847E0
3.656658375E0,-1.151264137E0,1.296666849E0,2.434959522E0,2.989277823E0
3.666627375E0,-1.766914696E0,1.188767301E0,2.140884921E0,3.019692614E0
3.676597375E0,-1.410680537E0,1.013936430E-2,1.524286090E0,2.076913688E0
3.686567375E0,-1.179042943E0,-1.088786930E0,1.723269178E0,2.354836703E0
3.696537375E0,-9.137999386E-1,1.663255110E-1,-1.037383765E-1,9.345887620E-1
3.706507375E0,-1.709330146E0,-1.171863001E0,4.298732615E-1,2.116568795E0
3.716476375E0,-1.752783583E0,-8.403328899E-1,1.079507107E0,2.223453451E0
3.726446375E0,-2.212098014E0,3.663020405E-1,-6.095821720E-1,2.323606084E0
3.736416375E0,-1.933955321E0,-1.489808275E0,-4.803616297E-1,2.488063339E0
3.746386375E0,-6.655154675E-1,-9.119729760E-1,1.869770581E0,2.184181213E0
3.756356375E0,-1.512761959E0,4.134072098E-1,1.259403128E0,2.011330531E0
3.766326375E0,-1.632206834E0,-1.497440061E0,1.626672006E0,2.748178979E0
3.776295375E0,-1.221295362E0,-1.526384656E0,2.580196173E0,3.237101291E0
3.786265375E0,-1.200853642E0,-9.648198187E-2,8.596699244E-1,1.479996832E0
3.796235375E0,-1.643639017E0,-4.296481436E-1,6.879529881E-1,1.832873717E0
3.806205375E0,-1.497659770E0,4.458665657E-1,1.519521779E0,2.179616530E0
3.816175375E0,-1.545810568E0,2.261162147E-1,2.785315329E-1,1.586895923E0
3.826144375E0,-2.098101867E0,2.040266034E-1,-1.854492976E0,2.807632900E0
3.836114375E0,-1.896262853E0,7.420587364E-1,-1.306861469E0,2.419576590E0
3.846084375E0,-2.336908440E0,1.091909051E-1,-3.416393620E-1,2.364271805E0
3.856054375E0,-1.648799331E0,-8.542586187E-1,2.132315826E-1,1.869161505E0
3.866024375E0,-1.179594482E0,-4.618581158E-1,1.834577944E0,2.229446634E0
3.875993375E0,-1.193483811E0,1.999484336E0,1.637479414E0,2.846696340E0
3.885963375E0,-1.590191812E0,1.327821106E0,1.246655613E0,2.417843896E0
3.895933375E0,-1.925550533E0,6.613320771E-1,2.131652167E0,2.947718768E0
3.905903375E0,-2.740291184E0,-2.388032109E-1,1.052381288E0,2.945119543E0
3.915873375E0,-2.941719577E0,-1.553689106E0,-1.532672167E-2,3.326845175E0
3.925843375E0,-2.251396274E0,1.959723562E-2,-6.188049853E-1,2.334970844E0
3.935812375E0,-2.520796648E0,4.994834867E-1,-1.225051906E0,2.846866991E0
3.945782375E0,-1.873764814E0,-2.323468030E0,3.078623945E0,4.288055930E0
3.955752375E0,1.392692748E-1,-3.085982081E-1,3.859358212E0,3.874180506E0
3.965722375E0,-5.024237591E-1,2.289684573E0,7.112447870E-1,2.449684515E0
3.975692375E0,-7.900409880E-1,2.692192572E-1,4.375529945E-1,9.423886641E-1
3.985661375E0,-1.438795412E0,7.221135914E-2,5.997524178E-1,1.560464572E0
3.995631375E0,-2.760258256E0,8.357130048E-1,2.393084103E-1,2.893909186E0
4.005601375E0,-2.129760447E0,-3.866699392E-1,-7.409714466E-1,2.287888085E0
4.015571375E0,-2.545603461E0,-1.383740661E-1,-2.976759017E-1,2.566681769E0
4.025541375E0,-2.021033957E0,1.822542036E-1,-1.645639204E0,2.612646788E0
4.035510375E0,-1.216338092E0,-1.642934867E0,-2.250607923E0,3.040386382E0
4.045480375E0,-7.433043395E-1,-1.295354149E0,-5.109677106E-1,1.578458651E0
4.055450375E0,-6.810344164E-1,6.185743126E-1,3.775944757E-1,9.944946680E-1
4.065420375E0,-1.223634394E0,-3.087280163E-1,1.164817983E-1,1.267344518E0
4.075390375E0,-1.654256976E0,-1.082938545E0,1.893830704E0,2.737867194E0
4.085359375E0,-1.671217849E0,1.267507661E0,2.321152825E0,3.128465312E0
4.095329375E0,-2.021727729E0,-1.468765023E-1,2.308028165E0,3.071799103E0
4.105299375E0,-1.982730163E0,-9.903344366E-1,2.721557289E0,3.509822684E0
4.115269375E0,-2.337840340E0,6.505427948E-1,2.101571167E-1,2.435748221E0
4.125239375E0,-3.221283143E0,2.835765105E-1,-9.070779794E-1,3.358551948E0
4.135208375E0,-2.697046931E0,-4.739247224E-1,-7.885648584E-1,2.849649334E0
4.145178375E0,-3.067233569E0,9.200628912E-1,-8.517095250E-1,3.313585159E0
4.155148375E0,-2.351020549E0,5.849715337E-1,-2.448725622E0,3.444669286E0
4.165118375E0,-1.749705171E0,2.372621772E-1,-1.835080220E0,2.546621475E0
4.175088375E0,-9.453765111E-1,5.089577302E-1,1.435637038E0,1.792715377E0
4.185058375E0,-4.561243361E-1,-1.855564186E-1,4.551899511E-1,6.705807081E-1
4.195027375E0,-1.020692596E0,-1.015861041E0,1.102498358E0,1.813639893E0
4.204997375E0,-3.644502273E-1,-1.050601104E0,2.249499291E0,2.509349259E0
4.214967375E0,-9.245412737E-1,-2.604323539E-1,-6.379183638E-1,1.153057421E0
4.224937375E0,-2.530594243E0,-6.806363672E-2,-1.463818864E0,2.924261539E0
4.234907375E0,-1.103941013E0,-2.584942066E0,7.363696879E-1,2.905658542E0
4.244876375E0,-2.099788935E0,-4.003715734E0,7.729370052E-1,4.586532990E0
4.254846375E0,-1.616763606E0,-2.208613805E0,9.666324556E-1,2.902805161E0
4.264816375E0,-4.062835470E-1,-5.666986924E-1,2.478103788E0,2.574337218E0
4.274786375E0,-3.408132966E-1,-1.738088653E0,1.964643994E0,2.645171430E0
4.284756375E0,-1.237620203E-1,-1.792695216E0,9.365964782E-1,2.026397329E0
4.294725375E0,4.401675770E-1,-7.716266441E-1,1.046674406E0,1.372837385E0
4.304695375E0,2.299266259E-1,-1.009054590E0,1.010994696E0,1.446778385E0
4.314665375E0,-6.150624749E-1,-5.472759962E-1,-1.186645639E-1,8.318017449E-1
4.324635375E0,-6.226216822E-1,-4.518728256E-3,-1.356577420E-1,6.372450086E-1
4.334605375E0,-3.134124400E-1,-1.201280635E0,1.170010310E0,1.705938641E0
4.344574375E0,-2.307045248E-1,-9.049937394E-1,6.645115006E-1,1.146217161E0
4.354544375E0,-5.912600680E-1,3.104582074E-1,9.851119959E-1,1.190133779E0
4.364514375E0,1.849796639E-1,1.035736897E0,1.467723634E0,1.805874044E0
4.374484375E0,6.134357795E-2,7.598497671E-1,-1.606797320E-1,7.790716779E-1
4.384454375E0,-1.170753418E0,1.542439356E0,-2.177254018E0,2.913797829E0
4.394424375E0,-1.053209327E0,2.110717674E0,-1.507600476E0,2.799506774E0
4.404393375E0,-1.241417385E0,2.368332839E-1,-8.140914631E-1,1.503313686E0
4.414363375E0,-1.136435087E0,-6.786983076E-1,-1.475323845E0,1.982093980E0
4.424333375E0,1.711904676E-1,-7.045865625E-1,8.230184072E-1,1.096862662E0
4.434303375E0,8.881175056E-1,-7.977941036E-3,1.835858485E0,2.039409897E0
4.444273375E0,5.809256990E-1,-2.567211261E-1,1.444659877E-1,6.513453968E-1
4.454242375E0,4.270025709E-1,4.512854728E-1,-6.030227655E-1,8.658095803E-1
4.464212375E0,1.933591186E0,-5.162003839E-1,-1.294491684E-1,2.005491161E0
4.474182375E0,6.581368661E-1,-2.768317473E-1,-1.270816893E0,1.457654118E0
4.484152375E0,-6.678034099E-1,1.635621462E0,-8.837247849E-1,1.975395772E0
4.494123375E0,-3.573797742E-1,-5.905234650E-1,1.331113966E0,1.499434112E0
4.504092375E0,-9.215684031E-1,-2.107002937E0,6.334458286E-1,2.385372784E0
4.514062375E0,-7.948088808E-1,-3.107268870E-2,-2.880771124E-1,8.459758221E-1
4.524032375E0,-1.363848433E-1,4.245084411E-1,-3.585454166E-2,4.473184438E-1
4.534002375E0,3.226097448E-1,-7.646617332E-1,-8.365459406E-1,1.178386068E0
4.543972375E0,4.368719766E-1,-6.535348150E-1,-1.022794962E0,1.289990082E0
4.553942375E0,1.143049895E0,-3.910559356E-2,1.037505387E0,1.544185785E0
4.563911375E0,4.504604307E-1,-7.454849124E-2,1.404839169E0,1.477174725E0
4.573881375E0,-4.812822007E-1,-2.544778419E-1,1.088276761E0,1.216855717E0
4.583851375E0,-6.783531757E-1,1.813451662E0,-1.562093017E0,2.487750903E0
4.593821375E0,-1.090549573E-2,1.177743838E0,-2.026185354E0,2.343635331E0
4.603791375E0,1.564159423E-2,-1.135152427E0,-1.498463616E0,1.879949175E0
4.613760375E0,-4.100981608E-1,-2.400322956E-1,-1.537554592E0,1.609307344E0
4.623730375E0,-9.872084420E-2,3.405976805E-1,-3.063528773E0,3.083984619E0
4.633700375E0,7.625109811E-1,-1.110707849E0,-1.592742952E0,2.086126802E0
4.643670375E0,3.365146429E-1,-7.862405902E-1,4.489006859E-1,9.658820820E-1
4.653640375E0,3.851168821E-1,-3.878808975E-1,3.098372916E0,3.146216987E0
4.663609375E0,5.026464649E-1,7.653370866E-1,2.651840352E0,2.805468157E0
4.673579375E0,2.533575519E-1,2.137464300E0,1.377527409E0,2.555489277E0
4.683549375E0,5.031380330E-1,-7.148805857E-3,1.168181301E0,1.271945965E0
4.693519375E0,4.612300152E-1,-2.317751500E0,1.244703813E0,2.670953523E0
4.703489375E0,4.125187254E-1,-2.566769797E-1,-3.933217317E-1,6.251053954E-1
4.713459375E0,6.171771935E-1,9.096624488E-1,-1.439618407E0,1.811323996E0
4.723428375E0,1.348173071E0,-1.123162419E0,-3.267348093E-1,1.784886574E0
4.733398375E0,1.610325676E0,-9.272140360E-1,-5.217856443E-1,1.930060856E0
4.743368375E0,1.206908068E0,2.334877995E-1,-1.155212177E0,1.686908063E0
4.753338375E0,1.395641791E0,-8.051610106E-1,2.983477467E-1,1.638631026E0
4.763308375E0,1.128241749E0,-1.004909206E0,1.433515669E0,2.082723968E0
4.773277375E0,2.618403452E-1,1.116182305E0,4.414834929E-1,1.228548322E0
4.783247375E0,8.936493371E-1,-6.122946954E-1,1.216180510E0,1.628683200E0
4.793217375E0,9.672432704E-1,-7.461807311E-1,8.145715195E-1,1.468288796E0
4.803187375E0,5.885661461E-1,1.207370218E0,-4.670024961E-1,1.422056357E0
4.813157375E0,9.064792977E-1,1.215917678E0,-3.594920808E-1,1.558651684E0
4.823126375E0,1.742538531E0,1.025309265E-2,9.179631561E-1,1.969568992E0
4.833096375E0,1.612965547E0,4.962034911E-1,1.110070503E-1,1.691212088E0
4.843066375E0,1.027103848E0,1.601226385E0,-2.561616061E0,3.190727988E0
4.853036375E0,1.676343956E0,1.620116400E0,-1.255684884E0,2.647952178E0
4.863006375E0,1.634996102E0,2.572488374E-1,-9.723995644E-1,1.919622393E0
4.872975375E0,8.207192820E-1,8.077641910E-1,-3.099418398E0,3.306426702E0
4.882945375E0,2.145512407E0,9.291623282E-1,4.026036018E-1,2.372478827E0
4.892915375E0,2.437419446E0,-9.500269479E-1,2.378959569E0,3.535960038E0
4.902885375E0,2.495702738E0,-1.940071070E-1,8.165987492E-1,2.633059898E0
4.912855375E0,2.295893292E0,2.462639657E-1,1.221344186E0,2.612174108E0
4.922825375E0,2.439009450E0,2.050647765E-2,6.887066942E-1,2.534463360E0
4.932794375E0,1.871507497E0,6.715588573E-1,-9.434359664E-1,2.200818718E0
4.942764375E0,1.465826213E0,3.173298553E-1,2.004062998E-1,1.513111829E0
4.952734375E0,1.602386473E0,1.293980053E-1,-9.925180793E-2,1.610663581E0
4.962704375E0,1.421673010E0,7.826436755E-1,-1.598693079E0,2.278048470E0
4.972674375E0,1.262455082E0,-3.128231138E-1,3.902420032E-1,1.357917507E0
4.982643375E0,1.673196254E0,-1.695184124E0,7.992307645E-1,2.512370342E0
4.992613375E0,1.170955294E0,-1.334105693E0,-1.617953807E-1,1.782456744E0
5.002583375E0,1.455846039E0,-1.091741236E0,9.675674254E-1,2.060964177E0
5.012553375E0,2.002430456E0,-1.921654095E0,1.930666993E0,3.380821975E0
5.022523375E0,1.653517157E0,-5.971179548E-1,8.154181963E-1,1.937930772E0
5.032492375E0,1.164212431E0,-5.179139104E-1,1.335974756E0,1.846199867E0
5.042462375E0,1.640526691E0,-1.212737085E0,1.847645887E0,2.752426998E0
5.052432375E0,1.403479106E0,-8.147390422E-1,-2.310498029E-1,1.639188006E0
5.062402375E0,1.275244405E0,2.913141310E-1,-1.537066349E0,2.018337231E0
5.072372375E0,1.954570118E0,1.836747846E-1,5.023009676E-1,2.026422226E0
5.082341375E0,1.337093036E0,-7.565130535E-1,1.980568886E-1,1.548985577E0
5.092311375E0,1.330276206E0,1.411514935E-1,7.590387583E-2,1.339895491E0
5.102281375E0,1.218201308E0,4.526943594E-2,-3.897946912E-1,1.279845166E0
5.112251375E0,1.883670875E0,-5.423187268E-1,3.314891803E-1,1.988016761E0
5.122221375E0,1.592399428E0,9.835151213E-1,1.395244473E0,2.334468906E0
5.132191375E0,1.890814418E0,1.447823220E0,8.943211091E-1,2.543851703E0
5.142160375E0,2.018259453E0,2.203070059E-1,-1.531087571E-1,2.036012939E0
5.152130375E0,9.989385413E-1,2.759257212E-1,2.662816161E-1,1.070008931E0
5.162100375E0,5.741578393E-1,1.712067667E-1,-9.882461035E-1,1.155681333E0
5.172070375E0,1.035783382E0,1.969298378E-1,-2.222665833E0,2.460055280E0
5.182040375E0,1.379128962E0,9.156444427E-1,-1.129002033E0,2.003758226E0
5.192009375E0,6.151357844E-1,7.295240602E-1,-6.627029568E-1,1.161797141E0
5.201979375E0,1.576021962E0,-8.052434564E-1,-4.728847951E-1,1.831906733E0
5.211949375E0,1.362483254E0,-3.206221300E-1,1.154253234E0,1.814238048E0
5.221919375E0,3.670187630E-1,1.176635790E0,-1.058977532E-1,1.237088877E0
5.231889375E0,8.481237200E-1,-1.851429620E0,-4.957900929E-1,2.095927789E0
5.241858375E0,1.104958501E0,-1.770898842E0,2.496825403E0,3.254405183E0
5.251828375E0,5.450796358E-2,-1.255838665E-1,1.715533896E0,1.720987790E0
5.261798375E0,8.415229444E-1,5.754747784E-1,-1.302257372E0,1.653845926E0
5.271768375E0,3.331712050E-1,6.173563376E-1,-2.086080723E0,2.200878161E0
5.281738375E0,2.553014222E-1,-7.952719072E-1,-1.405232102E0,1.634721225E0
5.291707375E0,1.934700403E0,-1.880130385E0,4.446655476E-1,2.734169593E0
5.301677375E0,2.190905220E0,-5.893341413E-1,3.702434147E0,4.342280394E0
5.311647375E0,1.467661361E0,9.271886006E-1,2.324706763E0,2.901373831E0
5.321617375E0,1.675083735E0,5.397778192E-1,7.578851026E-1,1.916156424E0
5.331587375E0,1.477752194E-1,2.177152276E-1,1.524217093E0,1.546762807E0
5.341557375E0,6.936022756E-1,5.038022402E-1,6.035501844E-1,1.048414822E0
5.351526375E0,8.543078084E-1,3.550636920E-1,-2.118680120E-2,9.253977185E-1
5.361496375E0,-2.429758570E-1,1.027756617E0,-4.470839560E-2,1.057033477E0
5.371466375E0,1.770536900E-3,1.990213868E-1,-1.144363838E0,1.161542612E0
5.381436375E0,1.153379660E0,-5.960066915E-2,-1.161258783E0,1.637790841E0
5.391406375E0,7.767836691E-1,1.611541750E0,7.009332222E-1,1.921397165E0
5.401375375E0,9.767202182E-1,1.439702315E0,3.579706353E-1,1.776194842E0
5.411345375E0,7.735283048E-1,1.896632105E-2,2.179643190E-1,8.038744952E-1
5.421315375E0,1.102183851E0,1.548268153E0,-7.018214142E-1,2.025955778E0
5.431285375E0,1.838487539E0,1.005407974E0,-9.265737659E-1,2.291161402E0
5.441255375E0,1.652885658E0,8.371604830E-2,-8.767718607E-1,1.872903701E0
5.451224375E0,1.831373962E0,1.652495649E0,-2.162412030E0,3.280350324E0
5.461194375E0,1.892144367E0,-3.261948189E-1,-2.547876273E0,3.190342751E0
5.471164375E0,1.298036705E0,-1.715133069E0,-1.849343333E0,2.836662034E0
5.481134375E0,1.252216900E0,1.367160881E-1,-1.175880915E-1,1.265134543E0
5.491103500E0,1.215957292E0,-1.685553467E-1,5.472274643E-1,1.344031599E0
5.501072500E0,1.991668655E0,-1.955857675E0,1.816797146E0,3.330596816E0
5.511042500E0,2.227746187E0,8.764362305E-2,9.079416132E-1,2.407258285E0
5.521012500E0,2.262223855E0,2.793326014E-1,7.210359496E-1,2.390727152E0
5.530982500E0,2.389909649E0,-6.213426769E-1,2.384596869E0,3.432788529E0
5.540952500E0,1.866103500E0,9.809198347E-1,1.054396824E0,2.357180234E0
5.550922500E0,1.513763441E0,2.807514283E-1,-7.871258587E-1,1.729123546E0
5.560891500E0,2.572726648E0,-8.613702947E-1,-1.004124218E0,2.892947741E0
5.570861500E0,3.129408767E0,6.015323102E-1,-1.362600052E0,3.465792731E0
5.580831500E0,2.727179972E0,-1.004605736E0,1.217997825E0,3.151231820E0
5.590801500E0,2.143126013E0,-1.548541510E-1,1.834640509E0,2.825398151E0
5.600771500E0,1.389655996E0,1.996140606E0,1.578584504E-1,2.437342897E0
5.610740500E0,1.705718468E0,4.610281035E-1,1.091329007E0,2.076781501E0
5.620710500E0,2.294124656E0,6.082273722E-2,1.768828928E0,2.897492557E0
5.630680500E0,1.978297973E0,-6.840257058E-1,9.122352237E-1,2.283358741E0
5.640650500E0,1.405576941E0,-2.118212050E0,1.945298481E0,3.201039676E0
5.650620500E0,1.206409520E0,3.332524082E-1,1.704934064E0,2.115013300E0
5.660589500E0,9.282288203E-1,-6.729814848E-1,2.002147450E0,2.307185999E0
5.670559500E0,1.192131570E0,-1.242185124E0,1.403721181E0,2.221403772E0
5.680529500E0,7.568109691E-1,7.347339293E-1,-5.220762509E-1,1.176928376E0
5.690499500E0,9.612097478E-1,-1.201719761E0,-8.148539400E-1,1.741275827E0
5.700469500E0,1.783081224E0,-2.798344095E0,-5.812009567E-1,3.368664850E0
5.710438500E0,1.169211946E0,-8.066041034E-1,-2.332087119E0,2.730622106E0
5.720408500E0,3.087051756E-1,-2.050698344E0,-1.500300812E0,2.559602529E0
5.730378500E0,-4.466218067E-1,-3.044653084E0,1.080763088E0,3.261507672E0
5.740348500E0,-1.131027508E0,2.848389244E-1,1.940281570E-1,1.182371923E0
5.750318500E0,-1.765513045E-1,7.112670064E-2,8.327902740E-1,8.542651879E-1
5.760287500E0,-4.685053767E-1,-8.953312156E-1,1.527347108E0,1.831366828E0
5.770257500E0,-7.295518345E-1,-1.153746280E-1,-6.271676731E-1,9.689667044E-1
5.780227500E0,-4.256352361E-1,8.444668713E-1,-1.513562881E0,1.784702285E0
5.790197500E0,-8.504857028E-1,1.346007116E0,-4.640859050E-1,1.658444094E0
5.800167500E0,-3.004098587E-1,2.104639493E0,-6.660826474E-1,2.227873329E0
5.810137500E0,-3.903419906E-1,1.877637425E-1,-7.980671686E-1,9.080381590E-1
5.820106500E0,-1.612919354E0,-1.132335238E0,1.058696866E-2,1.970736923E0
5.830076500E0,-1.281707478E0,6.008774221E-2,-2.091660136E-1,1.300051929E0
5.840046500E0,-1.373582147E0,-4.387060654E-1,-1.098101252E-1,1.446115206E0
5.850016500E0,-1.745474271E0,-5.223586714E-1,5.989402395E-1,1.917881233E0
5.859986500E0,-1.127664190E0,-1.250944546E-1,9.796752548E-1,1.499012593E0
5.869955500E0,-1.159419614E0,-1.177780383E0,-4.000793588E-1,1.700436404E0
5.879925500E0,-1.150149512E0,-5.327503431E-1,-2.867743528E-1,1.299579300E0
5.889895500E0,-5.394467206E-1,4.051950878E-1,2.470401835E-1,7.184808111E-1
5.899865500E0,-7.462921205E-1,-1.162322391E0,-5.961645663E-2,1.382569851E0
5.909835500E0,-1.042138867E0,-1.220427050E0,-8.339000756E-1,1.808558802E0
5.919804500E0,-1.526480550E0,-1.662123674E-1,4.389498943E-1,1.597011719E0
5.929774500E0,-1.912624094E0,-1.445168000E0,3.225211887E0,4.018536200E0
5.939744500E0,-1.490088942E0,-7.090699151E-1,3.898219977E0,4.233115187E0
5.949714500E0,-1.645191307E0,2.212527931E-2,1.845615733E0,2.472537442E0
5.959684500E0,-7.158111700E-1,-6.176606852E-1,8.896047449E-1,1.298186025E0
5.969653500E0,-1.039744871E0,6.190976384E-1,-5.429724455E-3,1.210116013E0
5.979623500E0,-8.989756389E-1,1.298628005E0,-9.676580572E-1,1.852283458E0
5.989593500E0,-4.943826681E-1,-4.249279788E-1,-1.783014858E0,1.898451999E0
5.999563500E0,-1.228783160E0,-5.887491274E-1,-1.803568990E0,2.260397021E0
6.009533500E0,-1.596949439E0,1.136666856E0,-2.138793372E0,2.901154277E0
6.019502500E0,-1.370379773E0,9.099419457E-1,-1.409026945E0,2.165939057E0
6.029472500E0,-1.725339238E0,1.781576443E-1,-1.665836656E-1,1.742494118E0
6.039442500E0,-1.281220551E0,6.880392346E-1,-5.699398041E-2,1.455394243E0
6.049412500E0,-9.161934232E-1,7.979598722E-1,1.920652467E-1,1.230056668E0
6.059382500E0,-7.840054189E-1,1.173064604E0,1.060714155E-1,1.414919152E0
6.069352500E0,-7.262501311E-1,1.293489179E0,-1.004490838E0,1.791523194E0
6.079321500E0,-7.011714231E-1,-7.426726940E-1,1.486689663E-1,1.032136888E0
6.089291500E0,-7.515188004E-1,-4.390142137E-1,5.773762929E-1,1.044450751E0
6.099261500E0,-1.251167325E0,5.502817574E-1,-2.384091085E-1,1.387468411E0
6.109231500E0,-9.540355065E-1,-8.002154356E-1,1.451688230E-2,1.245286807E0
6.119201500E0,-1.021552136E0,-4.501157373E-1,-8.573930186E-1,1.407585071E0
6.129170500E0,-1.262820241E0,-1.623433525E0,-8.318699223E-1,2.218616447E0
6.139140500E0,-1.162714886E0,-1.936798968E0,2.116785622E-1,2.268899284E0
6.149110500E0,-1.534202968E0,-1.400495857E-1,3.982351470E-1,1.591220873E0
6.159080500E0,-1.791410875E0,-8.690310243E-1,6.936025679E-1,2.108424143E0
6.169050500E0,-1.492140437E0,-1.226381270E0,1.406385757E0,2.389228956E0
6.179019500E0,-1.756280218E0,5.377421111E-1,1.611799028E0,2.443682240E0
6.188989500E0,-1.805136044E0,-3.700951293E-1,1.746230024E0,2.538662214E0
6.198959500E0,-1.470283107E0,-4.969244528E-1,2.692777879E0,3.108008853E0
6.208929500E0,-1.463341292E0,9.831631190E-1,5.862090969E-1,1.857853213E0
6.218899500E0,-1.775407338E0,-7.844630367E-1,7.985747069E-1,2.098850884E0
6.228868500E0,-1.665716203E0,5.417649955E-2,5.925638509E-1,1.768806796E0
6.238838500E0,-2.116095796E0,1.356831774E0,-7.076072341E-1,2.611429088E0
6.248808500E0,-2.206236181E0,-1.361968553E0,-3.213799292E-1,2.612608176E0
6.258778500E0,-1.053980063E0,-1.238054359E0,-1.705408857E0,2.356283502E0
6.268748500E0,-1.817686800E0,-1.833021123E0,-1.690945185E0,3.085975917E0
6.278718500E0,-8.721494906E-1,-3.071543844E0,1.968960993E0,3.751244289E0
6.288687500E0,-5.431456693E-1,1.252511892E0,2.618324697E-2,1.365459198E0
6.298657500E0,-1.922553543E0,2.612571037E-1,9.850944543E-1,2.175977593E0
6.308627500E0,-4.478743534E-1,-2.463091939E0,8.971605170E-1,2.659381569E0
6.318597500E0,-1.734522144E0,-7.251202297E-1,-1.051311833E0,2.153978409E0
6.328567500E0,-2.051079144E0,-6.549548113E-1,-4.773532373E-1,2.205392838E0
6.338536500E0,-2.129361082E0,-1.844457692E0,2.078202184E0,3.500732369E0
6.348506500E0,-2.517988231E0,3.627460563E-1,1.299591041E0,2.856708999E0
6.358476500E0,-2.070561920E0,2.900017235E-1,1.102615303E-1,2.093677451E0
6.368446500E0,-1.089796744E0,-7.977859175E-1,2.146732721E0,2.536253278E0
6.378416500E0,-1.118559344E0,6.904485798E-1,1.444058783E0,1.952741667E0
6.388385500E0,-1.218866136E0,5.245683342E-1,8.955811840E-1,1.600897327E0
6.398355500E0,-1.298026911E0,4.405075926E-1,1.247218115E0,1.853233344E0
6.408325500E0,-1.651366698E0,1.260217645E0,8.849819362E-2,2.079180707E0
6.418295500E0,-1.789487579E0,-4.806917050E-1,-4.841418546E-1,1.915130191E0
6.428265500E0,-1.351183802E0,-9.560522112E-1,1.213940442E-1,1.659659607E0
6.438234500E0,-1.442200684E0,5.482463416E-1,-5.750134331E-1,1.646559234E0
6.448204500E0,-1.516082593E0,3.923750675E-1,-5.824265331E-1,1.670833710E0
6.458174500E0,-1.161334943E0,-5.531492320E-1,1.028797129E0,1.647147976E0
6.468144500E0,-8.688351426E-1,6.559397748E-1,5.309622645E-1,1.211219394E0
6.478114500E0,-1.051069904E0,-1.720724469E-1,8.246667373E-1,1.347008574E0
6.488083500E0,-9.446476556E-1,6.925296038E-2,1.125553345E0,1.471062711E0
6.498053750E0,-1.529490258E0,9.722030979E-1,-5.437512946E-1,1.892137623E0
6.508023750E0,-1.948118155E0,-5.109843752E-1,-4.253510249E-1,2.058444284E0
6.517993750E0,-1.182014206E0,-9.607250136E-1,4.134186119E-1,1.578310832E0
6.527963750E0,-1.140934227E0,-1.245712457E0,1.414324522E-1,1.695150015E0
6.537933750E0,-9.840897565E-1,-1.561303058E0,3.900437826E-1,1.886328190E0
6.547902750E0,-3.154559688E-1,-5.427531749E-1,1.237185463E0,1.387343269E0
6.557872750E0,-1.943348435E-1,-1.116971094E0,2.217766451E0,2.490758617E0
6.567842750E0,1.139932964E-1,-1.370936135E0,3.013706988E0,3.312837178E0
6.577812750E0,-1.073797300E-1,1.041430623E0,2.287697981E0,2.515883583E0
6.587782750E0,-8.863057458E-1,9.377176818E-1,6.770397449E-1,1.457132507E0
6.597751750E0,-1.354653979E0,6.383990049E-3,-2.985640937E-1,1.387180116E0
6.607721750E0,-1.166490579E0,1.228736528E0,-1.551083295E0,2.297031370E0
6.617691750E0,-1.589220882E0,1.009588733E0,-1.753499283E0,2.572868468E0
6.627661750E0,-1.381149759E0,-9.911615252E-2,-6.514026278E-1,1.530269275E0
6.637631750E0,-1.256980919E0,2.104269364E0,-2.093697891E0,3.223588287E0
6.647600750E0,-5.026216874E-1,1.618193251E0,-4.285498611E0,4.608326844E0
6.657570750E0,-2.942622241E-1,9.663979822E-1,-4.795354766E0,4.900606355E0
6.667540750E0,2.210497485E-1,2.167753169E0,-7.892219685E0,8.187499518E0
6.677510750E0,6.010424963E-1,-1.902659123E0,-5.104491795E0,5.480620431E0
6.687480750E0,2.502244602E0,-4.546120415E0,1.327894489E0,5.356467367E0
6.697449750E0,1.077737739E0,-3.582056934E0,4.625636993E0,5.948879567E0
6.707419750E0,9.183149392E-1,-1.359592537E0,6.679100193E0,6.877657565E0
6.717389750E0,7.607367897E-1,1.818691936E0,3.156755610E0,3.721755877E0
6.727359750E0,-2.181164928E-1,4.018949193E-1,4.199366201E0,4.224188777E0
6.737329750E0,1.638966215E0,-8.441230550E-1,3.062570999E0,3.574646152E0
6.747299750E0,4.309536807E-2,1.254723601E0,1.925022676E0,2.298238636E0
6.757268750E0,1.807463894E-1,4.233209885E0,2.101146074E0,4.729434429E0
6.767238750E0,1.582308157E0,2.039331649E0,2.616073519E-1,2.594419219E0
6.777208750E0,5.864729525E-1,-9.334252408E-1,2.002209431E-1,1.120411367E0
6.787178750E0,1.416535354E0,-4.914315784E-1,7.848372585E-1,1.692349529E0
6.797148750E0,1.557463338E0,1.057896967E0,-8.681951648E-1,2.073306752E0
6.807117750E0,6.791944438E-1,1.719076139E0,-9.915872025E-1,2.097563598E0
6.817087750E0,2.618498944E0,-7.828205538E-1,-1.295940040E0,3.024699212E0
6.827057750E0,1.605158637E0,-1.933326599E0,-1.605234944E0,2.981788929E0
6.837027750E0,8.016001294E-1,1.460103543E0,-3.381972231E0,3.769907332E0
6.846997750E0,1.588594645E0,-5.467146635E-5,-2.747782052E0,3.173946936E0
6.856966750E0,8.371110740E-1,-1.989236798E0,-8.807351035E-1,2.330989556E0
6.866936750E0,5.644688202E-1,-1.955024740E0,-9.444071889E-2,2.037072858E0
6.876906750E0,9.002018000E-1,-2.082312777E0,8.146136194E-1,2.410391074E0
6.886876750E0,1.565165290E0,-5.663186234E-1,1.245282687E0,2.078746771E0
6.896846750E0,1.865580466E0,-1.688032687E-2,7.099168843E-1,1.996160666E0
6.906816750E0,1.705279049E0,-2.253355822E0,1.986065269E-2,2.825948255E0
6.916785750E0,1.859706061E0,-1.016435238E0,-1.074903009E0,2.376355130E0
6.926755750E0,1.348319544E0,8.772995719E-1,-1.397191595E0,2.130672308E0
6.936725750E0,1.352298720E0,-9.981822771E-1,-1.723394893E0,2.407315859E0
6.946695750E0,1.228469311E0,-2.421299842E0,2.209212559E-1,2.724084428E0
6.956665750E0,1.680301206E0,-1.722148851E0,1.099932600E0,2.645573763E0
6.966634750E0,1.553610754E0,-2.760648850E-1,1.664718084E0,2.293731565E0
6.976604750E0,1.719716994E0,1.716023308E0,8.150170773E-1,2.562501780E0
6.986574750E0,2.059105470E0,1.770145428E0,2.393211572E0,3.619501596E0
6.996544750E0,2.484140746E0,3.447622429E0,2.184543157E-1,4.254970969E0
7.006514750E0,1.802974621E0,3.920672116E0,-9.312515384E-1,4.414704605E0
7.016483750E0,9.186130010E-1,3.525677496E0,-1.070698861E0,3.797452791E0
7.026453750E0,2.099878398E0,2.905039993E-1,-1.323351787E0,2.499028173E0
7.036423750E0,1.186972133E0,-1.458028366E0,-2.215059190E0,2.905380660E0
7.046393750E0,1.374790328E0,-1.631478709E0,4.543251479E-1,2.181325873E0
7.056363750E0,1.825181176E0,-2.116787668E0,1.828450062E0,3.339955986E0
7.066332750E0,1.907655861E0,-3.139267758E-1,1.936997189E0,2.736724139E0
7.076302750E0,3.127041230E0,-1.674239105E-1,3.790285054E0,4.916571814E0
7.086272750E0,3.075703261E0,-1.889528030E0,3.611553798E0,5.106230269E0
7.096242750E0,2.351495489E0,-9.893214065E-1,3.243873276E0,4.126863423E0
7.106212750E0,1.150637900E0,-9.183961424E-1,2.285905225E0,2.718967037E0
7.116182750E0,3.409325798E-1,-1.517421751E0,1.981365861E0,2.518851816E0
7.126151750E0,9.769644856E-2,7.691857240E-1,7.932514018E-1,1.109251577E0
7.136121750E0,-3.098595256E-1,1.580170269E0,-6.752785635E-1,1.746124893E0
7.146091750E0,3.818499331E-1,-4.507808581E-1,-5.259558785E-1,7.909755619E-1
7.156061750E0,3.253533315E-1,-1.956408191E-1,7.636931419E-2,3.872497806E-1
7.166031750E0,6.184953752E-1,1.139790438E0,-1.486344092E0,1.972530743E0
7.176000750E0,1.148756412E0,7.122440761E-1,-2.373579546E0,2.731448842E0
7.185970750E0,1.473580936E0,7.999186894E-1,-3.125496980E0,3.546835499E0
7.195940750E0,1.786397326E0,1.567223364E-1,-3.286714656E0,3.744098092E0
7.205910750E0,1.818891034E0,-2.244634992E-1,-3.103353574E0,3.604102088E0
7.215880750E0,1.218653663E0,5.404639900E-1,-2.423332334E0,2.765819531E0
7.225849750E0,1.451031880E0,1.003580134E0,-5.433712256E-1,1.846054954E0
7.235819750E0,1.406686012E0,8.183660701E-1,1.675748271E0,2.335941101E0
7.245789750E0,1.326429176E0,1.694943511E0,1.829187396E0,2.824566231E0
7.255759750E0,2.249921460E0,1.189268700E0,1.072919049E0,2.761822206E0
7.265729750E0,2.046042937E0,8.474802339E-1,8.979393661E-2,2.216433486E0
7.275698750E0,2.306715611E0,4.154826790E-2,-1.016870563E0,2.521247491E0
7.285668750E0,3.049633450E0,-1.163943532E0,-1.514767992E-1,3.267716932E0
7.295638750E0,2.349278517E0,-2.754579440E-1,-6.212169617E-1,2.445587280E0
7.305608750E0,2.557569203E0,-6.578523991E-1,-5.319153607E-2,2.641355589E0
7.315578750E0,1.709784183E0,-2.154708616E0,-1.872629285E-2,2.750723877E0
7.325547750E0,1.127816948E0,-4.695817029E-1,1.004516566E-1,1.225793041E0
7.335517750E0,1.257469454E0,-6.405811858E-1,1.243364215E0,1.880831799E0
7.345487750E0,1.212332603E0,-1.275538812E0,2.993404870E0,3.472351123E0
7.355457750E0,1.111901705E0,-1.358238029E0,1.926495590E0,2.606246574E0
7.365427750E0,1.195807276E0,-9.041795146E-1,4.935681510E-1,1.578323527E0
7.375397750E0,1.324133267E0,8.989705226E-1,2.158630636E0,2.687222196E0
7.385366750E0,6.061904946E-1,4.827724367E-2,2.327083071E0,2.405226233E0
7.395336750E0,1.805470797E0,-6.512710655E-1,3.656626475E0,4.129745268E0
7.405306750E0,2.148942823E0,2.237818893E0,2.067207080E0,3.728154203E0
7.415276750E0,2.282346463E0,1.037468550E0,1.364826672E0,2.854504898E0
7.425246750E0,3.116769426E0,5.913651717E-1,1.804386431E0,3.649626668E0
7.435215750E0,2.279360729E0,1.585318158E0,-1.259932301E0,3.048958576E0
7.445185750E0,2.118293619E0,-4.102473745E-1,-3.051382352E0,3.737165373E0
7.455155750E0,1.800333287E0,-1.058884854E0,-3.065304573E0,3.709249143E0
7.465125750E0,5.871955222E-1,-1.637491693E0,-2.916143855E0,3.395596062E0
7.475095750E0,1.367910786E0,-2.348513117E0,-8.860028601E-1,2.858617646E0
7.485064750E0,9.831009923E-1,-1.640966401E0,1.512682875E0,2.438743072E0
7.495034792E0,5.222956677E-1,-6.974099824E-1,1.489578187E0,1.725693085E0
7.505004792E0,1.614296958E0,-1.440277389E-1,1.430442957E0,2.161681223E0
7.514974792E0,1.489603623E0,1.337260851E0,4.797950345E-1,2.058491878E0
7.524944792E0,2.093024291E0,3.598654255E-1,1.550600899E0,2.629565926E0
7.534914792E0,2.120058454E0,-1.335266073E0,1.112271979E0,2.741301204E0
7.544883792E0,1.486967259E0,-6.293144783E-1,3.437601471E-1,1.650842022E0
7.554853792E0,1.581877071E0,5.116527119E-1,-1.816016543E-1,1.672454103E0
7.564823792E0,2.068483527E0,1.341962889E0,-2.156967688E-1,2.475078503E0
7.574793792E0,1.214086257E0,4.635055688E-1,-6.593501633E-1,1.457252720E0
7.584763792E0,1.815433576E0,-1.596731923E0,6.838657844E-1,2.512573245E0
7.594732792E0,1.112675072E0,4.769413009E-1,4.196172452E-1,1.281248396E0
7.604702792E0,1.121565325E0,1.324401070E0,8.393315542E-1,1.927803006E0
7.614672792E0,1.157666034E0,5.126900080E-1,1.214907571E0,1.754719948E0
7.624642792E0,3.914446293E-1,5.898203373E-1,-5.809144431E-1,9.157393288E-1
7.634612792E0,4.384528810E-1,-4.572446626E-1,-8.781161356E-1,1.082774934E0
7.644581792E0,6.942223728E-1,7.264150956E-1,-2.553842188E0,2.744400392E0
7.654551792E0,1.147498676E0,9.159055209E-1,-2.166968765E0,2.617515953E0
7.664521792E0,6.262362847E-1,-2.288630027E0,1.632019869E0,2.879841686E0
7.674491792E0,-2.524226917E-1,-5.107595497E-1,1.073738828E0,1.215527706E0
7.684461792E0,1.946195736E0,-4.016756487E-1,2.141978350E0,2.921830321E0
7.694430792E0,1.640543063E0,-1.154676864E0,2.985123459E0,3.596612610E0
7.704400792E0,1.383100537E0,-2.966503000E-1,1.633558272E0,2.160898221E0
7.714370792E0,1.309290987E0,-2.178801483E0,9.233449334E-1,2.704437956E0
7.724340792E0,7.032816833E-1,-1.247525679E0,5.667840618E-1,1.540184930E0
7.734310792E0,1.031447160E0,1.102631090E0,-2.431044227E-1,1.529306485E0
7.744280792E0,1.022004418E0,-1.276063892E0,4.480417299E-1,1.695161786E0
7.754249792E0,4.565071095E-1,-9.218468767E-1,-1.457003349E-1,1.038955722E0
7.764219792E0,5.563824499E-1,7.089687583E-1,-1.070652083E0,1.399462044E0
7.774189792E0,5.538776489E-1,-1.187236208E-1,-1.608866649E0,1.705675128E0
7.784159792E0,3.618999642E-1,1.416274276E0,-1.959009032E0,2.444283289E0
7.794129792E0,1.394181741E0,1.787929443E-1,-1.061205322E0,1.761211622E0
7.804098792E0,1.325090018E0,-1.506696788E0,6.898018777E-2,2.007674534E0
7.814068792E0,1.096197472E0,4.074199533E-1,7.318860430E-1,1.379600339E0
7.824038792E0,9.063773368E-1,2.135675052E-1,-3.680822253E-2,9.319258561E-1
7.834008792E0,2.164073516E-1,2.322557911E-1,-1.319652253E0,1.357297670E0
7.843978792E0,6.935011187E-1,3.224014378E-1,-1.219170191E0,1.439188120E0
7.853947792E0,-4.222714791E-1,-6.716439342E-1,2.447527528E-2,7.937366160E-1
7.863917792E0,-1.183763839E0,1.995102140E-1,5.104730362E-1,1.304486057E0
7.873887792E0,-6.729567803E-1,1.394087309E-1,-2.361994457E-1,7.267020026E-1
7.883857792E0,4.815660100E-1,-1.945967987E-1,1.334038743E0,1.431584124E0
7.893827792E0,4.654936952E-1,1.123936882E0,2.350352066E0,2.646520986E0
7.903796792E0,8.737083583E-1,1.023793666E0,3.941368335E-1,1.402449147E0
7.913766792E0,1.447788430E0,7.384986591E-1,-6.805837423E-1,1.762006197E0
7.923736792E0,1.351156759E0,1.446668688E0,-1.365314915E0,2.404695344E0
7.933706792E0,1.115130098E0,-9.095086670E-1,-9.503187239E-2,1.442134601E0
7.943676792E0,-8.352919322E-1,-5.893066594E-1,1.863559084E0,2.125522856E0
7.953646792E0,-4.749552941E-1,1.296029795E0,2.995820940E-1,1.412453607E0
7.963615792E0,2.176694731E-1,-6.757992581E-1,1.546041825E0,1.701273042E0
7.973585792E0,-4.236236477E-2,7.821352601E-2,9.749653226E-1,9.790144564E-1
7.983555792E0,1.191780042E-1,7.512069976E-1,-1.253775183E0,1.466447258E0
7.993525792E0,-3.757441244E-1,-8.733035848E-1,-2.007907543E0,2.221606513E0
8.003495792E0,-7.948892800E-1,-5.293832240E-1,-2.575973899E0,2.747314524E0
8.013464792E0,-5.492671193E-1,-2.098787015E0,-1.508973402E0,2.642650569E0
8.023434792E0,-4.041328680E-1,-1.913355142E0,-7.519952023E-1,2.095172560E0
8.033404792E0,-5.821496309E-1,-5.328263569E-1,1.329933413E0,1.546455625E0
8.043374792E0,-2.834228201E-1,-1.730032067E0,2.170115152E0,2.789756122E0
8.053344792E0,-1.432815154E-1,-1.276206272E0,2.365650721E0,2.691753216E0
8.063313792E0,-7.242709947E-1,1.090169504E0,8.185792011E-1,1.543732467E0
8.073283792E0,-3.014984092E-1,7.976274580E-2,-1.068195668E0,1.112791702E0
8.083253792E0,-4.051727222E-1,-2.524377483E-1,-2.012592916E0,2.068434190E0
8.093223792E0,-4.012641509E-1,-7.071417958E-1,-9.589345962E-1,1.257226311E0
8.103193792E0,-2.342018907E-1,-8.778571039E-1,-1.530877656E0,1.780188198E0
8.113162792E0,-2.644067064E-1,7.225959867E-2,-2.850196034E-1,3.954346094E-1
8.123132792E0,-5.711779520E-3,-1.802946262E0,1.669865972E0,2.457458080E0
8.133102792E0,3.130966539E-1,-1.997525519E0,1.441714634E0,2.483279847E0
8.143072792E0,3.218911586E-1,5.506872618E-1,1.051226463E0,1.229612726E0
8.153042792E0,-4.412280792E-1,9.675913990E-1,9.177263439E-2,1.067397559E0
8.163012792E0,-9.663305931E-1,6.040340415E-1,-1.809581682E0,2.138512989E0
8.172981792E0,-1.186803806E0,8.754264164E-1,-1.572123916E0,2.155562175E0
8.182951792E0,-1.020044943E0,-1.490452931E0,-2.722241414E-1,1.826485042E0
8.192921792E0,-5.879840192E-1,-8.756076801E-1,3.619900113E-1,1.115101244E0
8.202891792E0,-1.543745039E0,-5.459156415E-1,2.808590171E0,3.251053888E0
8.212861792E0,-1.193913289E0,-9.864515930E-1,1.975857784E0,2.510483952E0
8.222830792E0,-8.828183933E-1,7.741906482E-1,1.618742597E0,1.999766754E0
8.232800792E0,-1.671147244E0,6.436714393E-1,1.539629769E0,2.361674376E0
8.242770792E0,-1.858705603E0,-7.896340218E-1,4.117024541E-1,2.061020940E0
8.252740792E0,-1.477664193E0,6.098566988E-1,-8.633782285E-1,1.816821022E0
8.262710792E0,-1.962911025E0,-4.231054017E-1,-1.531766433E0,2.525538810E0
8.272679792E0,-1.254777980E0,-2.148395669E0,-1.635603628E0,2.977460488E0
8.282649792E0,-1.404309411E0,-7.561914566E-1,-5.947969025E-1,1.702261377E0
8.292619792E0,-1.490832561E0,-4.684341869E-1,6.882172823E-3,1.562709083E0
8.302589792E0,-1.056979612E0,-1.618708098E-1,1.263551143E0,1.655285338E0
8.312559792E0,-1.186930252E0,6.844718483E-1,2.504946016E0,2.855181199E0
8.322529792E0,-1.245757042E0,-2.523950636E-3,1.471779848E0,1.928225324E0
8.332498792E0,-1.525477460E0,4.742425185E-1,8.776144445E-1,1.822688827E0
8.342468792E0,-1.576510497E0,-2.297204384E-1,7.355686194E-1,1.754770076E0
8.352438792E0,-1.772514720E0,-1.658112777E0,-7.155547696E-1,2.530447597E0
8.362408792E0,-1.575197212E0,2.276902851E-1,-1.328300285E-1,1.597101418E0
8.372378792E0,-1.815157879E0,9.046686342E-1,1.085880572E0,2.300513004E0
8.382347792E0,-1.783116453E0,3.968098882E-1,-8.759631908E-1,2.025900759E0
8.392317792E0,-2.048696257E0,8.670184126E-1,-2.373367292E0,3.252960126E0
8.402287792E0,-2.099794782E0,1.729916292E-1,-2.704896233E0,3.428633527E0
8.412257792E0,-1.800098229E0,-2.021127805E0,-7.017623574E-1,2.796029622E0
8.422227792E0,-1.879651937E0,-3.398667786E-1,6.417640775E-1,2.015058799E0
8.432196792E0,-2.565544220E0,9.136961505E-1,5.241385639E-2,2.723895191E0
8.442166792E0,-2.070342796E0,-6.662533861E-1,5.858085626E-1,2.252417488E0
8.452136792E0,-1.760343741E0,-3.527587196E-1,1.128302121E0,2.120451480E0
8.462106792E0,-1.266218496E0,1.624786279E-1,1.859882939E0,2.255853083E0
8.472076792E0,-1.821747545E0,1.450503584E0,2.440475201E0,3.373224566E0
8.482045792E0,-2.550958925E0,4.712569302E-1,4.742735088E-1,2.637121517E0
8.492016167E0,-2.442442935E0,-1.059890283E0,-6.970980334E-1,2.752242826E0
8.501986167E0,-1.697932754E0,8.129237741E-2,-7.298482883E-1,1.849935840E0
8.511956167E0,-1.072914371E0,-1.456571240E0,8.754667622E-1,2.009772892E0
8.521926167E0,-4.323350854E-1,-9.601145643E-1,3.826263556E0,3.968504303E0
8.531896167E0,-7.536524494E-1,1.227997148E0,2.955966902E0,3.288420493E0
8.541865167E0,-1.433267747E0,-5.042492598E-2,4.426022991E0,4.652577632E0
8.551835167E0,-1.668044565E0,6.071304345E-1,2.988126004E0,3.475611752E0
8.561805167E0,-2.815227638E0,6.637563327E-1,1.040906128E0,3.074014425E0
8.571775167E0,-2.960965102E0,4.408704123E-1,4.706014574E-2,2.993976572E0
8.581745167E0,-2.724735836E0,1.435399349E0,-1.247711620E0,3.322851329E0
8.591714167E0,-2.048069582E0,-1.277436526E0,-7.822241378E-1,2.537382055E0
8.601684167E0,-1.005484426E0,-7.774101251E-1,-4.234448326E-1,1.339653298E0
8.611654167E0,-6.542477368E-1,7.160380420E-1,-1.174550089E0,1.523259167E0
8.621624167E0,-9.851808469E-1,-7.520840800E-1,-4.644683129E-1,1.323609677E0
8.631594167E0,-5.222190692E-1,-1.298888498E0,1.017386287E-1,1.403629166E0
8.641563167E0,-6.469732158E-1,-1.409941742E0,-1.123416772E0,1.915352527E0
8.651533167E0,-8.986990656E-1,-1.410977868E0,-4.685438222E-1,1.737254117E0
8.661503167E0,-1.202949284E0,-2.995072496E-1,-3.425556207E-1,1.286132157E0
8.671473167E0,-2.389713037E0,-2.292476618E0,9.342190003E-1,3.440776451E0
8.681443167E0,-1.059393854E0,-2.218848771E0,1.198507885E0,2.735329296E0
8.691412167E0,-1.117303362E0,-7.982753295E-1,-2.268836617E-2,1.373362686E0
8.701382167E0,-1.670083927E0,-1.294009874E0,2.150346301E0,3.014569802E0
8.711352167E0,-5.421421409E-2,1.047600897E0,1.967111519E0,2.229335002E0
8.721322167E0,-1.538188722E0,2.159005442E-1,9.090993619E-1,1.799749772E0
8.731292167E0,-1.668951029E0,-1.858610878E0,1.273956848E0,2.804068113E0
8.741262167E0,-5.904883817E-1,-1.794420144E0,2.184217467E0,2.887806456E0
8.751231167E0,-4.282049046E-1,-1.900247146E0,4.137530141E0,4.573123039E0
8.761201167E0,-4.560199633E-1,1.158517316E0,2.281771828E0,2.599345928E0
8.771171167E0,-1.626693494E0,1.767532600E0,1.328466931E0,2.745018689E0
8.781141167E0,-2.587249669E0,-1.029612523E0,2.189432598E0,3.542256047E0
8.791111167E0,-1.799407381E0,7.548237929E-1,-2.324776930E-1,1.965113675E0
8.801080167E0,-1.547524825E0,1.282918290E0,-3.548944151E-1,2.041240425E0
8.811050167E0,-1.215064423E0,1.035726956E0,-1.077834803E-1,1.600227846E0
8.821020167E0,-6.253563519E-1,2.805947229E-1,-6.660042948E-1,9.557016721E-1
8.830990167E0,-8.054181419E-1,-1.739057829E0,-8.747797143E-1,2.106717842E0
8.840960167E0,4.053716737E-1,-3.123796025E-1,-2.602699767E0,2.652537142E0
8.850929167E0,-5.120661832E-1,-7.071374103E-1,-3.658694635E0,3.761422806E0
8.860899167E0,-1.515423612E-1,-2.513010788E0,-1.053955359E0,2.729287491E0
8.870869167E0,4.730060517E-1,-1.614686675E0,1.392410327E0,2.183976718E0
8.880839167E0,4.765409128E-1,-1.243058698E0,1.950002566E0,2.361100628E0
8.890809167E0,6.210694657E-1,4.106821150E-2,3.165481410E0,3.226094611E0
8.900779167E0,7.415892781E-1,1.613948464E-2,2.141581324E0,2.266403695E0
8.910748167E0,-7.538522780E-2,-1.018974976E0,2.830683875E-1,1.060245559E0
8.920718167E0,-3.895064235E-1,-6.276407129E-1,-4.375746292E-1,8.585567392E-1
8.930688167E0,-4.100729082E-1,5.886424157E-1,-1.654915227E0,1.803719516E0
8.940658167E0,-7.779658299E-1,4.652632418E-1,-2.204664595E0,2.383746357E0
8.950628167E0,-3.746312530E-1,9.702127057E-1,-2.760238375E0,2.949674076E0
8.960597167E0,-7.550880139E-1,5.512140960E-1,-2.453337321E0,2.625425470E0
8.970567167E0,-7.278831122E-1,-1.040884201E0,-1.341416759E0,1.847336641E0
8.980537167E0,-4.130367887E-1,-8.063883412E-1,-1.640841563E0,1.874359246E0
8.990507167E0,4.968088972E-1,-1.192875262E0,4.829513615E-1,1.379497187E0
9.000477167E0,1.057886223E0,-2.978288063E-1,1.408427605E0,1.786475182E0
9.010446167E0,6.667552234E-1,1.790672956E0,2.010661581E0,2.773775794E0
9.020416167E0,2.785632906E-1,8.402504441E-1,1.672135862E0,1.891998059E0
9.030386167E0,1.823699419E-1,8.114537841E-1,9.695917314E-1,1.277428732E0
9.040356167E0,-1.182647605E-1,-4.766957179E-1,-1.006468951E0,1.119912992E0
9.050326167E0,-4.317903076E-1,-6.840721911E-1,-2.053707613E0,2.207286251E0
9.060296167E0,-6.944811121E-2,9.484996551E-1,-8.231821293E-1,1.257816940E0
9.070265167E0,3.094019079E-1,-3.987537950E-1,-5.046147108E-2,5.072282423E-1
9.080235167E0,5.665375286E-1,-2.264916059E-1,8.656282371E-1,1.059044600E0
9.090205167E0,1.600722355E0,-2.612869245E-1,2.031987546E0,2.599914672E0
9.100175167E0,1.968341481E0,-8.467858770E-1,6.743126035E-1,2.246355269E0
9.110145167E0,2.039949407E0,6.663194597E-1,-6.928079313E-1,2.255073843E0
9.120114167E0,2.348621875E0,-9.173173311E-1,-7.919702768E-2,2.522650980E0
9.130084167E0,1.208842108E0,-2.926008401E0,4.501426345E-1,3.197726191E0
9.140054167E0,-1.544452845E-1,3.693747523E-1,2.350182497E0,2.384040441E0
9.150024167E0,-4.293240617E-1,1.311441886E0,9.043151700E-1,1.649843900E0
9.159994167E0,-4.774981751E-1,5.968127301E-1,-1.019998239E0,1.274592621E0
9.169963167E0,2.502044957E-1,6.511471045E-1,-9.703705806E-1,1.195079037E0
9.179933167E0,1.150566418E0,-1.149343034E0,-1.655615723E0,2.320744690E0
9.189903167E0,1.248089789E0,-1.313857663E0,-2.078643064E0,2.757663335E0
9.199873167E0,2.058107351E0,6.150308999E-1,-1.890358627E0,2.861385087E0
9.209843167E0,2.361512500E0,-1.102189626E0,-1.283772569E0,2.905105036E0
9.219813167E0,1.900802339E0,-8.884130824E-1,-7.376712781E-1,2.224069750E0
9.229782167E0,2.084866987E0,-6.662492931E-2,6.490415221E-1,2.184574131E0
9.239752167E0,1.699906043E0,1.747408238E-1,9.666289473E-1,1.963310070E0
9.249722167E0,1.391485151E0,1.251958161E0,2.221250807E0,2.904752194E0
9.259692167E0,1.684420862E0,-2.636696649E-1,2.085921094E0,2.694041971E0
9.269662167E0,1.748732779E0,-1.387930191E-1,1.350221497E-1,1.759420590E0
9.279631167E0,2.027630786E0,1.755014296E0,1.447803340E0,3.047539384E0
9.289601167E0,2.788975686E0,8.880859306E-1,3.976820004E-1,2.953850533E0
9.299571167E0,2.287057711E0,-9.523015147E-1,4.509308392E-1,2.518104400E0
9.309541167E0,2.161227823E0,1.016392261E-1,1.265425175E-1,2.167313831E0
9.319511167E0,2.365489338E0,-1.805114409E-1,-1.326722707E0,2.718145936E0
9.329480167E0,2.011072056E0,-2.889910322E-1,-2.195857519E-1,2.043561727E0
9.339450167E0,3.012391949E0,1.046555123E-1,-7.720546603E-1,3.111515134E0
9.349420167E0,1.601387476E0,-8.780231649E-1,-1.607226505E0,2.432805698E0
9.359390167E0,1.355816405E0,-5.505182773E-2,-1.982100856E0,2.402080896E0
9.369360167E0,2.139163793E0,-1.103270191E-1,-1.117201767E0,2.415850486E0
9.379330167E0,1.411835947E0,-1.994255171E0,-4.029567736E-1,2.476430615E0
9.389299167E0,1.015080146E0,-6.026096597E-1,-5.420076549E-1,1.298960508E0
9.399269167E0,8.452604116E-1,7.376592913E-1,7.534447271E-1,1.351401254E0
9.409239167E0,1.773110844E0,5.989586583E-1,4.753450111E0,5.108616397E0
9.419209167E0,2.160917920E0,1.824860457E-1,4.224204589E0,4.748344114E0
9.429179167E0,2.059818246E0,1.807403594E-1,9.956130105E-1,2.294943039E0
9.439148167E0,2.313195203E0,1.020680024E0,-3.374024695E-1,2.550784230E0
9.449118167E0,1.450746682E0,-1.387862948E0,-1.517937183E-3,2.007693154E0
9.459088167E0,1.855419906E0,-1.574905728E0,4.206545413E-1,2.469789733E0
9.469058167E0,1.822245874E0,2.443551421E-2,5.286958838E-1,1.897550120E0
9.479028167E0,1.454287317E0,-6.221887690E-1,-1.123030856E0,1.939914630E0
9.488998167E0,2.425974252E0,-3.729658198E-1,-1.132658882E0,2.703214886E0
9.498967417E0,1.359822625E0,1.188244852E-1,5.048485994E-3,1.365013669E0
9.508937417E0,9.886498538E-1,-2.166436669E0,1.369415567E0,2.747030282E0
9.518907417E0,9.603045257E-1,2.492188561E-1,1.330992343E0,1.660070914E0
9.528877417E0,1.322071247E0,1.455220825E0,-3.953360975E-2,1.966495090E0
9.538847417E0,2.102559638E0,-3.652103654E-1,1.188101596E0,2.442482558E0
9.548816417E0,1.438910602E0,-5.066439870E-1,1.048296424E0,1.850966570E0
9.558786417E0,1.574646404E0,-1.521589062E0,3.005748342E0,3.718772334E0
9.568756417E0,1.389713884E0,1.220161294E0,2.264937109E0,2.924044865E0
9.578726417E0,1.247810731E0,9.927984533E-1,2.197957839E0,2.715455588E0
9.588696417E0,1.171925054E0,-6.637686118E-1,1.756743318E0,2.213626931E0
9.598665417E0,1.601802628E0,2.353036815E0,-3.077225876E-1,2.863083496E0
9.608635417E0,1.039882500E0,8.171545270E-1,-4.031585026E-1,1.382618498E0
9.618605417E0,1.589053213E0,3.308851629E-1,-1.434900874E0,2.166452312E0
9.628575417E0,1.216764281E0,1.015026059E0,-2.460936363E0,2.926943969E0
9.638545417E0,1.075734922E-1,-2.164466742E-1,-8.575169796E-1,8.909301820E-1
9.648515417E0,5.024938526E-1,1.409545593E0,-4.150634336E-1,1.552931584E0
9.658484417E0,1.600096411E-1,1.622807873E0,-9.333998054E-1,1.878920881E0
9.668454417E0,5.173011222E-1,3.944017124E-1,-7.445405871E-1,9.886828853E-1
9.678424417E0,5.002026942E-1,7.996853855E-1,-1.593190264E0,1.851473648E0
9.688394417E0,6.021959692E-1,-1.058723179E0,-3.598820901E-1,1.270059004E0
9.698364417E0,7.179560749E-1,1.158628705E-1,2.562705982E-1,7.710770064E-1
9.708333417E0,1.331335575E0,4.665431973E-1,5.145397747E-1,1.501621839E0
9.718303417E0,1.568774046E0,-1.204513853E0,3.593897545E-1,2.010240439E0
9.728273417E0,1.631624743E0,-5.787638372E-1,-8.215273672E-1,1.916265665E0
9.738243417E0,1.573683076E0,-2.423047282E0,3.363375161E0,4.433951853E0
9.748213417E0,1.576209804E-1,-5.842222130E-1,2.800402315E0,2.865032826E0
9.758183417E0,9.353115526E-1,5.462699828E-1,1.458427731E0,1.816653528E0
9.768152417E0,8.760451249E-1,-1.496626714E0,5.242519999E-1,1.811680640E0
9.778122417E0,1.187073947E0,-3.335339516E-2,-1.193933609E0,1.683963915E0
9.788092417E0,1.210197273E0,-6.950170094E-1,-9.781158024E-1,1.704211433E0
9.798062417E0,1.646297308E0,-5.745716760E-1,-1.440711837E0,2.261874893E0
9.808032417E0,1.527732585E0,8.060427707E-1,-1.516812179E0,2.298780326E0
9.818001417E0,1.537462644E0,-1.450636608E0,3.474205041E-1,2.142157548E0
9.827971417E0,1.380299866E0,-1.516240321E0,7.687872362E-1,2.189805071E0
9.837941417E0,7.496687414E-1,-6.840865168E-1,-1.388889134E-1,1.024337696E0
9.847911417E0,7.616058321E-1,-4.310731101E-1,-1.454167449E-1,8.871378131E-1
9.857881417E0,2.383204867E-1,-1.214431315E0,1.819667544E0,2.200643098E0
9.867850417E0,9.103296161E-1,-2.251349350E0,8.554470652E-1,2.574696795E0
9.877820417E0,1.653370977E0,-9.489332262E-1,2.397170137E0,3.062765829E0
9.887790417E0,8.424441732E-2,-3.492006889E-1,1.671803740E0,1.709960814E0
9.897760417E0,1.115650501E0,-2.680612162E-1,-6.094202042E-1,1.299202001E0
9.907730417E0,8.951652277E-1,7.377107468E-1,-1.061778349E-1,1.164822589E0
9.917700417E0,-3.034755539E-1,-1.364531388E0,-6.330634207E-1,1.534539871E0
9.927669417E0,1.365453128E-1,-1.387783718E0,-3.806858987E-1,1.445513758E0
9.937639417E0,-2.469079999E-1,6.113278583E-1,6.505904496E-1,9.262576552E-1
9.947609417E0,-3.587405674E-2,-9.641473889E-2,4.703845257E-1,4.815021825E-1
9.957579417E0,6.018763823E-1,-1.655899313E-1,9.925315279E-1,1.172516115E0
9.967549417E0,5.176199417E-1,1.395432168E-1,-4.346118450E-2,5.378583345E-1
9.977518417E0,1.004700607E0,6.703522843E-1,-2.666371268E-1,1.236887566E0
9.987488417E0,-3.709839426E-1,2.060100082E0,-9.509128010E-1,2.299103431E0
9.997458417E0,1.013395343E0,-5.564265963E-1,-1.646520379E0,2.011867301E0
1.000742842E1,3.281610914E-1,-4.931608924E-1,1.148571494E0,1.292328846E0
1.001739842E1,-1.192003004E0,-5.937859190E-1,-1.138371611E0,1.751953996E0
1.002736842E1,-1.637710818E0,-8.513250706E-1,-1.961359028E0,2.693284303E0
1.003733742E1,-1.899118634E0,-3.161612892E-1,-2.241005625E0,2.954440007E0
1.004730742E1,-1.631663774E0,-4.251966584E-1,-3.913301700E-1,1.730970297E0
1.005727742E1,-8.102860951E-1,-2.309210180E0,1.513907282E0,2.877660590E0
1.006724742E1,-8.348457165E-1,-9.110426840E-1,9.079193938E-1,1.533389633E0
1.007721742E1,-3.032525374E0,-9.264661771E-1,-1.788780212E-2,3.170941452E0
1.008718642E1,-3.222540295E0,-1.699746999E0,-5.767851394E-1,3.688710738E0
1.009715642E1,-2.901959972E0,8.981574672E-1,1.830666742E0,3.546744879E0
1.010712642E1,-3.460153305E0,-2.071501860E-1,1.584973172E0,3.811523586E0
1.011709642E1,-1.724905229E0,-9.534203795E-1,1.712702674E0,2.611064710E0
1.012706642E1,-1.933919507E0,1.270186855E0,2.133091752E0,3.146982639E0
1.013703642E1,-2.044432175E0,2.984991896E-1,2.251576806E0,3.055880037E0
1.014700542E1,-1.187478940E0,1.610055973E0,5.557567978E-1,2.076355482E0
1.015697542E1,-2.566185952E0,1.419487613E0,-2.057357445E0,3.582314208E0
1.016694542E1,-2.536970339E0,-6.755697548E-2,-4.008575647E0,4.744413680E0
1.017691542E1,-2.595815840E0,1.656765286E0,-3.988699207E0,5.039132113E0
1.018688542E1,-2.219430276E0,8.309595108E-2,-2.099737480E0,3.056415085E0
1.019685442E1,-1.059593683E0,-1.699710161E0,1.565851607E0,2.542369891E0
1.020682442E1,-7.524321355E-1,1.041952487E0,1.953040195E0,2.337987405E0
1.021679442E1,-9.958401018E-1,9.789782667E-1,1.236544023E0,1.865244508E0
1.022676442E1,-1.135071223E0,1.740331938E0,8.079372686E-1,2.229328277E0
1.023673442E1,-1.262123984E0,2.166279379E-1,-4.294914383E-1,1.350684089E0
1.024670342E1,-1.553553012E0,-1.140238627E0,-1.937373750E0,2.732597324E0
1.025667342E1,-1.520379858E0,7.238838360E-1,-1.152737635E0,2.040678019E0
1.026664342E1,-1.446210705E0,-7.574766746E-1,2.771843344E-1,1.655937037E0
1.027661342E1,-1.168843425E0,-1.762932303E0,2.355546148E0,3.165868430E0
1.028658342E1,-4.657930727E-1,-4.821476617E-1,1.795195777E0,1.916287409E0
1.029655342E1,-9.446765263E-1,-9.853686887E-1,2.750596316E0,3.070691337E0
1.030652242E1,-1.063009041E0,1.590775656E0,1.309356476E0,2.318398109E0
1.031649242E1,-1.008515988E0,-2.184683490E-1,-8.890188539E-1,1.362052657E0
1.032646242E1,-1.694146682E0,-2.281425088E0,-1.098578385E0,3.046622372E0
1.033643242E1,-1.797661256E0,1.522802067E-1,-2.165919775E0,2.818862133E0
1.034640242E1,-2.059737554E0,-6.646819469E-1,1.310641109E0,2.530237341E0
1.035637242E1,-8.623674642E-1,-1.824401743E0,3.638037007E0,4.160220262E0
1.036634142E1,3.865555530E-1,-8.332469416E-1,2.323600470E0,2.498568551E0
1.037631142E1,-8.499343103E-1,6.720280963E-1,4.606607230E0,4.732318698E0
1.038628142E1,-4.600831935E-1,1.035896526E0,4.072672825E0,4.227460479E0
1.039625142E1,5.135420204E-1,-3.719650689E-1,3.707205475E0,3.761044516E0
1.040622142E1,-1.081161869E0,2.455856887E-1,2.626534188E-1,1.139390247E0
1.041619042E1,3.384706096E-1,-7.519557336E-1,-3.045632200E0,3.155293216E0
1.042616042E1,4.462165947E-1,-4.859243783E-1,-1.833492701E0,1.948570562E0
1.043613042E1,-1.095726552E-1,3.755774787E-1,-2.512584819E0,2.542861986E0
1.044610042E1,5.852095154E-1,-3.202038495E0,-1.413519945E0,3.548740528E0
1.045607042E1,4.760392217E-1,-1.933108791E0,-2.444954753E-1,2.005816785E0
1.046603942E1,7.400089949E-2,7.280274653E-1,6.276845670E-1,9.640996002E-1
1.047600942E1,-1.466845967E0,9.183207133E-1,1.342323078E0,2.190155535E0
1.048597942E1,-1.345063960E0,6.953070313E-2,-3.122120798E-2,1.347221711E0
1.049594925E1,-8.230148989E-1,-1.224801060E0,-2.404164577E0,2.820903839E0
1.050591925E1,-1.160859856E0,-1.470232382E0,-1.683893443E0,2.518864028E0
1.051588925E1,-1.481906787E0,4.641227424E-3,-2.128311653E0,2.593410835E0
1.052585825E1,-1.372215945E0,-3.385950091E-1,-2.193670660E0,2.609562060E0
1.053582825E1,-1.362416011E0,-2.026004675E-1,-7.123259372E-1,1.550687776E0
1.054579825E1,-1.360599720E0,-1.533113632E-1,-1.279769565E0,1.874178783E0
1.055576825E1,-1.614931381E0,-8.257850173E-1,-9.418870389E-2,1.816258730E0
1.056573825E1,-6.318225684E-1,-1.100545681E0,1.668767865E0,2.096470067E0
1.057570825E1,2.638596628E-1,-2.197932111E0,8.603593111E-1,2.375025396E0
1.058567725E1,-1.808896462E-1,-6.342322791E-1,2.830830640E0,2.906643040E0
1.059564725E1,1.858083605E-1,2.097443032E-1,1.938690543E0,1.958835991E0
1.060561725E1,5.831461061E-2,-2.929811722E-1,4.487235737E0,4.497168345E0
1.061558725E1,4.487677714E-1,2.262409066E0,1.810736507E0,2.932346158E0
1.062555725E1,2.595020619E-1,7.983820412E-1,1.663681372E0,1.863488909E0
1.063552625E1,-4.212483991E-2,8.757649702E-1,1.997583114E0,2.181530903E0
1.064549625E1,2.364077528E-1,4.985514405E-1,-1.360333087E0,1.467974207E0
1.065546625E1,6.850181244E-2,-8.928414711E-1,-5.020150387E-1,1.026585354E0
1.066543625E1,1.226032776E0,-5.363934508E-1,1.294866491E0,1.862136819E0
1.067540625E1,8.503824994E-1,-7.709977761E-1,1.916617888E0,2.234057317E0
1.068537525E1,5.011285277E-1,2.024121872E-1,3.863095753E0,3.900719073E0
1.069534525E1,8.783153795E-1,8.362942180E-1,1.460341524E0,1.898268499E0
1.070531525E1,-2.580594807E-1,-6.621734914E-1,1.500541717E0,1.660329447E0
1.071528525E1,7.009281790E-1,1.378908229E0,-8.888586402E-2,1.549383398E0
1.072525525E1,6.345600155E-1,3.840091637E-1,-2.265972651E0,2.384273790E0
1.073522525E1,8.429598977E-1,-9.786537462E-1,-2.067750286E0,2.438018825E0
1.074519425E1,1.933565166E0,4.663984787E-1,-3.353575228E0,3.899059964E0
1.075516425E1,7.413725656E-1,-2.196974337E-1,-4.592841715E0,4.657477349E0
1.076513425E1,1.413414841E0,-8.215969491E-1,-3.887382163E0,4.217167668E0
1.077510425E1,1.564287185E0,-1.487040496E-1,-3.675284940E0,3.997102286E0
1.078507425E1,8.982137467E-1,-4.104224986E-1,-3.316988615E0,3.460873883E0
1.079504425E1,1.294030485E0,8.142423213E-1,-9.195132530E-1,1.784099234E0
1.080501325E1,1.462898512E0,7.885902938E-1,1.273283249E0,2.093608593E0
1.081498325E1,1.254738658E0,-8.918456903E-1,2.180185812E0,2.668888909E0
1.082495325E1,1.663894942E0,-2.914623579E-1,-4.167181957E-1,1.739870897E0
1.083492325E1,1.090409825E0,-2.919865608E-2,-2.652889343E0,2.868391189E0
1.084489325E1,1.426762573E0,9.413683909E-1,-1.540478200E0,2.301064747E0
1.085486225E1,1.153878573E0,1.255792765E0,-9.740326917E-1,1.963973247E0
1.086483225E1,1.876907802E-2,-9.020853344E-1,3.335801446E0,3.455673815E0
1.087480225E1,7.464182742E-1,9.352293992E-1,2.113202448E0,2.428460182E0
1.088477225E1,8.257967848E-1,-6.292340791E-1,-5.902255493E-1,1.194253765E0
1.089474225E1,1.760300618E0,-1.202852074E0,1.167094889E0,2.430559988E0
1.090471225E1,2.201443218E0,-2.619973027E0,2.202339742E0,4.069509951E0
1.091468125E1,8.669432028E-1,-1.825002544E0,3.768583698E0,4.276031792E0
1.092465125E1,2.731004197E-1,1.282231243E0,1.995379883E0,2.387517890E0
1.093462125E1,3.853192689E-2,-4.866438782E-1,1.168931499E0,1.266770628E0
1.094459125E1,-1.082691281E-1,-1.003029619E0,2.249509816E0,2.465377259E0
1.095456125E1,1.845567640E-1,-1.675483685E0,1.402095655E0,2.192527994E0
1.096453025E1,3.163929851E-1,-2.121172495E0,2.775850441E0,3.507823106E0
1.097450025E1,4.695335365E-1,-1.458234188E-1,2.972263677E0,3.012652914E0
1.098447025E1,6.483623680E-1,-9.237375739E-1,5.370334285E-1,1.249827896E0
1.099444025E1,7.465167998E-1,-1.069183847E0,1.184775699E0,1.761855525E0
1.100441025E1,1.435619497E0,-6.449642587E-1,2.235624433E-1,1.589642224E0
1.101438025E1,9.813158374E-1,-1.810486539E0,-3.656059295E-1,2.091532925E0
1.102434925E1,9.207720123E-1,-1.247849615E0,-3.965815544E-1,1.600695689E0
1.103431925E1,1.346903348E0,1.149948514E-1,-1.196806346E0,1.805468879E0
1.104428925E1,1.945121749E0,3.016841680E-1,-3.301665401E-1,1.995876223E0
1.105425925E1,1.699491329E0,1.144192222E0,-5.188298768E-1,2.113440574E0
1.106422925E1,1.389233535E0,1.387425576E0,-2.174016414E0,2.929379954E0
1.107419825E1,1.420590398E0,9.299645662E-1,-1.535156064E0,2.289020602E0
1.108416825E1,8.532600604E-1,1.323050070E0,-1.978973181E0,2.528803881E0
1.109413825E1,1.019769101E0,5.575609562E-1,-1.704051719E0,2.062667084E0
1.110410825E1,1.463077291E0,1.640234622E-1,-2.692999488E-1,1.496670076E0
1.111407825E1,1.726631911E0,1.043912181E0,-9.778965318E-1,2.242162355E0
1.112404825E1,2.362570408E0,1.317746061E-1,4.616739285E-1,2.410860074E0
1.113401725E1,1.805012375E0,2.077121034E0,-2.373618722E-1,2.762035866E0
1.114398725E1,1.489336990E0,1.474326018E0,-9.960901433E-1,2.320335633E0
1.115395725E1,1.171761478E0,4.505419993E-1,-9.005314368E-1,1.544982176E0
1.116392725E1,5.249044395E-1,4.076371774E-1,-1.928584800E0,2.039885308E0
1.117389725E1,5.771842850E-1,-9.415169102E-1,-1.485876900E-1,1.114304309E0
1.118386625E1,-1.221473483E-1,-7.983753169E-1,1.146322070E0,1.402275797E0
1.119383625E1,-8.590566245E-1,-1.412615966E0,1.131909853E-1,1.657188689E0
1.120380625E1,9.078938853E-2,1.325192490E-1,-1.065132312E0,1.077177286E0
1.121377625E1,-6.358483764E-1,-9.830534837E-1,2.509969944E-1,1.197370787E0
1.122374625E1,-5.796414677E-1,-1.528449892E0,1.352556290E0,2.121686080E0
1.123371625E1,5.522045412E-1,3.022761986E-1,1.361869735E0,1.500329941E0
1.124368525E1,7.081956102E-1,-7.679718420E-1,1.141320362E0,1.547234288E0
1.125365525E1,1.174721851E0,-4.206790996E-1,5.818084824E-1,1.376751046E0
1.126362525E1,7.247165526E-1,-7.418365422E-1,9.576066935E-1,1.411575757E0
1.127359525E1,1.118478945E0,-1.592816919E0,1.578812546E0,2.506134462E0
1.128356525E1,1.551924271E0,6.937005088E-1,2.146567830E0,2.738145866E0
1.129353425E1,3.554852397E-1,-2.668157592E-1,2.464548773E-1,5.082326353E-1
1.130350425E1,-2.380681062E-1,-1.058631377E0,3.328164983E-1,1.134964157E0
1.131347425E1,-5.667126527E-1,1.788394296E-1,7.712886751E-2,5.992458882E-1
1.132344425E1,-5.796813750E-1,-1.069830549E0,-8.220337361E-1,1.468437048E0
1.133341425E1,-8.214373201E-1,5.789535794E-1,-8.134956318E-1,1.292950757E0
1.134338425E1,-1.142650823E0,6.564467284E-1,-1.056141633E0,1.688789021E0
1.135335325E1,-1.085116633E0,-9.396922866E-1,-6.672088212E-1,1.582929977E0
1.136332325E1,-9.484245184E-1,-7.404720944E-1,4.011447215E-1,1.268355265E0
1.137329325E1,2.507584645E-1,-5.796321487E-1,-5.091445488E-1,8.112221687E-1
1.138326325E1,1.951257707E-1,1.414278914E0,-3.370252656E0,3.660172384E0
1.139323325E1,-2.487418695E-1,9.925402987E-1,-1.603045161E0,1.901778786E0
1.140320325E1,-2.986624366E-1,-1.948482875E0,-1.216904980E-1,1.974991985E0
1.141317225E1,2.789165172E-1,-1.350150161E0,2.557990787E0,2.905859038E0
1.142314225E1,-4.741710912E-2,-8.119516745E-1,2.781265547E0,2.897749463E0
1.143311225E1,3.914301574E-1,-7.748917294E-1,3.630623322E0,3.732974748E0
1.144308225E1,4.774473774E-1,1.658895426E0,2.795665485E0,3.285671246E0
1.145305225E1,6.963979481E-2,1.153002807E0,5.952184868E-1,1.299442273E0
1.146302125E1,-1.216481422E-1,7.910762376E-1,-1.807368511E-1,8.205276921E-1
1.147299125E1,-5.146518219E-1,1.799494066E0,-2.330699574E0,2.989181476E0
1.148296125E1,-5.589772980E-1,-4.657403746E-1,-3.115171967E0,3.199010175E0
1.149293125E1,-3.173582143E-1,3.227896929E-2,-2.574185236E0,2.593875054E0
1.150290050E1,-1.126479252E-1,-7.906619623E-1,-1.112202982E0,1.369244817E0
1.151287050E1,-5.304219453E-1,-1.576394722E0,3.076437671E0,3.497261286E0
1.152283950E1,-1.619503867E-1,1.875228957E0,1.581813337E0,2.458626649E0
1.153280950E1,6.628128844E-1,2.981328616E-1,1.202132574E0,1.404751526E0
1.154277950E1,8.527490868E-1,4.884378040E-1,3.262108988E-1,1.035454511E0
1.155274950E1,1.229716522E0,1.090647807E0,-1.704617144E0,2.368002317E0
1.156271950E1,1.092193445E0,-1.363884101E0,-1.025453106E0,2.025986287E0
1.157268850E1,1.178462241E0,-1.485664646E0,7.232730943E-1,2.029555780E0
1.158265850E1,9.975189105E-1,-4.943087009E-1,-4.554559994E-1,1.202840486E0
1.159262850E1,1.084263999E-1,7.806848583E-1,4.627848995E-1,9.139994504E-1
1.160259850E1,-1.461238012E-1,-7.944623601E-1,1.226706083E0,1.468785356E0
1.161256850E1,-5.870752523E-2,-2.275963496E0,1.438250744E0,2.692957781E0
1.162253850E1,-5.002113920E-1,5.255483276E-1,6.720064616E-1,9.889414370E-1
1.163250750E1,1.583702828E-1,1.309355307E-1,5.018302667E-1,5.422719578E-1
1.164247750E1,-2.240890581E-3,-1.583147671E0,1.087985569E0,1.920956577E0
1.165244750E1,-3.327641657E-1,2.689830297E-1,-1.081893940E0,1.163433865E0
1.166241750E1,-5.714380800E-1,-5.452867734E-1,-1.826401198E0,1.989879514E0
1.167238750E1,-1.774049249E-1,3.667054984E-1,-2.266325823E0,2.302645906E0
1.168235650E1,-1.751432584E-1,1.225783977E-1,2.987956434E-1,3.673955104E-1
1.169232650E1,-1.139433758E0,-1.375975266E0,4.142595584E0,4.511398386E0
1.170229650E1,-1.011259429E0,-6.981405920E-1,1.812460851E0,2.189762602E0
1.171226650E1,-1.241251909E0,-1.485561150E-1,-4.655149645E-1,1.333971290E0
1.172223650E1,-1.140646690E-1,2.533297411E-1,-1.663477305E0,1.686518144E0
1.173220650E1,5.817574289E-1,-1.941019781E0,-1.721686921E0,2.658985775E0
1.174217550E1,-5.430152033E-2,-2.425097024E0,-2.451093160E0,3.448463703E0
1.175214550E1,-5.408787768E-2,-2.033448181E-1,-2.831315374E-1,3.527578221E-1
1.176211550E1,-8.504370978E-1,5.971764269E-1,-2.873210675E-1,1.078154135E0
1.177208550E1,-1.779242088E0,-6.247115502E-1,-8.844439924E-2,1.887800133E0
1.178205550E1,-2.108957662E0,-1.462685966E0,3.518749130E-1,2.590553726E0
1.179202450E1,-2.455869750E0,-1.665779646E0,3.527326995E-1,2.988400645E0
1.180199450E1,-1.925742761E0,5.220946696E-1,8.138575745E-1,2.154862449E0
1.181196450E1,-1.582410922E0,2.327253225E-1,1.802108940E0,2.409519046E0
1.182193450E1,-8.702324809E-1,-9.455874494E-1,9.195810807E-1,1.580211872E0
1.183190450E1,-9.008778843E-1,7.952818474E-1,-6.728507996E-2,1.203570298E0
1.184187450E1,-1.675538502E0,1.311588943E0,-1.326976476E0,2.507700420E0
1.185184350E1,-1.364387839E0,1.322050489E0,-3.494357470E0,3.977424518E0
1.186181350E1,-1.098468531E0,9.139426106E-1,-5.648072351E0,5.826031711E0
1.187178350E1,-1.284623631E0,-1.345364799E0,-7.547772490E0,7.773617812E0
1.188175350E1,-1.418304722E0,-7.347608265E-1,-7.933102832E0,8.092316251E0
1.189172350E1,-1.488168131E0,-3.536765571E0,-5.713519067E-1,3.879406925E0
1.190169250E1,-1.039316270E-1,-4.863086866E0,8.172523509E0,9.510549729E0
1.191166250E1,5.464942235E-1,-9.908735499E-1,1.219172998E1,1.224413191E1
1.192163250E1,-6.453973912E-1,2.352850874E0,8.021072438E0,8.383916035E0
1.193160250E1,-5.201848228E-1,1.665957109E0,6.285820561E0,6.523614448E0
1.194157250E1,-2.801812517E-1,1.008872157E0,5.127698225E0,5.233508732E0
1.195154250E1,4.926697263E-1,1.369505614E0,6.399372320E0,6.562791721E0
1.196151150E1,-1.069692774E0,2.649122274E0,4.198470408E0,5.078311257E0
1.197148150E1,-1.603710575E0,5.756145269E-1,-5.487658668E-1,1.790073648E0
1.198145150E1,-1.342568369E0,1.640638080E-1,-3.037245539E0,3.324795816E0
1.199142150E1,-8.574479824E-1,2.128913332E0,-5.184083510E0,5.669410098E0
1.200139150E1,-3.685057392E0,6.565528554E-1,-4.601192708E0,5.931415005E0
1.201136050E1,-2.295752667E0,3.602899334E-1,-3.625484789E0,4.306324314E0
1.202133050E1,-2.097464813E0,-1.409709899E0,-3.199041504E0,4.076825627E0
1.203130050E1,-3.564216348E-1,-2.124333792E0,-1.091538922E0,2.414805926E0
1.204127050E1,-5.018701740E-1,1.392206259E0,-6.799189138E-1,1.628619559E0
1.205124050E1,-1.457359591E0,2.011552404E0,9.459800899E-2,2.485797425E0
1.206121050E1,-1.004638188E0,2.832487741E-1,-1.776875281E-1,1.058820388E0
1.207117950E1,-1.271556127E0,-7.183488616E-1,-9.228426576E-1,1.727575944E0
1.208114950E1,-1.832069635E0,-9.559317586E-1,6.708031046E-1,2.172616275E0
1.209111950E1,-1.380134390E0,-1.108823876E0,1.498421516E0,2.319381031E0
1.210108950E1,-1.424448684E0,-1.707924914E0,-1.796761662E-1,2.231220538E0
1.211105950E1,-6.134324905E-1,-2.473320473E0,-7.193192071E-1,2.647835664E0
1.212102850E1,-5.372353768E-1,-3.092656678E0,-8.044950128E-2,3.140003073E0
1.213099850E1,-9.750236486E-1,-3.768705612E0,2.019228337E0,4.385327375E0
1.214096850E1,-5.619463679E-1,-8.740985137E-1,1.211953558E0,1.596453369E0
1.215093850E1,-8.635049669E-1,2.500842148E0,-1.109816734E0,2.869067001E0
1.216090850E1,-1.910722579E0,3.656041753E0,1.505365670E-1,4.127973272E0
1.217087850E1,-2.484773707E0,6.011535276E0,-1.173595238E0,6.609839827E0
1.218084750E1,-3.671981263E0,2.605718685E0,9.560074800E-1,4.602951940E0
1.219081750E1,-1.734913031E0,-1.677418821E0,2.731190577E0,3.644593131E0
1.220078750E1,-1.110172098E0,-3.549576820E0,1.651806847E0,4.069452488E0
1.221075750E1,-3.082918140E0,-3.255733476E0,1.399746244E0,4.697177267E0
1.222072750E1,-2.175207638E0,-4.966940140E0,3.921203043E0,6.691625806E0
1.223069650E1,-1.290129662E0,-3.172666176E0,5.726742545E0,6.672767446E0
1.224066650E1,-1.564215849E0,-1.318980993E0,5.033283818E0,5.433270477E0
1.225063650E1,-1.913270357E-1,-5.046045951E0,5.533116091E0,7.490965189E0
1.226060650E1,-1.510429943E0,9.682579815E-2,2.128328025E0,2.611619044E0
1.227057650E1,-3.027127517E0,-3.500728011E-2,1.385601245E0,3.329356893E0
1.228054650E1,-1.385182876E0,-1.462747361E0,3.064984730E0,3.667764011E0
1.229051550E1,-7.014477041E-1,2.217427605E0,4.076479948E-1,2.361184227E0
1.230048550E1,-7.499040187E-1,1.545978968E0,-2.285056209E0,2.859001379E0
1.231045550E1,-1.070308632E0,8.371166289E-3,-3.474310291E0,3.635445315E0
1.232042550E1,-2.631505783E-1,3.564871967E-1,-3.055525104E0,3.087485225E0
1.233039550E1,-5.024234667E-2,1.036258176E-1,-1.777419072E0,1.781146025E0
1.234036550E1,-3.542851353E-1,1.749902368E0,-2.255022570E0,2.876248085E0
1.235033450E1,-4.614696414E-1,3.609406700E0,-2.616021479E0,4.481555459E0
1.236030450E1,-2.787829632E-1,3.245320754E0,-3.516532450E0,4.793310674E0
1.237027450E1,7.812252872E-2,1.442896649E0,-2.849528282E0,3.194975007E0
1.238024450E1,3.721450169E-1,-8.766388366E-1,-1.857311334E0,2.087245303E0
1.239021450E1,-1.549204438E-1,-1.133482754E0,5.466696399E-1,1.267923970E0
1.240018350E1,-1.029654842E0,-4.613435608E-1,1.562635639E0,1.927396460E0
1.241015350E1,-7.784846972E-1,-1.124299410E0,-5.523496252E-1,1.474848363E0
1.242012350E1,6.062438504E-1,-2.359376951E0,-7.744327229E-1,2.556156733E0
1.243009350E1,7.511419474E-1,-2.069479308E0,-1.088716471E-1,2.204271278E0
1.244006350E1,3.054638082E-1,-1.177517258E0,2.070141798E0,2.401112678E0
1.245003350E1,1.881289011E-1,-1.834360135E0,2.320502615E0,2.963950400E0
1.246000250E1,-3.696599503E-1,-1.055508672E0,2.601841396E-1,1.148234654E0
1.246997250E1,4.923943225E-1,3.217164364E-1,8.793007815E-1,1.057886335E0
1.247994250E1,1.394079123E0,-4.775862488E-1,9.467051446E-1,1.751512448E0
1.248991250E1,6.877970137E-1,1.463615673E0,1.203934686E0,2.016108702E0
1.249988313E1,1.695000083E0,2.736018623E0,-4.574627638E-2,3.218837664E0
1.250985213E1,1.976016536E0,1.480216795E-1,-1.383626640E-2,1.981601173E0
1.251982213E1,1.934768376E0,1.298609294E0,-5.881796086E-1,2.403262370E0
1.252979212E1,2.251476673E0,7.099072364E-1,-6.205018473E-1,2.440929748E0
1.253976213E1,1.538998416E0,7.165295005E-2,7.429945832E-1,1.710465206E0
1.254973213E1,2.186119420E0,-3.155935246E-1,1.432266119E0,2.632508998E0
1.255970213E1,1.681840778E0,-1.561179390E0,2.305902117E-1,2.306304692E0
1.256967112E1,5.405540371E-1,8.382471880E-1,-5.497610629E-1,1.138900453E0
1.257964112E1,9.406720606E-1,-3.451652330E-1,-1.220163049E0,1.578860611E0
1.258961113E1,-1.230775215E-1,-1.562730948E0,-1.571401200E0,2.219589562E0
1.259958113E1,-2.263065781E-1,-8.499018583E-1,-1.260942115E0,1.537375313E0
1.260955113E1,-2.671492333E-2,-2.332694937E0,-1.257886360E0,2.650369304E0
1.261952012E1,-3.512901549E-1,-2.560470884E0,2.985162635E0,3.948494887E0
1.262949012E1,2.985297230E-1,-8.551932961E-1,1.956840300E0,2.156316194E0
1.263946013E1,1.331626255E-1,2.129544246E-1,-8.208052361E-1,8.583723594E-1
1.264943013E1,-1.705261873E-1,1.353342741E0,-1.293781248E0,1.880022785E0
1.265940012E1,6.283046642E-1,7.850465888E-1,-1.258169950E0,1.610607501E0
1.266937012E1,8.080276081E-1,-4.733250904E-1,-6.890206897E-1,1.162624087E0
1.267933912E1,1.327406100E0,9.392291871E-1,-9.498819369E-1,1.883197842E0
1.268930913E1,1.838597466E0,1.204937191E0,-1.620831222E0,2.731191705E0
1.269927913E1,1.712731033E0,1.413667003E0,-1.824581544E0,2.874195505E0
1.270924912E1,2.190291554E0,8.591118076E-1,-1.252700465E0,2.665465934E0
1.271921912E1,1.611891560E0,2.633831513E-1,-2.817341698E0,3.256528724E0
1.272918812E1,1.387082490E0,1.469183099E-1,-8.361927688E-1,1.626284468E0
1.273915813E1,9.262935381E-1,-1.918799777E0,9.906773758E-1,2.349734871E0
1.274912813E1,7.519206503E-1,-1.727098519E0,3.128183191E0,3.651545431E0
1.275909812E1,2.711410031E0,1.417508331E0,4.406755246E0,5.364752187E0
1.276906812E1,1.680059423E0,-3.400720158E-1,4.483328628E0,4.799842105E0
1.277903813E1,1.508961415E0,4.917663315E-1,2.098423610E0,2.631003673E0
1.278900713E1,2.284221811E0,-5.684853092E-1,2.334524238E-1,2.365448132E0
1.279897713E1,2.635552787E-1,-4.808273605E-1,1.350381711E0,1.457459125E0
1.280894712E1,8.081904531E-2,8.767458406E-1,-3.317020190E-1,9.408725825E-1
1.281891712E1,-1.248042865E-1,-3.535782069E-1,-7.962393290E-1,8.801083611E-1
1.282888713E1,-1.955571308E-1,-7.113880438E-1,-1.765867313E0,1.913792807E0
1.283885613E1,6.946902962E-1,-1.000945671E0,-2.720951518E0,2.981285630E0
1.284882613E1,1.097632963E0,-1.318002754E0,-2.851467218E0,3.327580905E0
1.285879612E1,1.285913234E0,3.234094977E-3,-1.797985484E0,2.210505622E0
1.286876613E1,1.774994232E0,-1.716640189E-1,4.159621507E-1,1.831146518E0
1.287873613E1,1.898918366E0,1.439391536E-1,4.186899353E0,4.599645164E0
1.288870613E1,1.991972418E0,5.888929689E-1,3.657715811E0,4.206380154E0
1.289867512E1,1.981421117E0,1.685185970E0,1.117384785E0,2.830976891E0
1.290864512E1,2.116442390E0,2.691091542E0,-3.333440341E0,4.778402095E0
1.291861513E1,2.819482949E0,1.632668618E0,-4.022462785E0,5.176417465E0
1.292858513E1,2.203399842E0,8.490639523E-1,-3.107987493E0,3.903263598E0
1.293855513E1,1.372680067E0,-2.676656520E-1,-5.556328368E-1,1.504866545E0
1.294852512E1,1.756994748E0,-1.886387783E0,5.156970556E0,5.765399789E0
1.295849412E1,1.053894548E0,-1.652936237E0,4.568598574E0,4.971416785E0
1.296846413E1,1.971898342E0,-7.185994148E-2,9.001110220E-1,2.168812296E0
1.297843413E1,2.287118083E0,2.918731833E0,-2.390332988E0,4.411756615E0
1.298840412E1,2.427304932E0,2.837945240E0,-3.199607515E0,4.917644829E0
1.299837412E1,2.696917707E0,7.928687015E-1,-4.181656739E0,5.038676312E0
1.300834312E1,1.928785359E0,6.581374508E-1,-4.591768751E0,5.023713579E0
1.301831313E1,1.082732504E0,1.561908245E-2,-2.793531252E0,2.996059159E0
1.302828313E1,6.133906829E-1,-7.097043380E-1,1.375566838E0,1.664966217E0
1.303825312E1,6.490649841E-1,-1.600738435E0,3.083052626E0,3.533958459E0
1.304822312E1,1.862453229E0,-5.993901828E-1,4.513877406E0,4.919663592E0
1.305819313E1,1.281595212E0,-1.095470005E-1,2.907556635E0,3.179366669E0
1.306816213E1,1.932029979E0,-1.863769584E0,3.521425985E0,4.427958657E0
1.307813213E1,1.960754280E0,-6.085249954E-1,2.515939366E0,3.247277461E0
1.308810212E1,1.437381555E0,-4.717410797E-1,1.100883358E0,1.870975561E0
1.309807212E1,1.869874077E0,-5.455750412E-1,1.413020593E0,2.406389076E0
1.310804213E1,1.637612731E0,3.579826221E-1,-5.947261512E-2,1.677338370E0
1.311801213E1,1.622059722E0,-1.174405078E0,1.567017542E0,2.542803375E0
1.312798113E1,1.341840829E0,4.030892131E-1,7.629856288E-2,1.403153304E0
1.313795112E1,1.449321570E0,-1.074548375E0,2.045823812E-1,1.815775640E0
1.314792112E1,1.663992883E0,-6.957005489E-1,-2.024481475E-1,1.814898570E0
1.315789113E1,1.670902830E0,-9.513086575E-1,-5.050865811E-1,1.987968029E0
1.316786113E1,1.035479985E0,-2.959093116E0,9.409836441E-1,3.273209600E0
1.317783013E1,1.015112013E0,2.716800579E-1,-1.098783622E0,1.520390707E0
1.318780012E1,1.415266216E0,1.253881310E0,1.170521357E0,2.223806882E0
1.319777012E1,1.230078757E0,1.567138579E0,2.646450974E0,3.312509597E0
1.320774013E1,9.275104898E-1,1.130487810E0,-3.446600336E-1,1.502354464E0
1.321771013E1,1.596930728E0,-6.533819103E-1,-7.630025858E-1,1.886602400E0
1.322768012E1,9.394991092E-1,-8.604405874E-1,-1.614795726E0,2.056837820E0
1.323764912E1,1.105216071E0,-3.024709401E0,3.262301946E-1,3.236787862E0
1.324761913E1,3.433720382E-1,-1.863552652E0,7.386904478E-1,2.033813271E0
1.325758913E1,1.721239755E-1,-7.532617092E-2,-4.864941895E-2,1.940810680E-1
1.326755913E1,5.125938944E-1,-1.052914554E0,1.417394895E0,1.838583653E0
1.327752912E1,5.865659963E-1,1.510902106E0,-3.521906626E-1,1.658590698E0
1.328749812E1,1.017660449E0,1.535249327E0,-1.008558161E0,2.099955440E0
1.329746813E1,1.546768634E0,9.628642175E-1,-3.334526753E-1,1.852239562E0
1.330743813E1,1.299016260E0,8.442683583E-1,6.772946835E-1,1.690846058E0
1.331740813E1,1.807768461E0,1.810800534E0,-9.252943951E-1,2.720881309E0
1.332737812E1,-1.264628492E-1,1.669954850E0,-1.720432693E0,2.400964537E0
1.333734813E1,6.239930005E-1,-2.097715805E0,-1.664446773E0,2.749574862E0
1.334731713E1,7.017684969E-1,-4.384838712E-1,-1.623630869E0,1.822340343E0
1.335728713E1,4.795669200E-1,-2.220076686E-1,-4.819573349E-1,7.152305281E-1
1.336725712E1,-2.002349764E-2,-1.201530896E0,9.434862524E-1,1.527823204E0
1.337722712E1,-1.015301755E-1,-2.713468836E0,2.481643108E0,3.678555968E0
1.338719713E1,1.836324215E0,-3.332110392E0,3.670185583E0,5.286332235E0
1.339716713E1,8.046268675E-1,9.417323801E-1,2.624257867E0,2.901898279E0
1.340713613E1,4.704275392E-1,2.495088780E-1,1.593952156E0,1.680547597E0
1.341710612E1,3.792766831E-1,-5.935046679E-1,1.236306041E0,1.422867254E0
1.342707612E1,-1.023152081E0,-5.681064096E-1,5.308400577E-1,1.285058847E0
1.343704613E1,4.480696504E-1,-8.417078626E-1,-1.355523167E0,1.657311556E0
1.344701613E1,3.101029891E-1,8.577274793E-1,-2.358041739E-1,9.420530246E-1
1.345698513E1,-6.484006673E-2,-5.142482910E-1,-9.127883703E-1,1.049684785E0
1.346695512E1,7.950236928E-1,-1.207426351E0,-4.099681699E-1,1.502669280E0
1.347692512E1,-4.423323258E-1,1.060383203E0,1.339894145E0,1.765045819E0
1.348689513E1,2.840532413E-1,1.480237260E-1,2.512257375E0,2.532594398E0
1.349686488E1,1.616484329E-1,1.662486494E0,1.921794428E0,2.546229641E0
1.350683487E1,-3.331071049E-1,9.082363129E-1,-9.959439629E-1,1.388437222E0
1.351680387E1,-4.379280203E-1,1.044877557E0,-3.928977501E0,4.089060315E0
1.352677387E1,-1.168562540E0,2.600857894E0,-3.029445938E0,4.160233514E0
1.353674388E1,-6.238015042E-1,-7.743543702E-1,-2.703511612E0,2.880577728E0
1.354671388E1,-5.519768652E-1,-1.630432642E0,-1.868991732E0,2.540889442E0
1.355668387E1,-1.138090726E0,-5.801738933E-1,-1.766635637E0,2.180104062E0
1.356665387E1,-7.125778791E-2,3.119770217E-1,-1.564371677E0,1.596767384E0
1.357662287E1,-4.226771662E-1,-7.863891095E-2,1.586372995E-1,4.582639610E-1
1.358659288E1,-4.026761804E-1,-2.588194579E0,1.160742474E-1,2.621902462E0
1.359656288E1,-8.920902318E-2,-9.142586526E-1,1.242925090E0,1.545538713E0
1.360653287E1,-8.788662603E-1,1.336551291E0,1.220170065E0,2.011862382E0
1.361650287E1,2.911568957E-1,4.285678706E-1,1.952903370E0,2.020463890E0
1.362647188E1,-4.373313119E-1,4.236696580E-1,1.908323028E0,2.003110440E0
1.363644188E1,-8.521575679E-1,-5.239128613E-1,-4.471658170E-2,1.001327509E0
1.364641188E1,-3.386629465E-1,1.286304413E0,3.520386350E-1,1.375937075E0
1.365638187E1,-4.070862235E-1,1.472619216E0,2.448159027E-1,1.547340096E0
1.366635187E1,1.016604040E-1,-2.379950087E0,4.364326680E-1,2.421770164E0
1.367632188E1,-3.048889538E-1,-8.282136583E-1,6.574387085E-1,1.100509334E0
1.368629088E1,-2.149232735E-2,4.781130829E-1,2.226146096E-1,5.278364374E-1
1.369626087E1,4.462231362E-1,8.470247358E-1,1.212658147E0,1.545026140E0
1.370623087E1,9.715138757E-2,-7.433594495E-2,1.132913820E0,1.139498990E0
1.371620088E1,2.336495846E-1,-1.526950082E0,8.918383813E-1,1.783688420E0
1.372617088E1,-1.726948100E-1,-2.034246325E-2,-7.676739264E-1,7.871216999E-1
1.373614088E1,-2.335774080E-1,-4.465243775E-1,-4.806627613E-1,6.964044194E-1
1.374610987E1,-9.249138510E-2,1.613191250E-1,-3.988993907E-1,4.401127586E-1
1.375607987E1,-4.042224035E-1,-2.759418595E0,-7.918509936E-1,2.899105851E0
1.376604988E1,-8.523273564E-1,-3.755119314E0,-3.036938560E-1,3.862591480E0
1.377601988E1,-5.458309665E-1,-4.287587821E-2,3.304466218E-1,6.395035221E-1
1.378598988E1,-3.742362371E-2,-1.353517572E0,1.570432901E0,2.073564526E0
1.379595887E1,-2.410788741E-1,-1.550021148E0,2.009676325E0,2.549408464E0
1.380592887E1,-4.448093891E-1,4.360125455E-1,-6.071748734E-3,6.228958168E-1
1.381589888E1,-5.833090607E-1,-4.989423269E-1,8.166782713E-1,1.120783790E0
1.382586888E1,-2.675396811E-1,4.190491882E-1,2.463297468E-1,5.548495717E-1
1.383583887E1,-5.723499533E-2,2.106032592E-1,-5.165360141E-1,5.607486347E-1
1.384580887E1,-6.594932739E-1,-3.199304044E-3,9.300932050E-1,1.140181996E0
1.385577787E1,-1.339468906E0,1.940901960E0,-4.992820501E-1,2.410510305E0
1.386574788E1,-2.007032799E0,1.282278020E0,-1.800093405E0,2.985423562E0
1.387571788E1,-1.264387002E0,1.686703030E0,-1.546786761E0,2.614611039E0
1.388568787E1,-5.437384673E-1,2.332442629E-1,-1.636768978E0,1.740421527E0
1.389565787E1,-3.040508285E-1,-1.237761413E0,-4.535135543E-1,1.352839520E0
1.390562788E1,-3.983710948E-1,-2.747425371E-1,9.656793594E-2,4.934656595E-1
1.391559688E1,-5.496616602E-1,-2.452649689E-1,2.345248032E-1,6.459757959E-1
1.392556688E1,-1.231346872E0,-4.977079797E-1,7.009063250E-1,1.501731676E0
1.393553687E1,-9.467851784E-1,-8.862920049E-1,3.879803002E-1,1.353678103E0
1.394550687E1,-1.023427923E0,-3.098439574E-3,1.009644574E0,1.437635726E0
1.395547688E1,-9.942617190E-1,-6.950626177E-1,9.730433428E-1,1.555146860E0
1.396544688E1,-1.051370816E0,-8.460906431E-1,1.469462011E0,1.995136229E0
1.397541588E1,-1.059658587E0,2.772509927E-1,8.840533984E-1,1.407584756E0
1.398538587E1,-1.379107035E0,-1.673581586E0,6.692454064E-1,2.269515576E0
1.399535587E1,-1.599748355E0,2.039435729E-1,-1.201836705E-2,1.612740593E0
1.400532588E1,-1.519869396E0,3.790571567E-1,-5.463538903E-1,1.658972538E0
1.401529588E1,-1.414058035E0,-1.432574559E0,-1.033865495E0,2.262898110E0
1.402526488E1,-1.034926400E0,-8.390783697E-2,-7.883520198E-1,1.303691714E0
1.403523487E1,-1.185692031E0,-3.524701595E-1,-4.669744295E-1,1.322182258E0
1.404520488E1,-8.955922937E-1,-3.468156096E-1,1.774396062E0,2.017634260E0
1.405517488E1,-7.179532975E-1,3.297870559E-1,5.927152938E-1,9.876881386E-1
1.406514488E1,-8.979023094E-1,-4.271654159E-2,2.225771874E0,2.400440313E0
1.407511487E1,-4.185420884E-1,1.670641021E0,-2.046817839E-2,1.722393058E0
1.408508387E1,-5.627375693E-1,5.791123313E-1,-2.349598360E-1,8.409820382E-1
1.409505388E1,7.318608999E-2,9.101325649E-1,-1.269492499E0,1.563748283E0
1.410502388E1,-1.778843600E-1,1.023885468E-1,-1.559843009E0,1.573288426E0
1.411499388E1,-1.997892724E-1,-1.668370255E0,-5.756706601E-1,1.776167720E0
1.412496387E1,2.060376070E-1,-4.565728176E-1,-2.829637223E-1,5.753074842E-1
1.413493388E1,-6.875780354E-1,-1.302346542E0,1.278698940E0,1.950369464E0
1.414490288E1,-6.683630615E-2,7.069456217E-1,1.500754555E0,1.660272098E0
1.415487288E1,6.219244748E-2,5.798815325E-1,9.651039934E-1,1.127633012E0
1.416484287E1,-5.562660903E-2,-1.278570301E0,1.070491869E0,1.668469112E0
1.417481287E1,7.852070948E-1,4.344796979E-1,-7.256359541E-1,1.154066864E0
1.418478288E1,-7.765180593E-1,-3.075518489E-1,-1.603072643E-1,8.504509716E-1
1.419475288E1,-4.464128418E-1,-8.117572546E-2,-5.260225368E-1,6.946751996E-1
1.420472188E1,-7.429400580E-1,-5.045945379E-1,-1.123151894E0,1.438070149E0
1.421469187E1,-6.225474957E-1,-8.510882583E-1,-1.388310260E-1,1.063574474E0
1.422466187E1,1.515618031E-1,5.426265827E-1,-1.930581039E-1,5.955552199E-1
1.423463188E1,-9.541308893E-1,-1.251623992E0,2.736065986E0,3.156419720E0
1.424460188E1,-3.097781762E-2,-1.963357607E-1,2.743138193E0,2.750329890E0
1.425457088E1,-5.824711181E-1,-2.179181260E-1,1.971388173E0,2.067155592E0
1.426454087E1,-9.585801087E-1,1.060152823E-1,2.072069040E0,2.285516390E0
1.427451087E1,-7.573019890E-1,6.085080385E-1,-5.585465044E-1,1.120608109E0
1.428448088E1,-1.087929436E0,-5.478560400E-1,-3.749585509E-2,1.218664284E0
1.429445088E1,-2.333912473E-1,1.910739098E0,-2.001063377E0,2.776625652E0
1.430442087E1,-1.027437066E0,-7.750443417E-1,-1.258833609E0,1.800272955E0
1.431438987E1,-5.499311072E-1,-1.789618411E0,-1.107871950E0,2.175439849E0
1.432435987E1,3.558583652E-1,-7.933692232E-1,-1.637194655E0,1.853773513E0
1.433432988E1,2.962722044E-1,-1.794189472E0,-2.612103260E-1,1.837151032E0
1.434429988E1,1.207360862E0,-7.061360747E-2,4.336552405E-1,1.284820377E0
1.435426987E1,-3.066999827E-2,-4.661221978E-1,2.807487971E-1,5.450049900E-1
1.436423987E1,-4.281638280E-2,-1.277671292E0,1.979370207E-1,1.293621365E0
1.437420888E1,2.006283844E-1,-1.258278708E0,-4.604015744E-1,1.354801338E0
1.438417888E1,7.545615453E-1,-1.386076038E0,2.106895641E0,2.632409382E0
1.439414888E1,9.531313808E-1,1.949505553E0,1.820828217E0,2.832745439E0
1.440411887E1,1.915547848E-3,1.062135321E0,2.336687708E-1,1.087536760E0
1.441408887E1,-5.049161713E-1,-6.068673098E-1,-6.027573019E-1,9.932495340E-1
1.442405788E1,-8.420173265E-2,-1.939251291E0,-8.893919063E-1,2.135135467E0
1.443402788E1,-1.029305837E-1,-1.990143409E0,5.063887560E-1,2.056135955E0
1.444399788E1,-2.895996178E-2,9.701893169E-1,7.959089613E-1,1.255219927E0
1.445396787E1,4.639954193E-1,7.917919368E-1,8.270459694E-1,1.235407324E0
1.446393787E1,6.795977555E-2,8.347561079E-1,-6.900936538E-1,1.085202996E0
1.447390788E1,4.646342276E-1,-4.882319820E-1,-8.894924784E-1,1.115998344E0
1.448387688E1,-2.074684938E-1,-8.673701227E-1,9.326338202E-1,1.290418517E0
1.449384687E1,-3.581584040E-3,1.712095733E0,1.426343474E0,2.228394115E0
1.450381654E1,-2.523587195E-1,9.317228240E-1,5.587230903E-1,1.115331267E0
1.451378654E1,-9.590614990E-2,8.984442732E-1,-1.705878389E-1,9.195109093E-1
1.452375654E1,7.680312643E-1,-1.435401688E0,-1.315663283E0,2.093136379E0
1.453372654E1,6.274264855E-1,-2.358132079E0,-1.770887148E0,3.015044309E0
1.454369554E1,1.020047867E0,7.539870563E-1,-7.540955222E-1,1.475687700E0
1.455366554E1,9.793576779E-1,-9.401226416E-1,6.456817120E-1,1.503288700E0
1.456363554E1,5.139123684E-1,-9.225418183E-1,1.727786736E0,2.024953416E0
1.457360554E1,8.752108734E-1,4.064194947E-2,4.781502128E-1,9.981349944E-1
1.458357554E1,4.483081802E-1,8.385521203E-2,3.257711881E-1,5.604808543E-1
1.459354554E1,6.701914859E-1,8.161125532E-1,4.015896946E-1,1.129809988E0
1.460351454E1,2.465043959E-1,-1.267109174E0,-5.095883524E-1,1.387807755E0
1.461348454E1,-1.794369602E-1,-2.255344167E-1,-6.911175013E-2,2.963778498E-1
1.462345454E1,1.365987052E-1,1.778811294E0,-8.952718663E-1,1.996081296E0
1.463342454E1,5.916205488E-2,1.155066289E0,-9.849500281E-1,1.519146089E0
1.464339454E1,1.516579533E-1,1.151307114E0,-1.222161042E0,1.685878352E0
1.465336354E1,4.860438808E-1,-2.119489959E-1,-2.287416145E0,2.348070197E0
1.466333354E1,6.365800823E-1,2.601610431E-1,-2.768682924E0,2.852809686E0
1.467330354E1,5.627765995E-1,5.782109830E-1,-2.061316010E0,2.213609978E0
1.468327354E1,6.555724235E-1,-1.491075075E-1,-1.326208152E0,1.486888130E0
1.469324354E1,5.129953057E-1,3.252496165E-1,-4.209083104E-1,7.389961451E-1
1.470321354E1,1.022523505E0,-6.992503935E-1,5.234971243E-1,1.344825145E0
1.471318254E1,1.160562087E0,-1.976344272E-1,2.011203618E0,2.330429943E0
1.472315254E1,6.874845531E-1,-7.235520065E-1,1.250171544E0,1.599716039E0
1.473312254E1,3.970846342E-1,-3.246920845E-1,1.576873609E0,1.658201295E0
1.474309254E1,3.843227206E-1,1.256801409E0,1.407355810E0,1.925591887E0
1.475306254E1,7.367306804E-1,-2.510063499E-1,8.287972105E-1,1.136961345E0
1.476303254E1,1.039036188E0,3.859308511E-2,5.273469311E-1,1.165838931E0
1.477300154E1,7.507376124E-1,-1.678652876E0,2.354498327E-2,1.839031486E0
1.478297154E1,3.543074278E-1,-1.567013741E0,8.113081884E-1,1.799801877E0
1.479294154E1,7.336687859E-1,4.322331977E-1,1.748484710E0,1.944812126E0
1.480291154E1,9.313750608E-1,-1.334417058E0,3.265605623E0,3.648603633E0
1.481288154E1,1.173781253E0,2.410137507E-1,2.045798085E0,2.370894317E0
1.482285054E1,1.198719262E0,1.399221164E-1,1.354581181E0,1.814220561E0
1.483282054E1,7.752827619E-1,1.448937115E-1,5.504340774E-1,9.617875140E-1
1.484279054E1,8.235240452E-1,1.022763972E0,-1.262380530E0,1.821494606E0
1.485276054E1,7.989761183E-1,-1.054488040E0,-2.750925515E0,3.052523391E0
1.486273054E1,7.865754895E-1,-6.461845726E-2,-2.927617847E0,3.032131726E0
1.487270054E1,7.893457541E-1,-8.599938601E-2,-2.967794650E0,3.072176378E0
1.488266954E1,5.794989419E-1,-1.610526089E0,-6.356654316E-1,1.825837848E0
1.489263954E1,8.789170580E-1,-1.195516157E0,1.649667935E0,2.218819140E0
1.490260954E1,1.019689506E0,-8.165800381E-1,3.648935632E0,3.875732304E0
1.491257954E1,1.105414073E0,4.911292773E-1,3.312392119E0,3.526342267E0
1.492254954E1,1.165594201E0,6.828600633E-1,2.363438135E0,2.722268819E0
1.493251854E1,5.207799963E-1,9.783169466E-1,1.571116440E0,1.922686329E0
1.494248854E1,5.873631911E-1,2.003852206E0,-1.690415427E0,2.686619344E0
1.495245854E1,7.878566144E-1,3.412896985E-1,-1.668675479E0,1.876612522E0
1.496242854E1,9.167183570E-1,7.394079012E-1,-2.476243789E0,2.742057602E0
1.497239854E1,8.075097641E-1,-2.550403440E-1,-2.863202580E0,2.985807531E0
1.498236854E1,9.218591559E-1,-6.867964089E-2,-9.526266199E-1,1.327418048E0
1.499233754E1,1.554949474E0,-5.085118800E-2,-2.011687768E-1,1.568732796E0
1.500230754E1,1.385446732E0,-1.331728508E0,-9.861270726E-2,1.924236974E0
1.501227754E1,1.088215657E0,-6.653722107E-2,-6.207772511E-1,1.254593525E0
1.502224754E1,1.178965906E0,-1.497911932E0,3.457492529E0,3.948158476E0
1.503221754E1,1.772031960E-1,3.806937924E-1,3.309395421E0,3.335929673E0
1.504218754E1,4.126141081E-1,1.589854135E0,9.491025031E-1,1.897019276E0
1.505215654E1,3.854949046E-1,3.151473820E-1,7.918539172E-1,9.353912658E-1
1.506212654E1,3.862717803E-1,-5.481872848E-1,3.824102426E-1,7.719797802E-1
1.507209654E1,8.759098350E-1,-1.756549775E0,1.855001099E0,2.700687733E0
1.508206654E1,5.982924046E-1,6.768038097E-1,1.013205528E-1,9.090011291E-1
1.509203654E1,5.189985690E-1,-4.807829216E-1,-1.349310501E0,1.523532264E0
1.510200554E1,8.019554208E-1,-1.192691368E0,-6.831997865E-1,1.591353871E0
1.511197554E1,1.231931959E-1,-1.194872671E0,-7.087924647E-1,1.394734391E0
1.512194554E1,3.768980724E-1,-1.619202480E0,8.350876451E-2,1.664584796E0
1.513191554E1,2.143501185E-1,1.132453644E0,6.699295306E-1,1.333117701E0
1.514188554E1,4.357908264E-1,7.040398479E-1,7.387962824E-1,1.109687208E0
1.515185554E1,1.182626117E0,1.108120749E0,1.282130086E0,2.066493088E0
1.516182454E1,2.283605222E-1,1.304821376E0,1.394648641E-1,1.331975149E0
1.517179454E1,8.519144699E-1,3.159592679E-1,7.571232104E-1,1.182718935E0
1.518176454E1,3.913271733E-1,1.032868545E0,-5.544060910E-1,1.235848090E0
1.519173454E1,7.316505463E-1,-9.434105310E-1,-1.951088979E0,2.287374948E0
1.520170454E1,8.226911093E-1,-3.718557259E-1,-1.132598655E0,1.448405004E0
1.521167354E1,-3.173283935E-3,7.920638323E-2,-1.144200701E0,1.146943313E0
1.522164354E1,1.061377376E0,-5.096921405E-1,7.189596033E-1,1.379569108E0
1.523161354E1,2.138006995E-1,1.543635111E0,1.194106686E0,1.963265360E0
1.524158354E1,1.117232976E-1,-2.100378335E-1,1.755414830E0,1.771462451E0
1.525155354E1,4.812343267E-1,-3.091902387E-1,8.177974284E-1,9.979868309E-1
1.526152354E1,-6.744690165E-3,9.081936282E-1,-9.933910686E-1,1.345989217E0
1.527149254E1,1.046561774E0,2.294429880E-1,-8.114379966E-1,1.344011627E0
1.528146254E1,5.600521624E-1,-2.973075271E-2,-1.283399516E-1,5.753377143E-1
1.529143254E1,1.153399467E0,-1.807507675E0,1.425093339E0,2.574549543E0
1.530140254E1,1.329410379E0,-3.034093890E-1,1.483700566E0,2.015131902E0
1.531137254E1,6.002710658E-1,-7.734460053E-1,8.322242635E-1,1.284967432E0
1.532134154E1,1.306281718E0,-1.641164330E-1,7.958352864E-1,1.538395246E0
1.533131154E1,-7.543050718E-2,-2.544532835E-1,1.095125020E-1,2.871048990E-1
1.534128154E1,1.354097835E-1,-2.347922840E0,1.328370452E-2,2.351861801E0
1.535125154E1,1.603275469E-1,2.249359542E-1,-1.673893535E0,1.696531954E0
1.536122154E1,-7.149957027E-2,-2.616585150E-1,-1.505484368E0,1.529725645E0
1.537119154E1,4.856766391E-1,-1.132713261E0,-1.342078080E0,1.822112702E0
1.538116054E1,3.119960617E-1,-1.165580167E0,-8.525889462E-1,1.477439197E0
1.539113054E1,3.792748924E-1,-5.294115829E-1,-2.697010678E0,2.774525665E0
1.540110054E1,9.340758166E-1,1.953013882E-1,3.170260924E-1,1.005557461E0
1.541107054E1,1.087554849E0,-2.322090134E0,3.463192980E0,4.309127957E0
1.542104054E1,1.334612647E0,-1.195630763E0,3.629726944E0,4.047918172E0
1.543100954E1,8.291622960E-1,6.839195788E-3,1.776729101E-1,8.480121170E-1
1.544097954E1,1.019289264E0,-2.411090603E-1,-7.711477572E-1,1.300674074E0
1.545094954E1,1.252155212E0,5.618589520E-3,-2.574277622E-1,1.278355700E0
1.546091954E1,1.333338393E0,-1.536844448E0,-5.604456800E-1,2.110398419E0
1.547088954E1,1.415366350E0,-5.235041410E-1,9.151436287E-1,1.764881398E0
1.548085854E1,1.392287389E0,2.546614444E-1,5.400108308E-1,1.514902084E0
1.549082854E1,1.891872764E0,6.673821911E-1,1.203026029E0,2.339199258E0
1.550079917E1,1.143098500E0,1.465139750E-1,1.171815931E0,1.643561104E0
1.551076917E1,5.940357047E-1,-2.051094785E0,1.088763249E-1,2.138158621E0
1.552073917E1,1.735389286E-1,-2.136528745E-1,-1.552529311E-1,3.160170615E-1
1.553070917E1,2.862067343E-1,1.398186499E0,-2.738835812E-2,1.427441734E0
1.554067817E1,3.339876956E-1,-2.581136405E-2,-4.652038926E-1,5.732614316E-1
1.555064817E1,5.543938118E-1,6.924302012E-1,6.066603184E-2,8.890964231E-1
1.556061817E1,6.359398122E-1,-1.051414159E-1,-1.344567239E-2,6.447130743E-1
1.557058817E1,6.245750177E-1,9.893518120E-2,-1.070250964E-1,6.413552012E-1
1.558055817E1,7.114976791E-1,4.080447283E-1,-1.362817569E0,1.590597741E0
1.559052717E1,1.204593375E0,-2.137318704E0,4.387458265E-2,2.453793272E0
1.560049717E1,3.497978358E-1,-8.793618849E-1,6.428329486E-1,1.144058587E0
1.561046717E1,2.234436717E-1,9.459868142E-1,-5.946665096E-1,1.139493916E0
1.562043717E1,8.433980003E-1,1.763408267E0,-1.008773339E0,2.199671010E0
1.563040717E1,1.053446213E0,-4.858363777E-1,-4.386358988E-1,1.240236816E0
1.564037717E1,2.199163535E0,-2.309933773E0,1.332620208E0,3.456586597E0
1.565034617E1,1.321924481E0,1.250313047E0,2.489469606E-1,1.836502556E0
1.566031617E1,7.596440182E-1,1.480661768E0,-1.638020282E0,2.335065042E0
1.567028617E1,5.819417258E-1,5.610818571E-1,-3.507581533E0,3.599527362E0
1.568025617E1,4.980709456E-1,4.454484898E-1,-1.999077662E0,2.107797553E0
1.569022617E1,7.510289499E-1,-1.794727415E0,-6.742307425E-2,1.946698962E0
1.570019517E1,3.017464408E-1,-1.045646758E0,2.121923570E0,2.384740593E0
1.571016517E1,7.724626498E-1,9.831756905E-1,1.858020017E0,2.239547134E0
1.572013517E1,1.391735851E0,1.823300419E0,1.028795959E0,2.513916113E0
1.573010517E1,1.630674717E0,2.234366112E0,-9.429863155E-2,2.767739906E0
1.574007517E1,2.081255308E0,7.072271651E-1,-5.846373653E-1,2.274553752E0
1.575004417E1,2.177440836E0,1.334750349E0,-1.830103655E0,3.141987663E0
1.576001417E1,2.285696625E0,-1.808421010E-1,-8.359360760E-1,2.440471686E0
1.576998417E1,5.494317915E-1,-1.106590240E0,1.356307279E0,1.834662554E0
1.577995417E1,1.521484981E0,4.635467917E-2,-5.330269164E-1,1.612818340E0
1.578992417E1,1.491522387E0,3.700819731E-2,4.404450274E-1,1.555635066E0
1.579989417E1,1.685883250E0,1.189758989E0,8.360957050E-1,2.226383797E0
1.580986317E1,2.853818969E0,-1.415154827E0,2.177528837E0,3.858571980E0
1.581983317E1,2.074925697E0,-6.261754006E-1,2.398919039E0,3.232990077E0
1.582980317E1,2.276787515E0,7.671546936E-4,1.545089314E0,2.751556462E0
1.583977317E1,1.875659897E0,-5.647656029E-1,4.599852526E-1,2.012124913E0
1.584974317E1,1.760893818E0,3.987415159E-1,5.004924238E-2,1.806169084E0
1.585971217E1,8.866969977E-1,-3.941479433E-1,-4.895639777E-1,1.086856502E0
1.586968217E1,3.639367687E-1,-1.247720684E0,-6.411828643E-1,1.449266139E0
1.587965217E1,-1.859980296E-1,-1.061292153E0,-8.549143839E-1,1.375432624E0
1.588962217E1,4.863369725E-1,-1.031485094E0,-7.012852246E-1,1.338762905E0
1.589959217E1,1.460578921E0,-1.099961836E0,1.865406219E0,2.612077179E0
1.590956117E1,9.961989746E-1,-1.157171287E0,2.899645936E-1,1.554199874E0
1.591953117E1,1.890271212E0,1.649236411E-2,5.062776589E-1,1.956965590E0
1.592950117E1,1.083775720E0,2.652104062E-1,9.525476825E-1,1.467056052E0
1.593947117E1,1.282722847E0,-7.908253920E-1,1.173872396E0,1.910172533E0
1.594944117E1,2.028512984E0,1.674417153E0,6.330026096E-1,2.705407554E0
1.595941117E1,5.731913676E-1,1.040971909E0,1.365416071E0,1.810119307E0
1.596938017E1,8.844746903E-1,2.813513526E-1,3.931550860E-2,9.289778095E-1
1.597935017E1,7.176291425E-1,-2.100875348E-1,-1.009497224E0,1.256269479E0
1.598932017E1,-2.213225942E-1,-1.447530567E0,-9.992300981E-1,1.772791365E0
1.599929017E1,4.108494915E-1,-5.360619137E-1,-1.227599537E-1,6.864617150E-1
1.600926017E1,9.296978601E-1,-5.914128265E-1,1.129956883E-1,1.107644017E0
1.601922917E1,1.008779259E0,9.331454515E-2,6.210731202E-1,1.188307628E0
1.602919917E1,1.453079575E0,2.060681587E-1,1.084740365E-1,1.471621879E0
1.603916917E1,7.903266976E-1,-3.455947110E-1,1.652158265E0,1.863780814E0
1.604913917E1,-1.493664660E-1,1.447027707E0,-1.115324811E0,1.833070909E0
1.605910917E1,5.261919598E-1,-5.687113041E-1,-2.288800181E0,2.416385068E0
1.606907817E1,-8.399656847E-2,-1.157927916E0,-1.722243576E0,2.077011174E0
1.607904817E1,4.017697158E-1,-4.928957212E-1,1.429585755E-1,6.517685562E-1
1.608901817E1,1.965919418E-1,-1.511382747E0,9.093034297E-1,1.774756019E0
1.609898817E1,1.023987063E-1,-9.247663915E-2,-3.259302324E-1,3.539321125E-1
1.610895817E1,3.102745683E-1,-2.111608205E0,3.169056398E-1,2.157681325E0
1.611892717E1,6.370979995E-3,-2.180205692E0,2.329635966E0,3.190696034E0
1.612889717E1,2.575614807E-1,-1.247494689E-1,1.422732233E0,1.451229601E0
1.613886717E1,1.177024630E0,-2.016111186E-1,9.276613480E-1,1.512147347E0
1.614883717E1,1.451843766E0,4.780695212E-1,5.230872345E-1,1.615555955E0
1.615880717E1,1.410326781E0,5.350094149E-1,2.704576975E-1,1.532450348E0
1.616877617E1,1.676951190E0,1.467718664E0,-6.210795522E-1,2.313461299E0
1.617874617E1,1.019690529E0,2.155622828E-1,-9.322800636E-3,1.042268098E0
1.618871617E1,1.723403225E-1,-3.216728747E-1,7.249904215E-1,8.116561688E-1
1.619868617E1,-8.921572007E-2,1.357187577E0,2.011605906E-1,1.374912051E0
1.620865617E1,-3.490429603E-1,-5.742442319E-1,1.408861468E0,1.560922184E0
1.621862617E1,-6.250093927E-1,5.561722425E-1,-6.961443526E-1,1.088384704E0
1.622859517E1,3.656740496E-1,1.508189290E0,-1.498723817E0,2.157434941E0
1.623856517E1,-1.551754921E-1,5.463293320E-1,-7.626956069E-1,9.509257391E-1
1.624853517E1,7.293812419E-1,1.635831377E0,-2.316893713E0,2.928470210E0
1.625850517E1,7.029924653E-2,-1.363737336E-1,-1.699585615E0,1.706496716E0
1.626847517E1,-5.576966481E-2,-1.132389617E0,-6.684718198E-1,1.316157694E0
1.627844417E1,7.714299584E-1,-1.324452817E-1,5.727605009E-1,9.698971723E-1
1.628841417E1,-6.734640263E-3,-1.614592535E0,1.922419496E0,2.510508141E0
1.629838417E1,7.220015807E-2,-3.337994152E-1,2.401211733E-1,4.174842396E-1
1.630835417E1,2.203238532E-1,-5.164056212E-2,8.580011290E-1,8.873416960E-1
1.631832417E1,-2.590848448E-1,-1.387853300E0,1.262758845E-1,1.417465110E0
1.632829317E1,6.364259351E-1,1.782880372E-1,-7.115008950E-1,9.711117952E-1
