"Time (s)","Linear Acceleration x (m/s^2)","Linear Acceleration y (m/s^2)","Linear Acceleration z (m/s^2)","Absolute acceleration (m/s^2)"
6.873708335E-3,-3.050501177E0,-7.023880094E-2,1.814338392E-1,3.056699062E0
1.684420835E-2,-1.055405176E0,1.417553062E0,1.099190004E0,2.081238918E0
2.681420837E-2,-2.875588445E0,-6.277635044E-1,3.841427726E-1,2.968275862E0
3.678420838E-2,-2.912273583E0,-1.402315511E0,1.643883870E0,3.626317746E0
4.675420834E-2,-4.659938149E-1,5.213585052E-1,2.349534625E0,2.451382851E0
5.672420835E-2,1.156484093E0,2.676726687E-1,-1.743626844E0,2.109345558E0
6.669420836E-2,-9.103309317E-1,-1.306177345E-1,-1.645211188E0,1.884803239E0
7.666420838E-2,-8.277095553E-1,1.962674944E0,-1.340985235E0,2.517029488E0
8.663420839E-2,-9.261005799E-1,1.377938176E0,-1.128478707E0,2.007446162E0
9.660420835E-2,8.891189875E-1,3.959927398E-1,7.360165161E-1,1.220271747E0
1.065742084E-1,8.642279752E-1,-5.185737687E-1,-9.030463243E-1,1.353255855E0
1.165452084E-1,5.705361835E-1,4.968095550E-1,-4.526834836E0,4.589614897E0
1.265152083E-1,-5.096890707E-1,2.052983728E0,-3.806088324E0,4.354403916E0
1.364852083E-1,1.543751910E-1,1.251961377E0,-1.691550372E0,2.110114132E0
1.464552084E-1,-8.600589104E-2,-8.138447106E-1,-3.743668127E-1,8.999392961E-1
1.564252084E-1,-4.137782156E-1,1.039931104E0,8.450629950E-2,1.122412771E0
1.663952083E-1,-4.079276378E-1,3.798309188E0,1.785439113E0,4.216793862E0
1.763652083E-1,-6.867969571E-2,1.503571452E0,1.302919276E0,1.990739222E0
1.863352084E-1,-3.722012598E-1,1.985793665E0,-9.418882084E-1,2.229139667E0
1.963052084E-1,-9.600874113E-2,2.289546871E0,-8.414008838E-1,2.441146861E0
2.062752084E-1,6.156545055E-1,2.650218335E-1,2.637400069E0,2.721239821E0
2.162452083E-1,2.302178720E-1,1.680144793E0,3.701971632E0,4.071913648E0
2.262152084E-1,8.644406676E-1,2.723000090E0,-4.361203682E0,5.213644091E0
2.361852084E-1,8.108187765E-2,-2.392722160E0,-1.928280745E0,3.074078762E0
2.461552084E-1,2.047271875E0,4.343750328E-2,-2.739485437E0,3.420232362E0
2.561252083E-1,1.735975031E0,9.729652825E-1,-3.562075828E0,4.080276333E0
2.660952084E-1,4.817897391E-1,-3.873022278E0,2.424246839E0,4.594496235E0
2.760652084E-1,1.478870474E0,-2.626353216E0,2.512718720E0,3.924097917E0
2.860352084E-1,-4.450902382E-2,-2.944471861E0,2.671900980E0,3.976298585E0
2.960052083E-1,8.817136350E-1,-1.033209730E0,5.029728127E-1,1.448420840E0
3.059752083E-1,-3.942885688E-1,8.490700918E-1,2.413448201E0,2.588651331E0
3.159452084E-1,-8.455542342E-1,-3.226695326E-1,5.444564103E0,5.519271317E0
3.259162084E-1,1.085458841E0,-2.538109084E0,2.490000533E0,3.717569270E0
3.358862083E-1,-1.375911970E0,-2.064359486E-1,-7.818966937E-1,1.595967415E0
3.458562084E-1,-1.487413256E0,-1.553438553E-1,1.262140794E0,1.956918315E0
3.558262084E-1,6.757843477E-1,-8.487139964E-1,-4.238843678E0,4.375476620E0
3.657962084E-1,-2.500884832E0,-3.386291277E0,-3.905402112E0,5.742260810E0
3.757662083E-1,-3.056965858E0,-1.240415757E0,-1.203831190E0,3.511820190E0
3.857362084E-1,-1.689910959E0,4.102324056E0,-2.439752485E0,5.063324392E0
3.957062084E-1,-2.735377914E-1,-1.899561560E-1,2.401488891E0,2.424470077E0
4.056762084E-1,3.603506713E-1,-4.554539528E-1,3.243051742E0,3.294643458E0
4.156462083E-1,7.831399579E-1,9.910530594E-1,1.695982561E0,2.114675202E0
4.256162083E-1,1.048946725E-1,1.569911914E0,6.612622029E-1,1.706720250E0
4.355862084E-1,-4.425515599E-1,3.483589530E0,1.301560383E0,3.745037694E0
4.455562084E-1,3.619996227E-1,1.534227526E0,-8.347900218E-1,1.783752284E0
4.555262084E-1,7.880926227E-1,-4.740845268E0,2.066368005E0,5.231307730E0
4.654962083E-1,1.956717655E0,-1.758316511E0,-2.263135582E-1,2.640386101E0
4.754662084E-1,5.775321212E-1,2.687860078E0,6.900550622E-1,2.834486045E0
4.854362084E-1,-1.632967557E0,1.452161855E0,-2.471722721E0,3.299207527E0
4.954062084E-1,-5.992980161E-1,-2.826947504E-1,-6.689892399E0,6.722628559E0
5.053762083E-1,1.655609145E-1,-5.793286783E-1,-2.362054099E0,2.437689828E0
5.153462084E-1,3.874824463E-1,-1.865761730E0,1.199801874E0,2.251829038E0
5.253162084E-1,4.549535043E-1,-2.085200424E0,1.365394437E0,2.533642727E0
5.352872084E-1,8.313218189E-1,3.117074651E-1,4.439546431E0,4.527452929E0
5.452572083E-1,7.443034094E-1,3.410791110E0,-1.346005654E-1,3.493651510E0
5.552272084E-1,-1.344714881E0,1.444568368E0,-3.861659092E-1,2.011009695E0
5.651972084E-1,-1.817807984E0,1.701908714E0,-3.194037457E0,4.050036347E0
5.751672084E-1,-1.083368608E0,1.563154579E0,-6.568224120E-1,2.012102249E0
5.851372083E-1,-1.369066050E0,-5.021718611E0,2.364987062E0,5.717093969E0
5.951072084E-1,-1.229973141E-1,-3.419489720E-1,-3.401137649E0,3.420496272E0
6.050772084E-1,5.546253981E-1,5.277121482E0,-6.206791348E0,8.165774875E0
6.150472084E-1,-3.677516749E-1,6.292057201E-1,1.966915637E-1,7.548699914E-1
6.250172083E-1,-1.106667862E0,-3.180381870E0,7.249780254E0,7.993676021E0
6.349872084E-1,-2.757457001E-1,2.963471219E-1,5.530421110E0,5.545215502E0
6.449572084E-1,-2.800480083E-1,4.409610149E0,-1.029827408E0,4.536918893E0
6.549272084E-1,-2.224981221E-1,3.499977521E0,-3.874498993E0,5.226001388E0
6.648972083E-1,-1.189378481E-1,-2.240141114E0,-1.072958810E0,2.486688366E0
6.748672083E-1,-1.155205233E0,-3.745633669E0,-3.638254523E-1,3.936577152E0
6.848372084E-1,2.742340121E-1,-2.762329924E-1,-2.896336412E-1,4.851768808E-1
6.948072084E-1,-2.074792088E0,1.913811809E0,1.490496200E0,3.192023931E0
7.047772084E-1,-2.612314636E0,1.477950122E0,-2.183822780E0,3.711819804E0
7.147482084E-1,-1.840566809E0,-4.241216770E0,-1.160961744E0,4.766910744E0
7.247182084E-1,-2.141197893E0,-3.570720352E0,1.740820180E0,4.512784855E0
7.346882084E-1,-2.314609060E0,1.407929130E0,2.540007091E-1,2.721065214E0
7.446582083E-1,-2.688761426E0,1.569294448E0,5.762601764E0,6.549786421E0
7.546282083E-1,-3.703345728E0,3.107043752E-1,2.384287552E0,4.415442664E0
7.645982084E-1,-1.496768801E-1,-1.238151715E0,6.634519851E-1,1.412654018E0
7.745682084E-1,-1.753015133E0,-2.772071385E0,-2.354281980E-1,3.288292605E0
7.845382084E-1,-1.995440256E0,-5.308125758E-1,-1.946778411E0,2.837867155E0
7.945082083E-1,4.677786409E-1,1.365775090E-1,-1.586916786E0,1.660052758E0
8.044782084E-1,-4.001737548E-1,-3.475023066E0,-8.854163843E-1,3.608307986E0
8.144482084E-1,-1.317380025E0,-2.262117874E0,-2.769969311E0,3.811219935E0
8.244182084E-1,-1.399739373E0,-2.113188415E0,4.196481185E0,4.902579925E0
8.343882083E-1,-9.785369481E-1,-2.043663266E-1,3.175433956E0,3.329066080E0
8.443582084E-1,-1.012567085E0,1.924505490E0,-1.159065492E0,2.464233410E0
8.543282084E-1,-4.082165268E-1,-3.970762289E-1,2.171859961E0,2.245280819E0
8.642982084E-1,1.612743938E-1,3.704026929E-1,2.419157422E0,2.452657787E0
8.742682083E-1,-6.925169592E-1,2.466155587E0,2.729734036E0,3.743387640E0
8.842382084E-1,6.341026901E-1,1.696462910E0,-3.938954605E0,4.335370342E0
8.942082084E-1,1.606503936E0,-1.408020346E0,-5.149000216E0,5.574547463E0
9.041792084E-1,3.742526458E-1,-3.193588976E0,-3.065743114E0,4.442730740E0
9.141492083E-1,-1.525639574E0,-1.813862429E0,2.597959430E0,3.516683981E0
9.241192084E-1,5.737684878E-1,3.407615780E0,1.856762865E0,3.922833659E0
9.340892084E-1,1.569418117E0,4.100094220E0,1.746093199E0,4.724689122E0
9.440592084E-1,2.649946147E0,-7.622933185E-1,-1.876418865E0,3.335304101E0
9.540292083E-1,8.379902029E-1,1.552321150E0,-3.823077993E0,4.210445805E0
9.639992084E-1,1.130919262E0,1.961808387E0,-2.943410591E0,3.713668864E0
9.739692084E-1,1.651207653E-1,1.314000919E0,-1.280925559E0,1.842453140E0
9.839392084E-1,1.272924047E-1,6.636963987E-1,2.049222214E0,2.157778475E0
9.939092083E-1,9.344217525E-1,5.800338525E-1,3.718067263E0,3.877319622E0
1.003879208E0,6.322505846E-1,3.722828066E0,-2.266318222E0,4.404019515E0
1.013848750E0,7.005665287E-1,2.754570377E0,-3.271307827E0,4.333578928E0
1.023818750E0,9.406217015E-1,-1.247804883E0,9.519325554E-1,1.829743644E0
1.033788750E0,1.771303470E0,-2.576860044E0,3.358460577E0,4.588788632E0
1.043758750E0,4.267048015E-1,2.144046803E0,1.631653249E0,2.727875731E0
1.053728750E0,-7.936661156E-1,3.116101089E0,-1.442719771E0,3.524405232E0
1.063698750E0,-9.527114777E-1,-1.376457953E-1,-2.080369747E0,2.292279174E0
1.073669750E0,8.498755458E-1,-2.540526323E0,1.457015043E-1,2.682869988E0
1.083639750E0,9.537435843E-1,-2.807012592E0,3.406944519E-1,2.984127884E0
1.093609750E0,6.731714462E-1,1.122592315E-1,1.021544243E0,1.228541644E0
1.103579750E0,4.368287803E-1,-8.916807988E-1,3.232412149E0,3.381479311E0
1.113549750E0,-3.455649998E-1,-2.162947927E0,1.804795151E0,2.838141019E0
1.123519750E0,3.454589460E-1,-1.946055695E0,2.966634563E0,3.564743368E0
1.133489750E0,1.242916465E0,-1.295774271E0,-6.211011869E-1,1.899904994E0
1.143459750E0,-9.120859735E-1,6.141535252E-2,-4.887763578E0,4.972515003E0
1.153429750E0,-1.927985168E0,1.141718557E-1,-3.503965614E0,4.000992008E0
1.163399750E0,-1.215923525E0,-2.225149730E0,-9.472296399E-1,2.706844165E0
1.173369750E0,-2.007543846E0,-3.404066227E0,4.741559798E0,6.172543113E0
1.183339750E0,1.687164375E-1,-1.817394732E0,4.362094797E0,4.728557906E0
1.193309750E0,7.054382460E-2,2.541216002E0,-2.385627149E0,3.486254738E0
1.203279750E0,-1.695609509E0,8.901505825E-1,-3.843426304E0,4.294110550E0
1.213249750E0,7.897693849E-1,-1.387473523E0,-1.580153897E0,2.246264632E0
1.223219750E0,7.910712674E-1,-2.724215141E0,4.968687873E0,5.721450958E0
1.233189750E0,1.001834448E0,-1.387208059E-1,6.492249493E0,6.570556993E0
1.243159750E0,2.163929163E-1,9.913658854E-1,1.000657988E0,1.425113547E0
1.253130750E0,-5.911994762E-1,1.403462150E0,-3.445233842E0,3.766810195E0
1.263100750E0,-2.676786621E-1,-1.665924072E0,-2.303887752E0,2.855670438E0
1.273070750E0,2.028337714E0,-9.585065800E-1,-1.459172666E-1,2.248150483E0
1.283040750E0,3.411746545E-1,1.713942284E0,-2.708898067E-1,1.768439873E0
1.293010750E0,5.741247294E-1,-9.435482329E-1,2.581609445E0,2.807954736E0
1.302980750E0,-1.037139644E0,-9.640169960E-1,-5.458902061E-2,1.417027653E0
1.312950750E0,-1.467394217E-1,9.962556195E-1,-2.451771437E0,2.650517100E0
1.322920750E0,-5.587032098E-1,-1.233478328E0,4.684438348E-1,1.432849500E0
1.332890750E0,-2.353406542E-1,5.627488983E-1,5.236766338E-3,6.099991555E-1
1.342860750E0,5.624996607E-1,2.530101615E0,2.427483273E0,3.551125890E0
1.352830750E0,-1.588903086E0,3.554972631E-1,-4.930132502E-1,1.701191754E0
1.362800750E0,5.399599600E-1,2.157502708E0,-3.517047590E0,4.161249625E0
1.372770750E0,7.299279566E-1,1.785071031E0,-1.952534410E0,2.744387733E0
1.382740750E0,3.562280919E-1,4.508709052E-1,-1.985660641E0,2.067131154E0
1.392710750E0,6.292085706E-1,3.218079454E-1,-6.586034739E-1,9.660343239E-1
1.402680750E0,-1.123446009E0,2.151480076E0,3.879965554E0,4.576584988E0
1.412650750E0,-1.113845465E0,3.878521585E0,1.107205367E0,4.184433669E0
1.422621750E0,1.736693946E0,7.997406417E-1,-2.493339293E0,3.142042614E0
1.432591750E0,3.498882484E-1,-1.668476382E0,-5.498891754E0,5.757086567E0
1.442561750E0,-1.096670292E0,-2.099768762E0,-3.209539011E0,3.989092033E0
1.452531750E0,-7.703140173E-1,-1.344894683E-1,1.635769104E0,1.813066922E0
1.462501750E0,2.232911690E-1,7.216846982E-1,5.187439812E0,5.242157910E0
1.472471750E0,4.545713156E-1,-2.903551877E-1,5.978396766E0,6.002680161E0
1.482441750E0,-5.637900681E-1,-7.475934184E-1,-2.618424100E-1,9.722739366E-1
1.492411750E0,-3.758339887E-1,-1.899802173E0,1.871363947E0,2.693047067E0
1.502381750E0,-1.661918875E0,-6.567481524E-1,-1.731390960E0,2.488173455E0
1.512351750E0,-2.089068504E0,1.342789686E-1,-1.584718233E0,2.625560880E0
1.522321750E0,-7.270060664E-2,3.462279645E-1,-1.602955699E-1,3.883990877E-1
1.532291750E0,-1.871921041E0,2.678936934E-1,-1.722530090E0,2.557922071E0
1.542261750E0,-1.208841889E0,-2.078949166E0,6.204498070E-1,2.483603493E0
1.552231750E0,-1.092528563E0,-2.041191356E0,1.524428177E0,2.771996046E0
1.562201750E0,1.803961923E0,-9.549848020E-1,-2.695454734E0,3.381087224E0
1.572171750E0,2.817296675E-1,-2.856563944E0,-1.881802397E0,3.432274673E0
1.582141750E0,2.747439624E-1,-4.863181883E0,2.446628226E0,5.450872586E0
1.592112750E0,2.364888281E-1,-2.996194284E0,5.015053369E0,5.846697141E0
1.602082750E0,-9.907530972E-1,1.995545067E0,3.806195328E0,4.410319114E0
1.612052750E0,-5.393964346E-1,1.257929922E0,-1.179968119E0,1.807113987E0
1.622022750E0,-8.023897228E-1,-1.420147179E0,-3.143205273E0,3.541240837E0
1.631992750E0,1.488046071E0,3.804306677E-1,-2.667946508E0,3.078465067E0
1.641962750E0,-4.011947517E-1,3.807885173E-1,1.962182316E0,2.038655578E0
1.651932750E0,-9.982111477E-1,-1.564430442E0,4.159822066E0,4.554995908E0
1.661902750E0,-2.251861712E0,-1.651781704E0,2.390497879E0,3.676104470E0
1.671872750E0,-1.354982007E0,1.381374585E0,-3.295186687E0,3.821312246E0
1.681842750E0,4.201816477E-2,3.703267960E0,-5.148115532E0,6.341849308E0
1.691812750E0,1.010720754E0,6.730089667E-1,-1.073273975E-1,1.219022839E0
1.701782750E0,-5.254206390E-1,-1.082497957E0,3.168758190E0,3.389527569E0
1.711752750E0,-3.806417522E-1,4.315900040E-1,2.565930721E0,2.629668903E0
1.721722750E0,8.968183087E-1,2.236979817E0,-2.528260619E0,3.492916194E0
1.731692750E0,1.889578024E0,-6.499358538E-1,-3.082300674E0,3.673349857E0
1.741662750E0,2.002526496E0,-2.175772626E0,5.659280294E-1,3.010709787E0
1.751633750E0,8.247180466E-1,1.098077279E0,-2.395721197E-1,1.394033130E0
1.761603750E0,1.211396903E-2,1.868304684E0,8.923318863E-1,2.070498813E0
1.771573750E0,1.751124509E-1,3.010054232E0,-1.021468229E0,3.183471092E0
1.781543750E0,6.040855701E-1,1.570610364E0,6.269326150E-2,1.683943804E0
1.791513750E0,2.137792767E0,-5.262225115E-1,-1.071132724E0,2.448345025E0
1.801483750E0,6.942375390E-2,1.755013127E0,-2.132125207E0,2.762399072E0
1.811453750E0,2.739801516E-1,4.092679074E0,-2.875177093E0,5.009164645E0
1.821423750E0,3.938423166E-1,2.015904779E0,2.656721608E0,3.358147339E0
1.831393750E0,1.689507354E0,-1.892724703E0,3.153143785E0,4.047117200E0
1.841363750E0,1.130654310E0,-1.047314384E0,4.121135134E-1,1.595331983E0
1.851333750E0,5.529897857E-1,-1.201706605E0,1.211800361E-1,1.328375349E0
1.861303750E0,8.288875499E-1,1.090570039E-1,3.690321055E0,3.783836346E0
1.871273750E0,8.399621764E-1,2.697785726E0,-3.939845721E0,4.848295431E0
1.881243750E0,3.082327572E-1,8.576728079E-1,-2.735542075E0,2.883366179E0
1.891213750E0,6.298020630E-1,-8.246065110E-1,-2.432061058E0,2.644153461E0
1.901183750E0,-3.056253192E-1,-6.039883747E0,7.705507565E-1,6.096503177E0
1.911153750E0,-1.678786960E-1,-3.195171525E0,6.924395567E-1,3.273648861E0
1.921124750E0,-4.360404294E-1,1.654325827E0,5.949079996E-1,1.811309120E0
1.931094750E0,6.418090280E-1,7.824682590E-1,4.620967991E0,4.730488408E0
1.941064750E0,-3.361782818E-1,-8.998514056E-1,5.169989381E0,5.258473029E0
1.951034750E0,-7.360923106E-1,-2.828284763E0,2.793255848E0,4.042685347E0
1.961004750E0,9.316533152E-1,-7.794221520E-2,-2.520991945E-1,9.683010340E-1
1.970974750E0,-7.134974268E-1,3.024676072E0,-3.086764439E0,4.380166506E0
1.980944750E0,-5.591535185E-1,-8.373549029E-1,-3.022392442E0,3.185698034E0
1.990914750E0,-3.281054697E-1,-5.597988610E0,-1.941438149E0,5.934164791E0
2.000884750E0,-7.459352942E-1,-4.397461097E0,7.044696182E-1,4.515568735E0
2.010854750E0,1.611654748E0,1.993753188E0,1.185235291E0,2.824405334E0
2.020824750E0,-3.110937998E-3,2.554448544E0,-6.053686684E-1,2.625202519E0
2.030794750E0,-5.299395500E-2,-1.220656261E0,-7.605654663E-1,1.439190709E0
2.040764750E0,1.891281610E0,-2.738456327E0,-1.162196091E0,3.525165094E0
2.050734750E0,-6.375280622E-1,-2.081219640E0,6.709972322E-1,2.277752073E0
2.060704750E0,2.763122222E-1,1.431465635E0,4.152572104E0,4.401056394E0
2.070674750E0,1.284846702E0,2.170579129E0,1.078128333E0,2.743101439E0
2.080645750E0,1.304746239E0,-1.210756633E0,1.652010915E0,2.428463389E0
2.090615750E0,5.052774196E-1,-8.685758185E-1,3.124666675E0,3.282266146E0
2.100585750E0,-7.016971609E-1,3.561684650E0,-3.133429313E-1,3.643646558E0
2.110555750E0,1.132315065E0,7.940317127E-1,-8.400870144E-2,1.385525615E0
2.120525750E0,1.295095409E0,-1.351888830E0,-4.272216076E0,4.664408401E0
2.130495750E0,-4.036458680E-1,1.211977824E0,-6.882630075E0,7.000172640E0
2.140465750E0,-1.977861625E0,3.182785952E0,-1.104687556E0,3.906711868E0
2.150435750E0,-2.532283211E0,1.476497381E0,-7.489464641E-1,3.025462541E0
2.160405750E0,-1.755141473E0,5.544300646E-2,4.983874261E-1,1.825372714E0
2.170375750E0,-1.611871241E0,2.042534754E-1,6.427411473E-1,1.747273465E0
2.180345750E0,-2.917567287E-1,8.685959914E-1,2.311642914E0,2.486618979E0
2.190315750E0,-3.679838459E-1,2.924662956E0,1.905572498E0,3.510024510E0
2.200285750E0,8.059672320E-2,-1.175971839E0,-8.757655549E-1,1.468458684E0
2.210255750E0,-9.073118681E-1,-2.309523591E0,-9.970531797E-1,2.674178207E0
2.220225750E0,5.236114374E-1,2.084151142E0,-1.628662983E0,2.696367562E0
2.230195750E0,-3.224561458E-1,2.693207357E0,3.394107542E0,4.344802624E0
2.240165750E0,-4.930828321E-1,-2.175213632E0,2.781947333E0,3.565657861E0
2.250136750E0,-1.010999155E0,-1.211471455E0,-2.373070253E0,2.849779781E0
2.260106750E0,-1.516344402E0,-1.235382181E-1,-3.535506080E0,3.848943398E0
2.270076750E0,-1.083398867E0,-3.018066087E0,-2.684959567E-1,3.217851160E0
2.280046750E0,-1.998337697E0,1.345344042E0,-9.222462416E-2,2.410769488E0
2.290016750E0,-1.489205720E0,-2.818802041E0,2.057978420E0,3.794555810E0
2.299986750E0,-2.343653057E0,-2.982483441E0,-1.863653809E-1,3.797716311E0
2.309956750E0,-2.804804391E0,1.289123063E0,6.315811515E-2,3.087515974E0
2.319926750E0,4.048519293E-1,-2.515508719E0,2.005416629E0,3.242435050E0
2.329896750E0,-1.583722014E-1,-2.536936133E0,1.757304066E0,3.090185152E0
2.339866750E0,-8.949588941E-1,-7.168695161E-1,3.317423648E-1,1.193694401E0
2.349836750E0,7.221502096E-1,-3.045616705E0,2.575196219E0,4.053260121E0
2.359806750E0,8.003084064E-1,8.399393722E-1,2.002701766E0,2.314477492E0
2.369776750E0,-5.826688636E-1,-8.405430973E-2,1.627678311E0,1.730868226E0
2.379746750E0,-3.148744632E-1,-2.163425353E0,4.199008352E-1,2.226178765E0
2.389716750E0,7.054759240E-1,-1.543015891E-1,-2.774036050E0,2.866492851E0
2.399686750E0,2.343479249E0,1.225500387E-1,-3.730097909E0,4.406874620E0
2.409656750E0,-1.127692823E-1,-2.603193272E0,-2.928192043E0,3.919648041E0
2.419626750E0,-1.961735370E-1,-2.625120623E0,6.023333788E-2,2.633129393E0
2.429597750E0,-9.721982740E-3,-5.913455835E-1,9.926040334E-1,1.155442289E0
2.439567750E0,-6.014286135E-2,4.198312533E-1,2.932310822E0,2.962823350E0
2.449537750E0,1.403786012E-1,2.847105780E0,1.387078836E0,3.170126996E0
2.459507750E0,-6.927088210E-1,9.186370477E-1,1.102996541E0,1.593844693E0
2.469477750E0,4.695504203E-2,1.875704920E-1,1.282269250E0,1.296765936E0
2.479447750E0,-1.148110222E0,5.217353582E-1,6.332353288E-1,1.411152666E0
2.489417750E0,-7.834140462E-1,1.154361115E0,-2.264948804E0,2.660127861E0
2.499387750E0,1.760593125E0,3.409046593E-1,-2.915542177E0,3.422906707E0
2.509357750E0,4.879783590E-1,3.124657905E0,-1.631455028E0,3.558546811E0
2.519327750E0,-2.223547740E-1,9.462800521E-1,-6.440503389E-1,1.166056783E0
2.529297750E0,1.808961731E0,7.808766469E-1,2.512373149E-2,1.970467479E0
2.539267750E0,1.182724496E0,2.822883397E0,-1.025499299E0,3.227871856E0
2.549237750E0,2.693275769E0,1.039642544E0,1.223997653E-1,2.889562716E0
2.559207750E0,2.832825125E0,1.493251701E0,9.606004679E-1,3.343269671E0
2.569177750E0,7.837265068E-1,1.706972695E0,-8.993988311E-1,2.082522816E0
2.579147750E0,2.981514447E-1,2.440600916E0,-3.045323467E-1,2.477532455E0
2.589118750E0,7.161320360E-1,1.915695490E0,1.611617764E0,2.603852170E0
2.599088750E0,-1.724844746E-1,-2.172810718E-1,7.488306892E-1,7.985670662E-1
2.609058750E0,1.335307004E0,4.018919957E-1,1.007563550E0,1.720391315E0
2.619028750E0,-5.871021860E-1,-1.827690801E0,-2.626624820E0,3.253352207E0
2.628998750E0,-9.420494454E-1,-1.319310776E0,-7.125358522E-2,1.622687633E0
2.638968750E0,1.939199835E0,1.444110823E0,-2.087064224E0,3.194023974E0
2.648938750E0,1.805670187E0,-3.646038921E0,4.665294564E-1,4.095325918E0
2.658908750E0,2.390315081E-1,-3.339998285E0,1.007370007E-1,3.350055604E0
2.668878750E0,-3.009391779E-1,-2.385725967E0,8.453296280E-1,2.548888965E0
2.678848750E0,4.239577796E-1,-7.851907226E-1,-1.365168149E0,1.630934930E0
2.688818750E0,-1.987996677E-1,8.340924489E-1,1.625625354E0,1.837903510E0
2.698788750E0,2.356036875E-1,-5.373945526E0,4.756150939E0,7.180234771E0
2.708758750E0,4.671110351E-1,-4.656219100E0,1.110761059E0,4.809611124E0
2.718728750E0,-1.343293862E0,3.266583862E0,-2.933965584E0,4.591640510E0
2.728698750E0,-1.581249811E0,2.207348175E0,-5.958319182E0,6.547847311E0
2.738668750E0,9.684295608E-2,-3.125139715E0,-1.961966554E0,3.691231442E0
2.748638750E0,5.034098189E-1,-4.600353633E0,3.763140525E0,5.964721418E0
2.758608750E0,-1.563382767E0,-1.285313602E0,5.360598087E0,5.729939666E0
2.768579750E0,-1.780372355E0,3.417876181E0,1.387427330E0,4.095919666E0
2.778549750E0,-3.272020603E0,-3.052155939E-1,1.724583047E0,3.711261520E0
2.788519750E0,-1.915196138E0,-1.182091535E0,-3.179149861E0,3.895165014E0
2.798489750E0,-1.543001566E0,-2.102512568E0,1.522544789E-1,2.612392459E0
2.808459750E0,1.641975046E0,-1.367365533E-1,1.042740399E0,1.949893966E0
2.818429750E0,1.655307721E0,1.007244000E0,2.085368532E0,2.846637673E0
2.828399750E0,6.523246606E-1,1.168119613E0,7.617980593E-1,1.539599681E0
2.838369750E0,5.178367272E-1,-2.758119636E0,1.686072115E0,3.273868962E0
2.848339750E0,2.404173786E0,-5.445400840E-1,-3.128938651E-1,2.484849707E0
2.858309750E0,7.310931605E-1,2.461932436E0,1.324556898E0,2.889646951E0
2.868279750E0,-8.561136844E-2,6.462363204E-1,3.550807074E0,3.610149798E0
2.878249750E0,5.490262140E-1,3.776798451E-1,-1.659355018E0,1.788164121E0
2.888219750E0,7.389119111E-2,6.611782953E-1,-4.957674057E0,5.002114424E0
2.898189750E0,-1.657752880E0,1.422179964E0,-2.371179848E0,3.223853957E0
2.908159750E0,1.149576119E-1,1.623668876E0,-3.075151868E0,3.479378520E0
2.918129750E0,-4.867915204E-1,-4.345410937E-1,5.062583631E-1,8.258870847E-1
2.928100750E0,-2.056438702E-1,5.111872736E-1,-2.843424958E0,2.896319617E0
2.938070750E0,-1.074717067E0,8.647944242E-2,1.486986701E0,1.836743019E0
2.948040750E0,-3.853378703E-1,-6.404250652E-1,3.486782402E-1,8.247460540E-1
2.958010750E0,-1.581307845E0,1.548184830E-1,-1.449162818E0,2.150482768E0
2.967980750E0,-1.516887023E0,2.400357162E0,-3.672794026E-1,2.863137249E0
2.977950750E0,-7.798348924E-1,2.679965752E0,2.212111609E0,3.561431828E0
2.987920750E0,7.014887808E-1,3.757517550E0,2.150013009E0,4.385610629E0
2.997890750E0,-8.581508178E-1,2.498218502E0,-3.261331308E-1,2.661556186E0
3.007860750E0,-2.491716398E-1,-9.777509362E-1,-4.042484236E-1,1.086968347E0
3.017831000E0,-3.643572200E-1,-1.665959155E0,-2.320583891E0,2.879806536E0
3.027801000E0,-8.946270646E-1,-1.320565588E0,-2.706415340E0,3.141486121E0
3.037771000E0,-1.092059909E0,-1.901721814E0,6.720842296E-1,2.293651655E0
3.047741000E0,2.715604093E-2,-8.118294677E-1,3.787054467E0,3.873188102E0
3.057711000E0,-1.157512910E0,9.553941071E-1,8.476129657E-1,1.723676819E0
3.067681000E0,-1.111115181E0,8.513850045E-1,-3.882584522E0,4.127214066E0
3.077651000E0,-1.153820101E0,-1.963698207E0,-3.086977277E0,3.836253405E0
3.087621000E0,-1.552327582E0,-4.798742058E0,2.845941015E0,5.791116173E0
3.097591000E0,-1.124954736E0,-3.233189536E0,4.906586934E0,5.982778040E0
3.107562000E0,1.905419374E-1,-2.723846474E-1,2.065655229E0,2.092231142E0
3.117532000E0,-1.582353181E0,6.432290974E-1,-3.775652397E-1,1.749325805E0
3.127502000E0,1.197784000E0,-1.163663158E0,1.024624556E0,1.959248309E0
3.137472000E0,1.369566462E-1,-2.055725780E0,4.594048580E0,5.034883113E0
3.147442000E0,4.287004927E-1,-8.690278083E-2,1.911264178E0,1.960680229E0
3.157412000E0,-2.198201156E-1,1.250076819E0,-1.162435827E0,1.721124629E0
3.167382000E0,-1.615579107E-1,-1.124629777E0,-2.769050714E0,2.993081180E0
3.177352000E0,-1.497278093E0,-3.041262868E0,-4.624960470E-1,3.421260603E0
3.187322000E0,-4.523270812E-2,-1.591236709E0,3.157929146E-1,1.622900314E0
3.197292000E0,-7.210498367E-1,-2.047341165E-1,2.321580257E0,2.439582713E0
3.207262000E0,2.060825575E-2,-6.886593318E-1,1.184774530E0,1.370535320E0
3.217232000E0,-1.212321786E0,8.160909185E-1,-1.776886976E0,2.300664214E0
3.227202000E0,2.764657116E-1,1.863742102E0,-4.677790648E0,5.042984559E0
3.237172000E0,9.487037230E-1,-9.280589586E-1,-7.861499584E-1,1.542518701E0
3.247142000E0,-1.947428695E-1,-2.441316323E0,3.388124671E0,4.180590743E0
3.257112000E0,8.876209308E-1,-1.341357118E-1,4.439121923E0,4.528980764E0
3.267082000E0,8.539935205E-1,3.154607928E0,-3.198415267E-1,3.283771416E0
3.277053000E0,2.136782807E0,2.283330111E0,-1.931464553E0,3.675594167E0
3.287022000E0,2.153473099E0,-5.118640888E-1,6.216818154E-2,2.214343270E0
3.296993000E0,2.270207790E0,-7.670310250E-1,-1.886618748E0,3.049837750E0
3.306963000E0,6.065564572E-1,5.879372415E-1,-1.100889205E0,1.387637552E0
3.316933000E0,1.113750740E0,5.260433528E0,-1.835765514E0,5.681781115E0
3.326903000E0,-3.271449549E-1,5.246186203E0,-1.202812606E0,5.392239948E0
3.336873000E0,1.815002490E0,9.461417654E-1,-2.294866667E0,3.075033544E0
3.346843000E0,2.811572251E0,-3.182667254E0,3.748975645E0,5.664726627E0
3.356813000E0,-1.819423277E-2,9.133289453E-1,4.404376014E0,4.498113923E0
3.366783000E0,-4.704979251E-1,3.997888399E0,-3.079164813E0,5.068109696E0
3.376753000E0,1.283544820E0,5.924410594E0,-9.905928251E0,1.161350691E1
3.386723000E0,2.733103201E0,-5.369694015E-1,-2.363753300E0,3.653151914E0
3.396693000E0,3.657702947E0,-7.347418815E0,2.858338282E0,8.690998322E0
3.406663000E0,2.603993171E0,-4.893344160E0,3.641832435E0,6.632385769E0
3.416633000E0,6.563617245E-1,2.250638036E0,6.839750689E0,7.230378397E0
3.426603000E0,3.588248258E0,-2.559501708E-1,2.811176394E0,4.565495457E0
3.436573000E0,5.357364430E-1,-3.830135583E0,-3.842149272E0,5.451519343E0
3.446543000E0,2.440963151E0,-1.278104863E-1,-6.946637791E0,7.364130174E0
3.456514000E0,1.683768312E0,-5.292738225E0,2.580171615E-1,5.560101304E0
3.466484000E0,-1.292152213E0,-5.057594787E0,5.908310285E0,7.883974429E0
3.476454000E0,-2.617124556E-1,2.117834027E0,6.909585739E0,7.231603520E0
3.486424000E0,-5.334867999E-2,1.423593528E0,-9.861457837E-1,1.732613091E0
3.496394000E0,-2.042737944E0,-2.705099424E0,-6.528451944E0,7.356019711E0
3.506364000E0,-9.635474646E-1,-3.514623334E0,-3.678968686E0,5.178398545E0
3.516334000E0,4.451669464E-1,-3.674302608E0,4.821760792E0,6.078490800E0
3.526304000E0,1.495572314E0,1.355808219E0,3.348116852E0,3.909582961E0
3.536274000E0,-7.004474647E-2,1.311439839E-1,-6.273302257E-2,1.613705151E-1
3.546244000E0,4.373431525E-1,2.375501525E-1,-4.007442457E0,4.038229086E0
3.556214000E0,-7.198780547E-1,-1.799720645E0,6.198680091E-1,2.035056550E0
3.566184000E0,2.813783229E-1,-1.100975744E0,6.323072587E0,6.424372988E0
3.576154000E0,1.936085023E0,1.449723858E0,4.660516804E0,5.250765788E0
3.586124000E0,1.985129275E0,2.044089821E0,1.754272285E0,3.346119048E0
3.596094000E0,4.046767321E-1,1.255230555E-1,-1.567088293E0,1.623356096E0
3.606064000E0,1.039647441E0,-2.473055302E0,-9.635299230E-1,2.850484036E0
3.616034000E0,1.847184103E0,-1.637186761E0,-2.142564826E0,3.268494093E0
3.626004000E0,1.189419777E0,4.580578349E0,-1.463310156E0,4.953553677E0
3.635975000E0,2.562672360E0,5.609833900E0,-1.555897307E0,6.360687262E0
3.645945000E0,1.296631765E0,3.965090489E-1,-1.866935851E0,2.307362744E0
3.655915000E0,-5.155521470E-1,-3.459303412E0,6.202913475E-1,3.552088888E0
3.665885000E0,-1.269087287E0,-5.057190160E0,4.183013878E0,6.684561313E0
3.675855000E0,-4.115530577E-1,2.874931510E0,3.351241019E0,4.434571397E0
3.685825000E0,-1.353761840E0,8.107506564E0,-8.977233700E0,1.217189627E1
3.695795000E0,1.066478560E0,4.770100057E0,-9.929729927E0,1.106755472E1
3.705765000E0,-1.101968455E0,-1.994045256E0,-5.844151127E0,6.272531654E0
3.715735000E0,5.670090334E-1,-3.558818929E0,7.425755718E0,8.254001417E0
3.725705000E0,7.077803848E-1,-1.097741064E0,1.221949724E1,1.228910498E1
3.735675000E0,5.389936345E-1,7.103782296E0,7.198598406E0,1.012788507E1
3.745645000E0,1.095636578E0,6.713288863E0,-5.886048766E0,8.995234124E0
3.755615000E0,-4.500468864E-1,2.367847520E-1,-7.399372496E0,7.416826987E0
3.765585000E0,-9.795009347E-1,-4.999667591E-1,-9.358555775E0,9.422948320E0
3.775555000E0,-1.194374781E0,1.422474664E0,-7.610040659E0,7.833433738E0
3.785525000E0,1.723050930E0,-2.761311047E0,1.978177375E0,3.808796257E0
3.795495000E0,-1.287495929E0,-3.793728187E0,1.369001701E1,1.426417138E1
3.805465000E0,-1.230744170E0,-1.307540623E0,1.174156805E1,1.187808124E1
3.815435000E0,-1.067374207E0,-2.316000259E-1,3.947532470E0,4.095844098E0
3.825405000E0,-2.992089831E0,1.365632126E0,-4.768222516E0,5.792538185E0
3.835376000E0,2.162762278E0,-7.984343737E-1,-8.814960601E0,9.111452602E0
3.845346000E0,1.963351905E0,-2.319333464E0,-2.269364621E0,3.792634204E0
3.855316000E0,3.871856051E0,-3.115259967E0,8.943460182E0,1.023140235E1
3.865286000E0,-3.682226170E0,-2.520344658E0,2.217695115E0,4.982880531E0
3.875256000E0,-4.639543426E0,9.511116064E-1,-4.164638418E0,6.306678178E0
3.885226000E0,-7.460082382E-1,7.752963567E-1,-4.665030854E0,4.787496799E0
3.895196000E0,-1.737948028E0,-5.224950285E0,-3.984740058E0,6.796964187E0
3.905166000E0,9.374387696E-2,-9.375171808E0,2.968140805E0,9.834251074E0
3.915136000E0,8.097585301E-1,-4.689292122E0,2.324673434E0,5.296156725E0
3.925106000E0,-2.038230180E0,-6.846706536E-1,2.487291518E0,3.287822268E0
3.935076000E0,-1.875314326E0,3.206622419E0,6.190380553E0,7.219421206E0
3.945046000E0,-5.031879171E-1,1.072852975E0,3.898287805E0,4.074415221E0
3.955016000E0,-1.809736999E-1,1.756120589E0,2.726461349E0,3.248122918E0
3.964986000E0,3.558852989E-1,4.455866887E0,-2.282806785E0,5.019224131E0
3.974956000E0,2.286292749E-1,-1.795603913E-1,1.388262897E0,1.418374827E0
3.984926000E0,-3.514712797E0,-5.699910257E0,1.508342487E0,6.864202797E0
3.994896000E0,-2.741640721E0,2.164899436E-1,-3.938663998E0,4.803804308E0
4.004866000E0,1.695960780E0,5.957240371E0,-4.734152545E0,7.795973071E0
4.014837000E0,4.741077402E0,6.951428999E0,-4.636237410E0,9.607022296E0
4.024806500E0,3.215098836E0,-1.199315678E0,-2.530309483E0,4.263529606E0
4.034776500E0,1.334128790E0,-4.414239390E0,-1.203209631E0,4.765828620E0
4.044746500E0,5.994841768E-1,-1.083369485E0,2.684578328E0,2.956354431E0
4.054716500E0,-1.323501622E0,2.760452383E0,4.484422057E0,5.429714089E0
4.064686500E0,2.597713262E0,4.530271245E0,-1.653029500E0,5.477588727E0
4.074656500E0,1.806421847E0,3.814175900E0,-9.375992757E0,1.028203958E1
4.084626500E0,8.474726325E-1,7.657156938E-1,-4.241040477E0,4.392146936E0
4.094596500E0,1.316980953E0,-1.692244144E0,6.232199255E0,6.590784219E0
4.104566500E0,1.775900550E0,6.246852377E-1,8.427708864E0,8.635411462E0
4.114536500E0,3.107954821E-1,1.272956974E0,1.210082449E0,1.783623509E0
4.124506500E0,7.694411011E-1,7.385088333E0,-5.469251048E0,9.221945365E0
4.134476500E0,-4.504212543E-2,4.059839649E0,-3.472094196E0,5.342262150E0
4.144446500E0,1.286550581E0,1.296403724E0,-1.889752271E0,2.628124552E0
4.154416500E0,1.654411489E0,-1.427899418E0,-1.553687060E-1,2.190916146E0
4.164386500E0,-2.276368562E-2,-4.231754513E0,-1.158131107E0,4.387428872E0
4.174356500E0,5.186474802E-1,-4.016719065E0,-2.995439701E0,5.037428536E0
4.184326500E0,1.020769340E0,-5.176212573E0,2.652350814E0,5.905091997E0
4.194296500E0,8.363892353E-1,-4.510773119E0,5.378165461E0,7.069037050E0
4.204267500E0,1.047697961E0,-1.916892415E0,6.386808992E0,6.750072344E0
4.214237500E0,3.456638543E0,-8.002633828E-1,3.439607066E0,4.941626075E0
4.224207500E0,-7.132397108E-2,-2.503297394E0,3.378667384E-1,2.527001955E0
4.234177500E0,-1.160653596E0,-4.411373962E0,-7.923620403E-1,4.629813668E0
4.244147500E0,-9.010085696E-1,-6.266779688E-1,1.559852364E0,1.907270593E0
4.254117500E0,-3.426895950E-1,1.213059559E0,1.151019139E0,1.706984097E0
4.264087500E0,2.700004087E-1,-3.947469905E-1,8.463347644E-1,9.721151889E-1
4.274057500E0,-2.206540967E0,-1.320863504E0,2.786128092E-1,2.586721580E0
4.284027500E0,-6.760818978E-1,1.999881947E0,-6.458814529E0,6.795064360E0
4.293997500E0,2.495219611E-1,-9.545255032E-1,-5.086043830E0,5.180851473E0
4.303967500E0,1.157128602E0,-3.421302357E-1,7.587773877E-1,1.425392165E0
4.313937500E0,6.658297554E-2,-9.097098112E-3,4.955769619E0,4.956225234E0
4.323907500E0,-4.622096431E-1,2.250120850E0,2.148262353E0,3.145109335E0
4.333877500E0,8.210888992E-1,2.215761441E0,3.991268474E0,4.638319715E0
4.343847500E0,2.322301949E0,-4.181642121E-1,-1.847508477E0,2.996870906E0
4.353817500E0,1.027880285E0,-1.487135805E0,-3.778213477E-1,1.846851309E0
4.363787500E0,3.808462001E0,-7.343681860E-1,1.624123789E0,4.204932523E0
4.373757500E0,2.862707906E0,3.191370834E0,-5.068308055E-1,4.317038548E0
4.383727500E0,-5.838989351E-2,-2.009887410E0,-1.188218540E0,2.335577033E0
4.393698500E0,1.217287753E0,-8.069236538E-1,4.889201993E-1,1.540116300E0
4.403668500E0,1.680571055E0,3.060496407E0,-2.359403556E0,4.213993648E0
4.413638500E0,6.924318092E-1,6.673811386E0,-7.279610994E0,9.900098811E0
4.423608500E0,2.326367738E-1,1.795577308E0,-5.514877456E0,5.804488875E0
4.433578500E0,1.522093530E0,-5.535421064E0,2.051624250E-1,5.744540599E0
4.443548500E0,-2.226294323E0,-6.206421804E0,7.748184637E0,1.017400723E1
4.453518500E0,3.533150091E-1,4.118539554E0,6.170359687E0,7.427014085E0
4.463488500E0,5.333691247E-2,8.857178668E0,3.107070065E0,9.386497918E0
4.473458500E0,-1.225283601E0,3.615198075E0,-4.439459893E0,5.854893779E0
4.483428500E0,-2.111493891E0,-2.049083050E0,-7.289635461E0,7.861038923E0
4.493398500E0,-7.580032164E-1,-1.319666579E0,-3.422961212E0,3.746031529E0
4.503368500E0,4.578692915E-1,3.046961857E0,-2.772215812E0,4.144731759E0
4.513338500E0,-1.760389422E-1,7.494341218E-1,-5.447611088E-1,9.430831765E-1
4.523308500E0,-5.944818472E-1,-2.444545448E0,5.438532116E0,5.992231862E0
4.533278500E0,2.955217874E-1,-1.551694914E0,6.467430401E0,6.657533044E0
4.543248500E0,2.296872262E0,2.387453234E-1,7.816499412E-2,2.310569472E0
4.553218500E0,1.615150360E0,-2.662938952E-2,-3.690484192E0,4.028534893E0
4.563188500E0,1.041724153E0,-3.972300983E0,1.188275258E0,4.275086245E0
4.573159500E0,-2.236037246E0,-3.777878139E0,6.127466851E-1,4.432570846E0
4.583129500E0,-1.311056262E0,-2.654491772E0,5.298488962E0,6.069528843E0
4.593099500E0,-2.067951869E-2,2.470893879E0,-1.290959966E-1,2.474350415E0
4.603069500E0,-3.195040839E0,1.592597649E0,-4.054107916E0,5.401892652E0
4.613039500E0,-2.360125541E0,-4.406977440E0,-1.293692370E0,5.163843789E0
4.623009500E0,-4.274175040E-1,-3.261231028E0,-5.272323257E-1,3.331109045E0
4.632979500E0,-6.518309364E-1,-2.951511032E0,5.382404693E0,6.173052828E0
4.642949500E0,-2.320635347E0,-9.721946195E-1,9.094870323E-1,2.675383609E0
4.652919500E0,-3.716534415E0,2.209212267E0,-2.543270422E0,5.016121145E0
4.662889500E0,-2.164353744E0,7.183628950E-1,-6.845510781E-1,2.380983527E0
4.672859500E0,-2.198144950E0,-8.328426066E-1,1.942413465E0,3.049334041E0
4.682829500E0,-5.911067247E-1,-2.070592618E-1,1.745501461E0,1.854469209E0
4.692799500E0,-1.453717068E0,-1.400896391E0,2.107623035E0,2.918540537E0
4.702769500E0,-7.617468231E-1,-1.162794846E-1,1.535454857E0,1.717964132E0
4.712739500E0,2.324905934E-1,-8.555412054E-2,1.838182168E0,1.854800546E0
4.722709500E0,-3.487647424E-1,6.331929365E-1,-3.493495590E0,3.567503550E0
4.732679500E0,2.279172302E-1,-9.442463905E-2,-3.433848143E0,3.442698846E0
4.742649500E0,6.789237908E-1,-1.374288344E0,-1.803053266E0,2.366560172E0
4.752619500E0,-4.468349377E-1,-9.291129193E-1,4.842856961E-1,1.139054395E0
4.762590500E0,4.959314494E-1,-9.513066110E-1,-1.475830799E0,1.824557156E0
4.772560500E0,-1.044913809E0,-1.139963223E0,8.266694087E-1,1.753494605E0
4.782530500E0,-9.849998025E-1,1.789533918E0,2.058967184E0,2.900345173E0
4.792500500E0,-4.373930731E-1,2.102747919E0,1.963006189E0,2.909682939E0
4.802470500E0,-1.943952744E0,3.122106764E0,-1.575459752E0,4.001071900E0
4.812440500E0,3.388190306E-1,1.820375642E-1,-2.395521807E0,2.426202947E0
4.822410500E0,7.092067400E-1,2.979182687E0,-5.077457778E0,5.929509354E0
4.832380500E0,-5.752517802E-1,5.356178176E-1,-1.542400764E0,1.731127140E0
4.842350500E0,4.743303364E-2,1.059880927E0,2.163584397E0,2.409708471E0
4.852320500E0,-5.728094713E-1,8.906549048E-1,7.600465844E0,7.673881540E0
4.862290500E0,-1.527058694E0,4.260861661E0,3.845316124E-1,4.542544981E0
4.872260500E0,-2.207249211E0,3.573573208E0,-5.508404004E0,6.927112618E0
4.882230500E0,-8.890008737E-1,-1.759409356E0,-3.173756390E0,3.736117431E0
4.892200500E0,3.414547727E-1,-1.590207307E0,-1.685130714E0,2.342011136E0
4.902170500E0,-3.569531467E-1,-1.040658206E0,2.529489704E0,2.758387792E0
4.912140500E0,5.888369818E-1,7.385159084E-1,3.142662651E0,3.281533677E0
4.922110500E0,-5.165911241E-1,-3.777634603E0,4.982273878E0,6.273790129E0
4.932080500E0,-1.163199620E0,-1.919707265E0,2.219559792E0,3.156700019E0
4.942050500E0,-2.200833207E0,1.939118266E0,-2.885713776E0,4.114752781E0
4.952021500E0,-2.577018504E0,-3.440004384E0,-2.406768342E0,4.926173808E0
4.961991500E0,-1.877599272E0,-1.881126751E0,-6.125496340E-1,2.727495909E0
4.971961500E0,-2.291499987E0,-4.488799283E-1,-1.108800488E0,2.584937891E0
4.981931500E0,-6.781280579E-1,4.806577912E-1,-1.869367123E0,2.045830642E0
4.991901500E0,-1.951023051E0,-7.634498978E-1,-1.716390513E0,2.708383851E0
5.001871500E0,-9.883817589E-1,-1.180426248E0,1.095136714E-1,1.543469427E0
5.011841500E0,5.994342562E-2,-2.582712815E0,3.698993645E0,4.511823654E0
5.021811875E0,-1.430705497E0,-3.787362615E0,3.204498126E0,5.163316961E0
5.031781875E0,4.833655637E-2,7.676145771E-1,2.714375739E0,2.821241609E0
5.041751875E0,-5.124874020E-1,8.985834369E-1,4.751733368E0,4.863030488E0
5.051721875E0,1.241024598E0,3.905795630E0,-9.400328869E-1,4.204645453E0
5.061691875E0,2.109027097E-1,-1.058158337E0,-9.281203544E-1,1.423230976E0
5.071661875E0,8.689517945E-1,-2.873915849E0,4.296504825E-1,3.032996713E0
5.081631875E0,1.923830575E0,-1.126138651E0,-9.115160161E-1,2.408354997E0
5.091601875E0,1.562002093E0,-3.017769048E0,-5.384817839E-2,3.398482042E0
5.101571875E0,3.074412780E0,-1.244076991E-1,3.795059305E0,4.885689957E0
5.111541875E0,2.457649643E0,3.038281665E0,-2.403510273E0,4.587816352E0
5.121511875E0,9.350153180E-1,1.583711928E0,-1.920929040E0,2.659391940E0
5.131482875E0,1.585861072E0,-1.728332282E0,-2.071449235E0,3.129375297E0
5.141452875E0,-1.723667227E0,-6.898311138E-2,8.686506629E-2,1.727232734E0
5.151422875E0,-1.056679211E0,3.417146156E0,-7.606438190E-1,3.656779707E0
5.161392875E0,-2.018582950E0,6.618343529E-1,-2.713871124E0,3.446418187E0
5.171362875E0,-1.355553280E0,-1.092136800E0,-2.489551467E0,3.037787680E0
5.181332875E0,-3.473884906E-1,-6.147838551E-1,9.564097685E-1,1.188847171E0
5.191302875E0,8.277442000E-1,2.422506123E0,-4.615914828E-1,2.601300266E0
5.201272875E0,-7.289481094E-1,3.876665971E0,3.567748212E0,5.318715230E0
5.211242875E0,-2.440730871E-1,2.030608480E0,2.919890751E0,3.564926994E0
5.221212875E0,1.894117656E0,2.834963452E0,-4.036401962E0,5.283676776E0
5.231182875E0,7.264588767E-1,4.882346717E0,-3.124960206E0,5.842125320E0
5.241152875E0,-1.727982326E-1,3.121083794E0,9.687696129E-1,3.272543024E0
5.251122875E0,4.168548378E-1,-1.516867143E0,-1.567954266E-1,1.580898065E0
5.261092875E0,-1.668720064E0,-2.907931149E0,-8.044786406E-1,3.447879943E0
5.271062875E0,-9.822575314E-1,-2.816198860E0,-2.235809789E0,3.727552990E0
5.281032875E0,-5.671767754E-1,-3.273094736E0,2.838764727E-2,3.321994056E0
5.291002875E0,4.855625819E-1,1.202199233E-1,-1.320599502E0,1.412163906E0
5.300972875E0,7.978576190E-1,-3.298302083E0,-3.900426131E-1,3.415773214E0
5.310942875E0,1.293277656E0,-3.623171338E0,6.399116796E-1,3.899926230E0
5.320913875E0,9.056589333E-1,-3.074393777E0,-1.299197524E0,3.458327544E0
5.330883875E0,-5.683156303E-1,-1.155303686E0,2.080589018E0,2.446744761E0
5.340853875E0,3.426109317E-2,-2.446024793E0,2.918244175E0,3.807933846E0
5.350823875E0,-6.374887396E-1,-4.031351137E-1,4.031672149E0,4.101620428E0
5.360793875E0,-2.170884499E0,-1.144332555E0,4.144219356E0,4.816304660E0
5.370763875E0,-2.867419885E0,-1.066028690E0,4.357784815E0,5.324359347E0
5.380733875E0,9.765391007E-1,4.123462325E-1,-3.467153299E-1,1.115288999E0
5.390703875E0,-1.349716736E0,-2.103971449E-1,1.335077793E0,1.910087678E0
5.400673875E0,-5.210249946E-1,2.102463159E0,-5.234521008E-1,2.228412099E0
5.410643875E0,-8.326592964E-1,-2.880358896E-1,-2.364325157E0,2.523156679E0
5.420613875E0,-1.204293632E0,-2.539369744E0,-4.703605521E-1,2.849554509E0
5.430583875E0,-1.765965839E0,-4.288409355E-1,-5.448393445E0,5.743477259E0
5.440553875E0,-2.165288568E0,3.255639043E-1,-5.342535453E0,5.773833346E0
5.450523875E0,-1.914902754E0,-4.466372287E0,5.552386760E0,7.378640301E0
5.460493875E0,1.206467261E0,3.162349641E-2,6.537731475E0,6.648194954E0
5.470463875E0,-1.443650940E0,3.775483412E0,-1.067771745E-1,4.043489136E0
5.480433875E0,-1.483385986E0,1.975577118E0,-1.124342387E0,2.714311098E0
5.490403875E0,-1.209304696E-2,1.086064759E-1,-2.801228526E0,2.803359211E0
5.500374875E0,-2.407217262E0,-6.518230426E-1,-2.775200815E0,3.731126879E0
5.510344875E0,-1.758180710E0,2.523316213E-1,-2.300640793E0,2.906513154E0
5.520314875E0,-7.847131513E-1,2.685124458E0,-1.005470831E0,2.972648596E0
5.530284875E0,-1.506761108E0,1.262699788E0,2.024349913E0,2.821831384E0
5.540254875E0,6.784825453E-1,1.220133812E0,-1.237473730E0,1.865584712E0
5.550224875E0,6.094567858E-1,2.938698028E0,-2.019900182E0,3.617648465E0
5.560194875E0,-9.555231113E-1,4.945577338E0,-2.168448111E0,5.483969988E0
5.570164875E0,-9.779653828E-1,2.825195971E0,-7.762178779E-3,2.989683732E0
5.580134875E0,5.439862065E-2,7.567370018E-1,2.148795619E0,2.278800718E0
5.590104875E0,-1.777979857E-1,-1.884876278E-1,4.851162347E0,4.858077379E0
5.600074875E0,-2.696286354E-1,1.967090469E0,8.132389390E-1,2.145577332E0
5.610044875E0,3.304718013E-1,2.325722132E0,-4.275126235E0,4.878001576E0
5.620014875E0,-1.683953669E0,1.259645787E0,-5.712031535E0,6.086847437E0
5.629984875E0,-1.163817744E0,-5.572925690E0,5.041514359E0,7.604527567E0
5.639954875E0,6.554604493E-1,-4.648034168E0,8.869956003E0,1.003543569E1
5.649924875E0,-1.009401988E0,2.367882603E0,-3.863477576E-1,2.602887817E0
5.659894875E0,-1.554378201E0,3.278114571E0,-5.429329768E0,6.529911826E0
5.669864875E0,-8.175538187E-1,-3.056838974E0,7.096508360E-1,3.242878824E0
5.679834875E0,-2.642465219E0,-3.715306792E0,2.303466752E0,5.108041315E0
5.689805875E0,5.632874999E-2,-3.284044232E0,3.420273247E0,4.741981499E0
5.699775875E0,5.248799543E-1,1.005879844E0,-6.611019892E-1,1.313144724E0
5.709745875E0,-6.908884549E-2,1.035452430E0,-4.026664009E0,4.158239777E0
5.719715875E0,6.474436243E-1,-3.633010740E0,-3.237358893E0,4.909016489E0
5.729685875E0,9.508588605E-1,-3.135242534E0,1.742113584E0,3.710638498E0
5.739655875E0,-3.364035093E-1,-2.479109217E0,5.635262856E0,6.165657895E0
5.749625875E0,-5.588971546E-1,1.984990550E0,3.537477762E-1,2.092293240E0
5.759595875E0,8.942625638E-1,9.327095416E-1,-1.843715388E0,2.251430446E0
5.769565875E0,1.305682086E0,-4.225831284E0,-1.332209734E0,4.619224883E0
5.779535875E0,2.796979245E-1,-3.398196500E0,1.822694063E-1,3.414555977E0
5.789505875E0,1.961122070E0,1.493111952E0,-1.007007480E-2,2.464849789E0
5.799475875E0,1.701681842E0,1.334557391E0,5.098425309E0,5.538113862E0
5.809445875E0,4.513361243E-1,-1.823376726E0,4.029667139E0,4.445967187E0
5.819415875E0,3.130840750E0,-3.427009532E0,4.468073827E-1,4.663281567E0
5.829385875E0,7.363593091E-1,1.080462834E0,-1.783986080E0,2.211838896E0
5.839355875E0,6.960417339E-1,2.001493439E0,4.155838358E-1,2.159435113E0
5.849325875E0,7.610072234E-1,3.744533515E0,-3.040113013E0,4.882924367E0
5.859295875E0,-5.177204407E-1,-5.769137782E-1,-3.642904814E0,3.724462303E0
5.869265875E0,5.360087040E-1,-1.470430018E0,-3.148468936E0,3.516010013E0
5.879235875E0,1.127256054E0,3.382021932E0,-5.535692959E0,6.584274835E0
5.889206875E0,-2.329986251E-1,7.136555940E-2,-3.246287591E0,3.255420791E0
5.899176875E0,-1.697550492E0,-5.139521295E-1,8.769515457E0,8.947079177E0
5.909146875E0,-1.542404857E-1,2.207507219E0,6.583797010E0,6.945736916E0
5.919116875E0,4.660263035E-1,4.940878515E0,-1.012630747E0,5.065064861E0
5.929086875E0,1.305732957E-1,6.415736922E0,-7.069270275E0,9.547424358E0
5.939056875E0,1.092169252E0,2.466320187E0,-6.072264458E0,6.644393470E0
5.949026875E0,9.495941077E-1,-1.632299366E0,5.657935435E-1,1.971358040E0
5.958996875E0,-2.834328152E-3,-1.045062036E0,6.218040222E0,6.305250740E0
5.968966875E0,-2.134049526E-1,2.628293907E0,1.168637384E0,2.884299546E0
5.978936875E0,-6.149545938E-2,7.807342672E-1,-2.468792097E0,2.590031294E0
5.988906875E0,-6.779191661E-1,-3.731688936E0,-3.783229803E0,5.357042510E0
5.998876875E0,-8.076168412E-1,-5.384500920E0,7.823399127E-1,5.500650039E0
6.008846875E0,1.441876748E0,-3.910723078E-1,2.235789324E0,2.688996097E0
6.018817250E0,-4.776736647E-3,-1.404293624E-1,4.174475774E0,4.176839859E0
6.028787250E0,1.998951435E-1,-2.231636339E0,1.144948559E0,2.516160969E0
6.038757250E0,-1.280847791E0,-3.862061088E0,2.822948009E0,4.952284561E0
6.048727250E0,-9.517567004E-1,-4.634936112E0,1.689695050E0,5.024295269E0
6.058697250E0,1.737507440E0,4.573587418E0,-5.850817537E-1,4.927367922E0
6.068667250E0,-3.876201482E-1,-2.246959260E-1,1.238068392E0,1.316643833E0
6.078637250E0,-1.783133995E-2,-4.629889673E0,3.309798878E-1,4.641739332E0
6.088607250E0,-5.807348240E-1,1.668707639E-1,3.313821178E0,3.368458043E0
6.098577250E0,-1.845432423E0,4.683668270E0,-1.250463905E0,5.187102203E0
6.108548250E0,-3.715174645E-2,5.172845162E0,-3.087631581E0,6.024381802E0
6.118518250E0,1.092930486E-1,-1.635279399E0,-1.590549077E0,2.283841074E0
6.128488250E0,-8.134067541E-1,-9.572891312E0,2.734384326E0,9.988930687E0
6.138458250E0,-5.554273072E-1,-4.083824050E0,4.155705627E0,5.852863199E0
6.148428250E0,-1.121562913E0,5.064748271E0,1.958454716E-1,5.191139938E0
6.158398250E0,-1.881267377E0,6.860853875E0,-3.848453155E0,8.088329526E0
6.168368250E0,8.558260744E-2,-5.516324642E-1,-3.507016107E0,3.551166672E0
6.178338250E0,-3.039327696E-1,-3.133798564E0,-1.715621020E0,3.585585594E0
6.188308250E0,-1.022962412E0,-2.139442998E0,3.649301668E0,4.352134085E0
6.198278250E0,1.211986229E0,1.873694063E0,1.043081877E0,2.463262037E0
6.208248250E0,1.016365802E0,4.206694517E-1,1.264390218E0,1.675901207E0
6.218218250E0,-1.105432053E0,-3.768167961E-1,-2.838169481E0,3.069067761E0
6.228188250E0,-4.100134858E-1,1.691796832E0,-3.991287770E0,4.354384645E0
6.238158250E0,-4.145999322E-1,3.818766257E0,-5.625749436E0,6.812042685E0
6.248128250E0,-4.999599252E-1,1.468760346E0,-5.271711638E0,5.495285295E0
6.258098250E0,2.099203921E0,-3.194130135E0,6.845557559E-1,3.883006697E0
6.268068250E0,1.930203455E0,-2.046205051E0,3.949290728E0,4.848663501E0
6.278038250E0,3.217262013E0,1.422781350E0,4.612475495E0,5.800863024E0
6.288008250E0,2.079598207E0,4.352771120E0,1.728240480E0,5.124271683E0
6.297978250E0,-1.469175059E0,6.349055859E-1,-2.764026201E0,3.193966390E0
6.307948250E0,-1.414588524E0,-1.537727962E0,-3.493980909E0,4.071065041E0
6.317918250E0,-1.488352282E-1,-1.125259522E0,-4.545719004E-1,1.222700507E0
6.327889250E0,7.043165673E-1,-1.026726045E0,1.244261763E0,1.760231670E0
6.337859250E0,-2.299374286E0,-5.809115195E-1,4.906022093E0,5.449186460E0
6.347829250E0,-1.394364174E0,2.468926291E0,-2.541591686E-1,2.846830758E0
6.357799250E0,-8.430269945E-1,-1.479970335E0,-1.958882148E0,2.595809310E0
6.367769250E0,5.735647123E-1,-3.781776186E0,2.846161455E-1,3.835598252E0
6.377739250E0,7.977096844E-2,-3.966944349E0,6.020002044E0,7.209953917E0
6.387709250E0,-1.239278327E0,1.841097005E0,3.750015280E0,4.357529524E0
6.397679250E0,-2.672732746E0,6.587774286E-1,-1.687880659E0,3.228998166E0
6.407649250E0,-1.281528590E-1,3.629416457E-1,-2.460504838E0,2.490428448E0
6.417619250E0,1.005103571E-1,-3.758479709E0,-1.542073905E0,4.063774598E0
6.427589250E0,1.373704061E0,-1.669662489E0,-7.688100404E-1,2.294755881E0
6.437559250E0,1.119081647E0,-2.353357243E0,7.599043216E0,8.033435868E0
6.447529250E0,-2.419921544E-1,-6.084039581E-1,5.849030043E0,5.885564376E0
6.457499250E0,-1.092010939E0,1.273580872E0,2.978248302E0,3.418253805E0
6.467469250E0,-7.071261545E-1,4.570495703E0,-4.924633196E0,6.755847133E0
6.477439250E0,-6.181837186E-1,1.493960676E-1,-5.262119865E0,5.300412793E0
6.487409250E0,2.735502899E0,-1.390354154E0,-1.757903990E0,3.536422941E0
6.497379250E0,-4.705762412E-1,-2.709614059E0,-1.966735543E0,3.381049991E0
6.507349250E0,1.330485536E0,5.034455600E-1,-1.292928139E0,1.922319528E0
6.517319250E0,2.166008652E0,1.739716226E-1,-2.014576292E-1,2.182302634E0
6.527289250E0,-1.994636994E0,-2.094860025E0,-1.861531270E-1,2.898563135E0
6.537259250E0,7.459529820E-1,7.913364387E-1,-2.322446229E0,2.564452320E0
6.547230250E0,1.302595779E0,2.162468748E0,-6.356098831E-2,2.525285499E0
6.557199250E0,-1.693940567E0,1.128631319E0,3.689236397E-1,2.068658491E0
6.567170250E0,-2.004115769E0,-3.769007036E-1,-2.400893059E0,3.150051054E0
6.577140250E0,4.892050318E-1,-3.475386178E-1,-4.178348384E0,4.221220188E0
6.587110250E0,-3.497496694E-1,1.625050280E0,3.834405220E-1,1.705913210E0
6.597080250E0,2.639269241E-1,4.229354816E0,2.484409425E0,4.912167523E0
6.607050250E0,1.188228042E0,1.540854760E0,-1.140721607E0,2.255518800E0
6.617020250E0,-1.369010940E0,-5.890657541E-1,-2.986985212E0,3.338153692E0
6.626990250E0,-1.481260962E0,2.628925407E0,-4.728108863E0,5.608956788E0
6.636960250E0,-5.667764604E-1,5.152006270E0,-1.707397496E0,5.457069760E0
6.646930250E0,7.811894730E-2,-3.113642335E-1,5.911948423E0,5.920657431E0
6.656900250E0,1.999063190E0,-3.977608793E0,1.062142981E1,1.151661394E1
6.666870250E0,-1.585410544E0,-2.918666344E0,7.914322160E0,8.583043463E0
6.676840250E0,9.351272191E-1,1.137924007E0,-3.157402897E-1,1.506328614E0
6.686810250E0,1.000033725E0,-4.573089820E-1,-2.202072524E0,2.461365954E0
6.696780250E0,2.166457134E0,-1.513548848E0,-2.155011794E0,3.410050214E0
6.706750250E0,6.533134248E-2,-4.190535151E0,4.084627458E0,5.852267467E0
6.716720250E0,1.505359238E0,-3.374393070E0,5.148030163E0,6.336785430E0
6.726690250E0,8.314579859E-1,-2.328697488E0,9.722451979E-1,2.656955983E0
6.736660250E0,1.595672846E0,3.270143062E-1,-7.254479077E0,7.435090912E0
6.746630250E0,7.392522191E-1,-6.274667582E-1,-7.439238812E0,7.502165186E0
6.756600250E0,9.975325783E-1,-1.194130075E0,-2.803539931E0,3.206377087E0
6.766570250E0,-1.147190455E0,-3.227715957E0,6.100479612E0,6.996431072E0
6.776540250E0,-3.227551943E0,-3.954399733E0,6.283256557E0,8.095287626E0
6.786511250E0,-9.760191371E-1,2.098443783E0,3.937783992E0,4.567518192E0
6.796481250E0,-3.353333226E-1,3.251054242E0,-5.727113843E-1,3.318101935E0
6.806451250E0,-1.057635596E0,1.759760481E-1,-5.144563934E0,5.255102158E0
6.816421250E0,-4.671011679E-2,-2.578326818E0,-3.501995687E0,4.349014235E0
6.826391250E0,2.545306861E-1,-3.365502378E0,-2.327022260E0,4.099563968E0
6.836361250E0,-9.181597687E-1,-1.416818652E0,2.142908642E0,2.728085391E0
6.846331250E0,-6.471588649E-2,4.448163765E0,-2.677903147E0,5.192447813E0
6.856301250E0,4.526330367E-1,5.169284792E0,-3.140890360E-2,5.189158742E0
6.866271250E0,-2.392070196E0,2.875679661E0,3.369986608E0,5.034713803E0
6.876241250E0,-4.735513411E-1,-1.617163556E0,6.139046677E0,6.366110504E0
6.886211250E0,1.198881376E0,-1.500223044E-1,-6.903731507E-1,1.391559677E0
6.896181250E0,3.248215418E0,4.356124790E0,-7.687805704E0,9.414302052E0
6.906151250E0,-1.986769493E-1,3.498926484E0,-7.775377114E0,8.528683857E0
6.916121250E0,2.091523457E-1,-3.419531236E0,2.501988494E-1,3.435045566E0
6.926091250E0,2.014313533E-1,-1.478214709E0,8.387609244E0,8.519253614E0
6.936061250E0,-1.777434421E-1,3.841302010E0,5.782699814E0,6.944552614E0
6.946031250E0,-4.310187310E-2,1.856893550E0,-5.472735988E0,5.779338252E0
6.956001250E0,9.461417654E-1,5.798291999E-1,-8.195690178E0,8.270472999E0
6.965971250E0,-3.174924371E0,9.499211133E-1,-4.902580422E-1,3.350051915E0
6.975941250E0,-7.915378021E-1,1.452336394E0,3.947937098E0,4.280422925E0
6.985911250E0,7.313872024E-1,5.589694920E0,9.249587649E-1,5.712719602E0
6.995881250E0,-6.031637930E-1,1.010936516E0,-4.009613528E0,4.178851499E0
7.005852250E0,1.179215143E0,-6.655109067E0,-1.310856872E0,6.884720095E0
7.015822250E0,1.713827825E0,-2.302530028E0,-7.352107698E-1,2.963002737E0
7.025792125E0,-2.152234001E-1,-1.052288902E0,6.146547486E0,6.239685812E0
7.035762125E0,2.094908264E0,-1.450596263E0,3.037314536E0,3.964612181E0
7.045732125E0,9.529684628E-1,-1.614402501E0,-6.039238214E-2,1.875657635E0
7.055702125E0,5.221785406E-1,-2.592424748E0,-1.077678682E0,2.855648410E0
7.065672125E0,7.945607395E-1,-1.265802906E0,2.139612567E0,2.609889979E0
7.075642125E0,1.065366639E0,-4.298036796E-1,-3.738124967E-2,1.149406210E0
7.085612125E0,-1.236556156E0,-2.224375559E0,-3.970576347E0,4.716184293E0
7.095582125E0,-1.924249601E-1,-4.520947567E0,3.122450581E0,5.497789728E0
7.105552125E0,4.642860990E-2,-2.512187208E0,5.723847588E0,6.251053623E0
7.115522125E0,1.962708931E-1,5.654554574E0,-9.997721350E-1,5.745611719E0
7.125492125E0,-1.928943526E0,4.449466525E0,-2.332598165E0,5.381411496E0
7.135462125E0,-2.290152204E0,-8.874003446E-1,-3.743823078E0,4.477553766E0
7.145432125E0,5.844783942E-1,-3.753697856E0,-2.099912896E0,4.340679297E0
7.155402125E0,-6.859648252E-2,-2.570878927E0,-9.646280301E-1,2.746749201E0
7.165372125E0,1.611675652E0,-2.916079536E-1,2.035200591E0,2.612388763E0
7.175342125E0,1.876584926E0,1.967684254E0,3.775755892E0,4.652922186E0
7.185312125E0,1.489533602E0,-2.486077636E0,4.399335714E0,5.268154049E0
7.195282125E0,1.796958713E0,-2.232709303E0,-6.467166692E-1,2.938076564E0
7.205252125E0,3.865526148E0,4.669867086E-1,-2.954299861E-1,3.904823666E0
7.215222125E0,1.898476463E0,8.973028967E-1,2.316752796E0,3.126772919E0
7.225193125E0,-1.088226182E0,2.648893940E-1,1.994519758E0,2.287468399E0
7.235163125E0,9.100891493E-1,1.525629196E0,-2.213190420E0,2.837960278E0
7.245133125E0,2.924415290E-1,1.941361551E0,-3.237275863E-1,1.989775432E0
7.255103125E0,-1.780954299E0,5.913411981E-1,1.326777670E0,2.298221402E0
7.265073125E0,-4.280834287E-1,1.335912191E0,1.867811179E0,2.335944221E0
7.275043125E0,-2.051822032E0,2.513552240E0,-4.464502932E0,5.519031161E0
7.285013125E0,-5.197745676E-1,4.357452693E0,-9.024033644E0,1.003447770E1
7.294983125E0,-1.652559091E0,2.034278485E0,-2.805339704E0,3.839162846E0
7.304953125E0,-2.456483123E0,-2.260970066E0,2.964496821E0,4.464810900E0
7.314923125E0,-1.228039394E0,1.270404664E0,5.514753495E0,5.790899315E0
7.324893125E0,-8.447664680E-1,3.676720431E0,1.726022047E-1,3.776465946E0
7.334863125E0,-8.710745531E-1,1.173319542E0,-2.054345545E0,2.521068274E0
7.344833125E0,-1.536419940E0,2.306694415E-1,-5.576039332E0,5.788437549E0
7.354803125E0,-5.439379670E-1,-2.271488330E-1,-3.298496795E0,3.350753081E0
7.364773125E0,5.993415047E-1,-3.667449086E0,3.713723366E0,5.253678167E0
7.374743125E0,1.458520702E0,-2.949314525E0,6.425664909E0,7.219065614E0
7.384713125E0,-4.839448766E-1,9.384386435E-1,6.125753617E-1,1.220704020E0
7.394683125E0,-2.579928371E0,-3.366341454E-1,-4.322941257E0,5.045510287E0
7.404653125E0,1.137370604E-1,-3.598662441E0,-2.488289053E0,4.376629970E0
7.414623125E0,9.732064071E-1,-4.007200382E0,3.174115993E0,5.203825319E0
7.424593125E0,1.710016317E0,-2.651126700E0,4.682988238E0,5.646504000E0
7.434563125E0,-7.141439096E-1,-1.512621772E0,2.173755628E0,2.742852472E0
7.444534125E0,-7.262705232E-1,1.078703114E0,1.080435644E0,1.690683431E0
7.454504125E0,-1.685385506E0,-2.432716531E0,5.516157997E0,6.259922768E0
7.464474125E0,-1.905886201E0,-3.854878953E0,4.632623246E0,6.320893299E0
7.474444125E0,-1.041625993E0,2.219872034E-1,8.153748100E0,8.223008641E0
7.484414125E0,-2.228252409E0,1.041192934E0,1.980339675E0,3.157679014E0
7.494384125E0,-2.182930202E0,-3.388169110E-1,-1.085642005E0,2.461422298E0
7.504354125E0,-5.987932917E-1,9.232519627E-1,-1.424332032E0,1.799908145E0
7.514324125E0,7.983664729E-1,2.612480405E0,-4.369290966E0,5.152974523E0
7.524294125E0,-3.381844981E-1,-2.152043455E0,-4.508671045E-1,2.224621526E0
7.534264125E0,1.824587830E-1,-4.618858316E0,4.049220228E-1,4.640162195E0
7.544234125E0,-6.517066830E-1,-1.976824914E0,7.200444372E0,7.495262337E0
7.554204125E0,-1.153401221E0,3.859673962E0,1.442071314E0,4.278666515E0
7.564174125E0,-1.628201345E0,7.177265425E0,-5.514571062E0,9.196448912E0
7.574144125E0,1.333349356E0,1.668065030E0,-6.457533989E0,6.801470919E0
7.584114125E0,4.657405939E-1,-1.591677297E0,-8.286905572E0,8.451222094E0
7.594084125E0,1.803755516E0,-1.969747151E0,-9.118725793E0,9.501820768E0
7.604054125E0,2.155336607E0,-1.626871688E0,-7.184715362E0,7.675436288E0
7.614024125E0,1.009031713E0,1.787889389E0,-2.888732693E0,3.543934260E0
7.623994125E0,-8.012276069E-2,1.367448856E0,5.365575821E0,5.537665566E0
7.633964125E0,1.805125080E0,5.320975015E0,3.671937409E0,6.712255656E0
7.643935125E0,5.748840635E-1,4.435301060E0,-2.041387530E0,4.916263849E0
7.653905125E0,-1.793584870E0,2.864615560E0,-3.401904219E-1,3.396865984E0
7.663875125E0,1.037792047E0,4.021767551E-1,1.887688789E0,2.191375695E0
7.673845125E0,3.651611903E0,3.609498501E0,1.411799110E0,5.325028230E0
7.683815125E0,2.408868369E0,2.807071064E0,2.324681035E0,4.368802661E0
7.693785125E0,1.685589866E0,-6.918945962E-1,2.658225512E0,3.222746376E0
7.703755125E0,5.170082498E-1,-2.966633978E0,-1.282413676E0,3.273041327E0
7.713725125E0,3.753018556E-1,-3.371275627E0,-1.379304963E0,3.661807343E0
7.723695125E0,-1.872977377E-1,-1.385441323E0,-3.253342842E0,3.541012249E0
7.733665125E0,-2.729682288E0,-4.885444280E0,1.398983182E0,5.768525388E0
7.743635125E0,2.479892780E-1,-6.416383039E0,6.486103485E0,9.126938611E0
7.753605125E0,5.375431596E-1,-7.126839037E0,6.881250132E0,9.921309928E0
7.763575125E0,-4.588294774E-1,-5.731119770E0,3.102603961E0,6.533177608E0
7.773545125E0,2.447230489E0,-1.757149699E-1,6.583947283E-1,2.540333922E0
7.783515125E0,-7.951085506E-1,-2.168262462E0,-8.545471787E-2,2.311030553E0
7.793485125E0,-1.934335500E-1,-2.727650380E0,4.964601839E-1,2.779202377E0
7.803455125E0,-1.127583352E0,7.584101826E-2,-1.713211967E0,2.052386737E0
7.813425125E0,-9.973526303E-1,-8.345716283E-1,3.187794970E0,3.442856204E0
7.823395125E0,2.072459926E0,2.540048313E0,-6.581468064E-1,3.343664576E0
7.833365125E0,8.471446037E-1,2.573242957E0,-1.784773116E0,3.244171445E0
7.843335125E0,8.903245372E-1,9.179453221E-1,-2.386673800E0,2.707676721E0
7.853306125E0,2.088162332E0,-8.178301728E-1,-2.768909211E0,3.563162406E0
7.863276125E0,-4.817867789E-1,-7.536321303E-1,-1.211844800E0,1.506203076E0
7.873246125E0,8.143303949E-2,1.182171642E0,6.248814118E-1,1.339640963E0
7.883216125E0,1.156016462E0,1.070700030E0,7.273293078E-1,1.735448223E0
7.893186125E0,1.230406639E0,2.281732652E0,-1.464193670E0,2.977258386E0
7.903156125E0,6.051681820E-2,-1.611626827E0,-7.776615554E-1,1.790463854E0
7.913126125E0,-9.558982833E-1,1.119572521E0,-2.057324701E0,2.529776489E0
7.923096125E0,-8.005123280E-2,6.392550373E-1,-1.070952045E0,1.249797378E0
7.933066125E0,7.382141190E-1,-1.332817259E-1,1.239086393E0,1.448467877E0
7.943036125E0,-1.171699498E0,2.111748245E-1,2.278938852E0,2.571193655E0
7.953006125E0,-7.660280813E-1,2.869536869E0,-9.768416941E-2,2.971629698E0
7.962976125E0,-4.467122924E-1,7.299751729E0,-4.893369303E0,8.799488071E0
7.972946125E0,-9.057599439E-1,2.024249633E0,1.009563298E0,2.436638198E0
7.982916125E0,-1.524250130E0,-1.465139457E0,2.975674358E0,3.650289026E0
7.992886125E0,-1.325338817E0,1.247801375E0,4.725168883E0,5.063669837E0
8.002856125E0,2.265951747E0,5.436477989E0,-4.469590010E0,7.393717949E0
8.012826125E0,2.730735956E0,5.070915914E0,-8.644993737E0,1.038783056E1
8.022795875E0,4.313864112E-1,8.306554556E-1,-2.132498260E0,2.328869157E0
8.032765875E0,7.121462815E-1,-4.970863037E0,2.374876458E0,5.554878023E0
8.042735875E0,2.538142706E0,-3.580530518E0,4.096604310E0,6.003710024E0
8.052706875E0,4.478193018E0,8.794583640E-1,2.592542569E0,5.248708098E0
8.062676875E0,1.038418064E0,-3.598971759E0,4.478464329E0,5.838454637E0
8.072646875E0,1.839583015E0,-4.257408295E0,-1.235884457E0,4.799687641E0
8.082616875E0,4.202967647E-1,-9.765048945E-1,-3.157141526E0,3.331329134E0
8.092586875E0,-1.458967429E0,-1.011016623E0,-1.533631110E0,2.345797296E0
8.102556875E0,-8.405355690E-1,-3.341983415E0,4.223867789E0,5.451276207E0
8.112526875E0,-1.602953360E0,-4.055430848E0,7.181351459E0,8.401653862E0
8.122496875E0,-1.495820821E0,2.874198854E-1,3.309286662E0,3.643002653E0
8.132466875E0,-3.685893982E-1,3.722568449E0,6.384317493E-1,3.794860881E0
8.142436875E0,-1.015586514E0,2.853088359E0,1.833744716E0,3.540359987E0
8.152406875E0,-8.984345522E-1,-3.288898006E-1,3.317616606E-1,1.012629718E0
8.162376875E0,1.610104651E-1,-5.868636927E-1,-4.186621025E0,4.230618037E0
8.172346875E0,-1.643779131E-1,-1.336401018E0,-4.882851917E-1,1.432274487E0
8.182316875E0,1.130807068E0,5.452542629E0,-5.682848082E0,7.956362741E0
8.192286875E0,8.429944693E-1,-3.257600784E-2,-2.191279149E0,2.348064135E0
8.202256875E0,-2.522237987E0,-6.134171269E0,3.316360624E0,7.415388689E0
8.212226875E0,-2.138399270E0,-7.389799435E0,4.617832130E0,8.972528111E0
8.222196875E0,-1.783877614E0,1.777999409E0,-2.770960414E-1,2.533827827E0
8.232166875E0,5.262466678E-1,4.764567129E0,-1.562394733E0,5.041737080E0
8.242136875E0,3.579674559E-1,1.061886522E0,2.001475605E0,2.293828303E0
8.252107875E0,-2.701193995E-1,-2.109323990E0,3.436724389E-1,2.154140880E0
8.262077875E0,-1.554260818E0,5.786103478E-1,3.517293173E-1,1.695355460E0
8.272047875E0,-2.215446422E-1,-1.400498781E-1,-1.011230339E0,1.044644818E0
8.282017875E0,1.075062126E0,-2.401412000E0,-4.243194006E0,4.992718051E0
8.291987875E0,1.201974115E0,-1.120245827E0,-7.496820438E-1,1.806022052E0
8.301957875E0,7.447133723E-1,2.720998880E0,1.831950206E-1,2.827011378E0
8.311927875E0,1.859269493E-1,7.642727180E0,6.376511461E-1,7.671534824E0
8.321897875E0,1.139985589E0,5.074495579E0,-7.091240019E-1,5.249088433E0
8.331867875E0,2.113587779E0,5.760241243E-1,-1.720642608E0,2.785618078E0
8.341837875E0,1.479119273E0,8.417908931E-1,-2.946696727E0,3.402855761E0
8.351807875E0,1.117616700E-1,5.280750849E0,-2.311649930E0,5.765634882E0
8.361777875E0,-1.582344995E-1,1.125459205E0,-6.461734629E-1,1.307377804E0
8.371747875E0,1.345988259E0,-4.422886252E0,6.447958589E-1,4.667908407E0
8.381717875E0,2.399371468E0,-2.806573758E0,3.153530286E0,4.855779337E0
8.391687875E0,5.827625653E-1,1.474874487E0,2.884986967E0,3.292114329E0
8.401657875E0,2.018987285E0,1.756233148E0,2.992962821E0,4.014784051E0
8.411627875E0,8.369040826E-1,-3.799421621E0,2.407070643E-1,3.897942148E0
8.421597875E0,-1.090823296E-1,-3.731812313E0,-9.709330827E-1,3.857594217E0
8.431567875E0,-3.992731009E-1,-2.138540480E0,-2.721353806E0,3.484040891E0
8.441537875E0,-3.513438981E0,-4.449515057E0,3.313507767E0,6.566716945E0
8.451508875E0,-8.486463149E-1,-2.261532860E0,2.898717399E0,3.773233892E0
8.461478875E0,1.072392799E0,-3.273598766E0,1.549584069E0,3.777259057E0
8.471448875E0,4.646663142E-1,-1.683136813E0,-2.740819772E0,3.249762659E0
8.481418875E0,-9.958587398E-1,-4.024910429E-1,-7.203220046E-1,1.293289395E0
8.491388875E0,-3.680510524E-1,2.614576632E-1,3.975246518E0,4.000800741E0
8.501358875E0,-1.292272483E-1,-1.748339700E0,4.331879895E0,4.673176095E0
8.511328875E0,6.928528087E-1,-1.550727492E0,1.354328581E0,2.172327478E0
8.521298875E0,6.817335241E-1,-5.180916658E-1,-2.033018410E-2,8.565003727E-1
8.531268875E0,1.023379683E0,6.395517835E-1,-2.521141634E0,2.795082754E0
8.541238875E0,2.739826184E-2,-1.537373036E0,-2.086487689E0,2.591852116E0
8.551208875E0,4.792691140E-1,-2.841861997E0,-3.902244616E-1,2.908290499E0
8.561178875E0,-7.304159068E-3,-1.419762433E0,1.925880463E0,2.392654232E0
8.571148875E0,1.275471423E0,2.367168366E0,-4.987674952E-4,2.688924259E0
8.581118875E0,1.141759415E0,4.097125881E0,1.670064193E-1,4.256518083E0
8.591088875E0,3.628418776E-1,-2.951630900E0,2.430927283E-1,2.983768300E0
8.601058875E0,1.619281271E0,-3.870973706E-1,-1.856782746E0,2.493904243E0
8.611028875E0,1.503647465E0,1.127910650E0,-2.044455564E0,2.777217436E0
8.620998875E0,-2.072122396E-1,-3.495126379E-1,1.485996768E0,1.540546134E0
8.630968875E0,4.212831169E-1,5.577606386E-1,1.966823836E0,2.087336196E0
8.640939875E0,-7.198380744E-1,4.594525420E0,-4.027156345E0,6.151895555E0
8.650909875E0,-2.899660006E-1,5.123065476E0,-4.797208918E0,7.024463934E0
8.660879875E0,-6.199403684E-1,2.405347761E0,-6.928541243E-2,2.484919391E0
8.670849875E0,-3.299328269E0,-2.358344625E0,4.764811251E0,6.257058626E0
8.680819875E0,-1.032165417E0,2.749108785E0,4.110171604E-1,2.965113769E0
8.690789875E0,2.303125238E-1,7.345020288E0,-2.073452491E0,7.635546616E0
8.700759875E0,-4.691960791E-1,4.191254359E0,-2.240852428E0,4.775790790E0
8.710729875E0,-1.520635089E0,-1.826436574E0,-8.458547080E-1,2.522631923E0
8.720699875E0,-1.254699774E0,-5.207988097E0,2.696596110E0,5.997419622E0
8.730669875E0,7.146127101E-1,-7.650131509E-1,-2.025128177E0,2.279706249E0
8.740639875E0,-9.422819087E-2,-2.415630966E-2,2.138163042E-1,2.349040042E-1
8.750609875E0,8.699484524E-1,-8.156620252E-1,7.855488646E-1,1.428006256E0
8.760579875E0,9.208290227E-2,-3.201072242E0,3.632999046E0,4.842935559E0
8.770549875E0,-6.010853637E-2,-5.171564037E0,2.555538465E0,5.768835625E0
8.780519875E0,7.414501143E-1,7.518107226E-1,-3.220354021E-2,1.056411238E0
8.790489875E0,3.184870923E-1,1.315767071E0,-3.907701822E0,4.135554442E0
8.800459875E0,-7.341062307E-1,-3.142597162E0,-3.852409966E0,5.025523995E0
8.810429875E0,-2.283489009E0,-5.562228794E0,4.660716194E-1,6.030749038E0
8.820400875E0,-2.904430713E0,-6.027663651E-1,5.373488274E0,6.137867813E0
8.830370875E0,-7.894132894E-1,2.046789188E0,4.759932334E0,5.241133002E0
8.840340875E0,-1.236485551E0,-4.998726189E-1,8.955525327E-1,1.606481712E0
8.850310875E0,-1.796559348E0,-4.972230701E0,1.019856151E0,5.384311488E0
8.860280875E0,-3.127201736E0,-7.374283263E-1,-3.036903477E-1,3.227292838E0
8.870250875E0,1.234238868E-1,1.708143893E0,-1.863033419E0,2.530589365E0
8.880220875E0,-1.719344234E0,1.108653430E0,-7.675438843E0,7.943400937E0
8.890190875E0,-4.236746281E-1,-4.981410245E0,-3.968233368E0,6.382853929E0
8.900160875E0,-1.512989123E0,-6.481005882E0,1.810038350E0,6.897014728E0
8.910130875E0,-2.224103079E0,-1.219640307E0,1.097809125E1,1.126732642E1
8.920100875E0,7.115352474E-2,4.517943268E0,6.743096799E0,8.117033241E0
8.930070875E0,-4.213533566E-1,5.187059158E0,-9.728427833E-1,5.294293573E0
8.940040875E0,-1.253051188E-1,-9.376364055E-1,-5.318195833E0,5.401672919E0
8.950010875E0,1.834364959E0,-9.246968096E-1,-3.506127330E0,4.063605277E0
8.959980875E0,1.862515794E0,2.258114870E0,-1.658242877E0,3.364196381E0
8.969950875E0,2.040631485E0,1.842006832E0,-1.443469384E0,3.104958919E0
8.979920875E0,1.330594879E0,8.134204951E-1,-3.343379438E-1,1.594966299E0
8.989890875E0,1.351720723E0,1.316315832E0,-4.329904121E0,4.723124599E0
8.999860875E0,2.412301854E0,1.921294784E0,-4.426811196E0,5.395111792E0
9.009831875E0,3.231028113E-1,7.190371374E0,-7.748977520E0,1.057603369E1
9.019801708E0,1.404670330E0,1.793616737E0,-5.284402435E0,5.754569387E0
9.029771708E0,2.836194693E-1,-2.938152775E0,1.345023322E0,3.243804783E0
9.039741708E0,1.236707453E0,-4.840447909E-1,6.820470665E0,6.948565663E0
9.049711708E0,2.084287089E0,3.485565596E0,2.213811979E0,4.625406326E0
9.059681708E0,2.237675343E0,-8.254283372E-1,-3.458533334E0,4.201187416E0
9.069651708E0,2.407785026E0,-5.774164633E0,-3.683214934E0,7.259784996E0
9.079621708E0,-2.696482419E-1,-3.169234153E0,1.767548972E-1,3.185592187E0
9.089591708E0,4.033265735E-1,-7.656548828E-2,1.084460283E0,1.159564015E0
9.099561708E0,1.275029227E0,1.632890812E0,4.236025320E0,4.715500232E0
9.109531708E0,-1.424337586E0,-1.507462481E0,6.744256886E0,7.055932372E0
9.119501708E0,-3.836942180E-1,-4.611758627E0,6.540512411E0,8.012105933E0
9.129471708E0,5.551620629E-1,-1.977306139E0,3.985608954E0,4.483639506E0
9.139441708E0,8.338281548E-1,6.353376952E-1,5.591037440E-1,1.188074230E0
9.149411708E0,1.989358128E0,1.947280979E0,-4.308380520E-1,2.816925700E0
9.159381708E0,3.801380876E-2,-3.654998025E-1,-5.785170847E-1,6.853591559E-1
9.169351708E0,-2.004681488E0,-2.029387874E0,-5.090980634E0,5.835687348E0
9.179322708E0,-3.266684068E-1,-1.952927343E0,-2.873274409E0,3.489461747E0
9.189292708E0,1.245156826E0,-1.815402585E0,-3.676164946E0,4.284890988E0
9.199262708E0,2.537209783E0,-5.903289866E0,7.900284165E-1,6.473824961E0
9.209232708E0,1.979776880E0,-3.232613878E0,-8.450092006E-1,3.883728817E0
9.219202708E0,8.843862511E-1,-8.884434879E-2,4.205813341E0,4.298708902E0
9.229172708E0,6.458472613E-1,6.921170828E-1,5.791166582E0,5.868028214E0
9.239142708E0,1.543513489E0,3.143021670E-1,4.301176166E0,4.580538850E0
9.249112708E0,2.098994591E0,-8.428857842E-1,2.933153991E0,3.704001494E0
9.259082708E0,2.163465406E0,-4.206817308E-1,2.891168059E0,3.635437859E0
9.269052708E0,1.075042538E0,2.767676033E0,5.278673333E-1,3.015690801E0
9.279022708E0,2.153879919E0,2.534444927E0,-4.585942000E-1,3.357516706E0
9.288992708E0,7.161172718E-1,4.645657567E0,-8.723982604E0,9.909734136E0
9.298962708E0,-1.590538113E0,3.600802522E0,-1.120461473E1,1.187598339E1
9.308932708E0,-9.470007945E-2,-1.139044041E0,-1.916799737E0,2.231705774E0
9.318902708E0,-7.328165542E-1,1.012741259E0,8.671115588E0,8.760759699E0
9.328872708E0,1.053450159E0,4.091327490E0,7.416030629E0,8.535000185E0
9.338842708E0,-1.433868475E-1,6.622590362E0,2.321122420E-1,6.628207826E0
9.348812708E0,-2.922176720E0,5.469452777E0,-4.908290228E0,7.908561401E0
9.358782708E0,-2.546370323E0,1.108073386E0,-5.814997494E-1,2.837246977E0
9.368753708E0,-1.664207037E0,3.290679360E0,-7.404469514E-1,3.761172344E0
9.378723708E0,-3.949187890E-1,4.146656768E0,5.348251691E0,6.778976276E0
9.388693708E0,-4.749998207E0,3.327575291E0,8.678104765E0,1.043765982E1
9.398663708E0,-1.850749589E0,2.063774180E0,5.467408590E0,6.130007716E0
9.408633708E0,-4.704918221E0,2.501964813E0,-3.363645887E-1,5.339403012E0
9.418603708E0,-3.744439375E0,5.375099182E0,-1.127256756E1,1.303776426E1
9.428573708E0,-2.167919230E0,-4.691370222E-1,-1.403183237E1,1.420606501E1
9.438543708E0,-1.080139044E0,-7.758728337E0,-1.085477582E1,1.338621394E1
9.448513708E0,-4.553066761E-1,-9.294236988E0,-3.636862886E0,9.990841657E0
9.458483708E0,-3.079197557E0,-5.232734098E0,5.988517127E0,8.527913058E0
9.468453708E0,3.834154520E-2,-2.446489939E0,7.415155300E0,7.808412849E0
9.478423708E0,-2.978572823E0,-6.626523199E0,7.338771368E0,1.032667763E1
9.488393708E0,-4.843423045E-1,-7.443470442E0,5.879797508E0,9.497992336E0
9.498363708E0,-2.322311305E0,-4.294847140E-1,3.700872940E0,4.390221798E0
9.508333708E0,-2.421405677E0,4.177643503E0,3.331174545E0,5.866228306E0
9.518303708E0,8.923342252E-1,-1.645284863E0,1.276081141E0,2.265304776E0
9.528273708E0,3.066980092E-1,-8.933501204E0,3.189368455E0,9.490710120E0
9.538243708E0,-1.182794517E0,-4.878880488E0,5.858731744E0,7.715388216E0
9.548214708E0,-1.462638018E0,-8.098545706E-1,3.639618679E0,4.005246375E0
9.558184708E0,7.357510525E-1,3.780897349E-2,-1.215795178E0,1.421589619E0
9.568154708E0,5.447268660E-1,1.281446254E0,-4.882177733E0,5.076858406E0
9.578124708E0,1.113747378E0,1.359523247E0,-4.734607458E-2,1.758117838E0
9.588094708E0,-1.031777455E0,-1.347023655E0,6.453156763E0,6.672501004E0
9.598064708E0,-2.459058822E0,-2.727332584E0,5.367045227E0,6.503113699E0
9.608034708E0,8.222154383E-1,-3.290307770E0,-1.543159148E0,3.726057381E0
9.618004708E0,1.772959401E0,-7.077583846E-1,-9.572992469E0,9.761480000E0
9.627974708E0,1.292618383E-2,1.497635651E-1,-5.358684878E0,5.360792836E0
9.637944708E0,1.375310730E0,4.138333549E0,-1.035594517E0,4.482157981E0
9.647914708E0,-1.013184698E-1,5.761993654E0,-2.213011495E0,6.173188494E0
9.657884708E0,8.623255105E-1,2.363896264E0,-3.636601515E0,4.422271070E0
9.667854708E0,1.722673931E0,3.239035875E0,-6.286801139E0,7.278930377E0
9.677824708E0,3.077404581E-1,6.581434150E0,-5.746802003E0,8.742752022E0
9.687794708E0,-2.908111828E0,6.313387259E0,-4.039409185E0,8.039452696E0
9.697764708E0,2.260138007E0,3.852198004E0,-3.665607798E0,5.777917774E0
9.707734708E0,5.377638627E0,-3.798248962E-1,1.053529682E0,5.493012739E0
9.717705708E0,3.373986981E0,-3.846652505E0,4.194465650E0,6.616197226E0
9.727675708E0,5.896269699E0,-1.397439810E0,4.194014829E0,7.369436530E0
9.737645708E0,6.212940865E0,3.250256097E0,2.065185698E0,7.309568445E0
9.747615708E0,6.526867933E0,-1.813786415E0,-2.015047578E0,7.067548579E0
9.757585708E0,2.650815043E0,-4.440225293E0,-1.213132941E0,5.311695829E0
9.767555708E0,2.040463670E0,-6.660749291E0,2.579880424E0,7.428651029E0
9.777525708E0,-3.056356432E-1,-3.482588486E0,4.232876009E0,5.489906650E0
9.787495708E0,1.797488178E0,1.136256966E0,5.613263876E0,6.002564035E0
9.797465708E0,9.799494161E-1,-1.765897426E0,2.989076176E0,3.607391158E0
9.807435708E0,3.200993890E0,-2.144086272E0,7.464304072E-1,3.924363155E0
9.817405708E0,6.518434348E-1,-1.807386930E0,1.862234105E0,2.675717332E0
9.827375708E0,-4.481026141E-1,-1.622571938E0,3.384860755E0,3.780319825E0
9.837345708E0,5.787671263E-1,-6.740965489E-1,-2.808604789E-1,9.318047823E-1
9.847315708E0,6.531811316E-1,-6.487424371E-1,-4.301603597E0,4.399011917E0
9.857285708E0,-2.873834134E-1,-9.062576151E-1,-2.776008900E0,2.934300173E0
9.867255708E0,1.609715811E-1,-3.437497098E0,3.615469093E0,4.991384068E0
9.877225708E0,2.875276934E-1,-7.411421853E-1,6.832910031E-1,1.048260706E0
9.887196708E0,9.722860553E-1,7.687463057E-1,-4.095979827E0,4.279411385E0
9.897166708E0,1.025128878E0,-2.699575852E0,2.620896302E0,3.899704658E0
9.907136708E0,-2.569724102E-1,-8.275929764E-1,6.371828426E0,6.430485397E0
9.917106708E0,2.246443828E0,1.032879362E0,2.259880437E0,3.349687932E0
9.927076708E0,3.203321374E0,4.288496479E0,-2.071250430E0,5.739559932E0
9.937046708E0,1.411543002E0,2.017105798E0,9.046046072E-1,2.622876082E0
9.947016708E0,-1.064385111E0,-2.406521589E0,4.596007982E0,5.295993881E0
9.956986708E0,-6.416699374E-1,5.562587813E-1,-4.836442566E-1,9.772798510E-1
9.966956708E0,2.066547222E0,5.615347824E0,-5.847215652E0,8.366162770E0
9.976926708E0,2.921515985E-1,8.270518166E0,-7.542633957E0,1.119723851E1
9.986896708E0,5.811070358E-1,2.486985416E0,-6.825858874E0,7.288012844E0
9.996866708E0,-1.929777632E0,-2.383605766E0,-4.728477822E0,5.635966702E0
1.000683671E1,-1.303434416E0,1.528174196E0,-6.844351863E0,7.132980448E0
1.001680671E1,1.732359698E-1,3.259853424E0,-4.266208062E0,5.371888521E0
1.002677750E1,1.440698388E0,-5.429607511E-2,5.820635964E0,5.996529241E0
1.003674850E1,3.800302796E-2,-4.731986444E0,9.227821974E0,1.037043096E1
1.004671850E1,4.355658913E-1,-2.463188418E0,2.713283479E-1,2.516075098E0
1.005668850E1,4.554010940E0,3.602573059E0,-5.924929242E0,8.295922782E0
1.006665850E1,1.680281618E0,4.408408839E-1,-4.790273536E0,5.095528191E0
1.007662850E1,-5.220280845E-1,-7.942970009E0,-4.057523274E-1,7.970440442E0
1.008659850E1,1.215731371E0,-7.359067054E0,2.412594507E0,7.839290971E0
1.009656850E1,8.994437085E-1,-1.568059808E0,8.741394442E0,8.926353530E0
1.010653850E1,1.654742003E0,2.413601983E0,9.358141208E0,9.805021800E0
1.011650850E1,-8.544658294E-1,-6.612838376E-1,6.482098142E0,6.571529844E0
1.012647850E1,-6.722870549E-1,-2.961697466E0,-2.480359644E0,3.921199527E0
1.013644850E1,-3.730429446E0,-1.798025537E0,-2.378361399E0,4.775521189E0
1.014641850E1,-5.727480463E0,1.484046721E-1,4.027142311E0,7.003137268E0
1.015638850E1,-2.369381830E0,-3.172922577E0,6.881025599E0,7.939138570E0
1.016635850E1,-3.486946124E0,-3.192376848E0,2.568598221E0,5.380312261E0
1.017632850E1,-2.297233474E0,-4.291079779E0,2.959971660E0,5.696672672E0
1.018629850E1,8.829248857E-1,6.286283076E-2,2.606487594E0,2.752686990E0
1.019626850E1,-1.506592416E0,1.304047497E0,1.740616112E0,2.645771160E0
1.020623950E1,8.444917951E-2,-2.685627026E0,-2.269222534E-1,2.696519590E0
1.021620950E1,-4.837353635E-1,1.634267831E0,-4.578685021E0,4.885610276E0
1.022617950E1,-2.663541508E0,3.220713917E0,-6.205084546E0,7.481345181E0
1.023614950E1,1.539539137E0,1.605307449E0,-5.975513504E0,6.376045357E0
1.024611950E1,3.681231266E0,-2.558212689E0,-4.288447947E0,6.203765114E0
1.025608950E1,1.253116640E0,-2.858304660E0,-2.199611431E0,3.818179840E0
1.026605950E1,2.323192042E0,-4.223288915E-1,2.161434960E-1,2.371139171E0
1.027602950E1,2.401385395E0,3.084479932E0,-9.414484978E-1,4.020820008E0
1.028599950E1,4.870956304E-2,4.827564738E0,-5.062489491E0,6.995466659E0
1.029596950E1,2.008671481E0,5.049214557E0,-3.587005432E0,6.511216226E0
1.030593950E1,6.988883047E-1,1.572376223E0,-3.343104619E0,3.759941534E0
1.031590950E1,1.331948363E0,4.393375647E0,-7.254348099E-1,4.647805039E0
1.032587950E1,1.154274941E0,2.891432353E0,4.689441226E0,5.628817878E0
1.033584950E1,1.332846934E0,3.567412290E0,1.462864598E0,4.079569123E0
1.034581950E1,4.128917047E-1,6.604302610E0,-2.054577094E-1,6.620385593E0
1.035578950E1,-1.185393238E0,5.705797234E0,-2.288809537E0,6.260984611E0
1.036576050E1,-1.376982887E0,2.212950392E0,-2.336162043E0,3.500126341E0
1.037573050E1,-2.246901080E0,-2.370771128E-1,-1.964929338E0,2.994280769E0
1.038570050E1,-2.409498845E0,-5.345863688E-1,-3.342849095E0,4.155250576E0
1.039567050E1,-4.793482195E0,-2.657182076E0,3.468217492E-2,5.480811162E0
1.040564050E1,-3.243420409E0,-6.690737321E0,2.448906301E0,7.828338516E0
1.041561050E1,-1.522090168E0,-6.391431216E0,3.679941078E0,7.530545651E0
1.042558050E1,-2.553931138E-1,-4.324137597E0,4.956719792E0,6.582739756E0
1.043555050E1,-7.683044755E-1,-3.399669121E0,7.127588065E0,7.934138487E0
1.044552050E1,-2.195797877E0,-6.401213023E-1,4.800159423E0,5.317218642E0
1.045549050E1,-2.457554918E0,-2.258048212E0,2.528566428E0,4.187123844E0
1.046546050E1,-3.216089061E0,-4.397755504E0,2.673083287E0,6.068678323E0
1.047543050E1,-2.494126621E0,-1.073908398E0,-3.464931357E-1,2.737517916E0
1.048540050E1,-1.482647483E0,-1.730856817E0,-1.043086554E0,2.506419446E0
1.049537050E1,-2.610928846E0,4.745111981E-1,-6.125432020E0,6.675554490E0
1.050534150E1,9.610825709E-1,-3.206066934E0,-5.057726934E0,6.064911098E0
1.051531150E1,1.077785248E0,-3.729125225E0,-5.271437404E0,6.546453107E0
1.052528150E1,2.547600285E0,-1.192714756E0,1.608025235E-1,2.817568660E0
1.053525150E1,2.594105164E-1,-8.305496210E-1,3.270424898E0,3.384196433E0
1.054522150E1,-3.156641297E-2,9.855110684E-1,-2.005455220E0,2.234743642E0
1.055519150E1,-6.299429078E-1,-7.697324386E-1,-5.705048205E0,5.791104482E0
1.056516150E1,-1.258596724E-1,-4.430219245E0,-3.753598453E0,5.807941509E0
1.057513150E1,-4.472939076E-1,-4.226151419E0,1.528407792E0,4.516243797E0
1.058510150E1,-8.605130198E-1,-1.077939760E0,4.914791163E0,5.104665411E0
1.059507150E1,-1.056129427E0,1.707247807E0,1.984568381E0,2.822873731E0
1.060504150E1,9.977181543E-1,3.100035864E0,-2.517278963E-1,3.266348237E0
1.061501150E1,-9.579948755E-1,2.328541367E0,1.782725421E0,3.085120582E0
1.062498150E1,-8.642926600E-1,3.377656693E0,1.312286516E0,3.725273472E0
1.063495150E1,6.390013412E-1,5.236021403E0,-3.191322010E0,6.165126034E0
1.064492150E1,-1.813522998E0,5.346150202E0,-3.476615263E0,6.630010658E0
1.065489250E1,-1.395609193E0,1.867315335E0,4.217106069E0,4.818565676E0
1.066486250E1,5.084674047E-1,2.067979497E0,6.589992135E0,6.925537859E0
1.067483250E1,2.436701225E-1,4.572880782E0,5.794035226E-1,4.615877188E0
1.068480250E1,-7.579008170E-1,2.379588437E0,-9.758067369E-2,2.499275248E0
1.069477250E1,-1.303541128E0,-5.813576621E-1,-7.175568563E-1,1.597524349E0
1.070474250E1,-4.309796643E-1,-1.202272030E0,8.607241774E-1,1.540145323E0
1.071471250E1,1.525337858E0,4.585252321E0,-6.619285516E0,8.195494809E0
1.072468250E1,4.324352190E0,1.516042978E0,-7.358908010E-1,4.641114461E0
1.073465250E1,2.690845666E0,-4.364112672E0,3.347806365E0,6.123229317E0
1.074462250E1,5.616703428E-1,-4.592933808E0,4.206541319E0,6.253439407E0
1.075459250E1,1.161219899E0,1.288396839E0,8.374937743E-1,1.926082524E0
1.076456250E1,2.879569814E0,6.839986331E0,-9.301721424E-1,7.479475619E0
1.077453250E1,1.802355839E0,1.226464593E0,-3.124355603E0,3.809763760E0
1.078450250E1,8.443527044E-1,-3.532530432E0,-3.332907659E0,4.929500605E0
1.079447250E1,2.951418646E-3,-4.686010664E0,-5.016423372E0,6.864634594E0
1.080444350E1,-2.595588384E0,1.615822497E-1,-6.320737209E0,6.834830411E0
1.081441350E1,-4.635471571E-2,-1.191955203E0,-5.648647717E0,5.773225009E0
1.082438350E1,3.548538501E-1,-3.705476161E0,-2.823381287E0,4.672039889E0
1.083435350E1,-3.005137016E0,-5.840377918E0,5.104102371E0,8.318216379E0
1.084432350E1,-3.183527087E0,-1.894795787E0,1.188686083E1,1.245080545E1
1.085429350E1,1.292182473E0,3.964285913E0,5.590538673E0,6.974196799E0
1.086426350E1,4.159554849E0,3.178808092E0,6.942299742E-1,5.280972702E0
1.087423350E1,4.798394003E-1,-7.877537327E0,7.931654477E0,1.118914576E1
1.088420350E1,3.654853307E-2,-6.149322574E0,9.460656347E0,1.128359528E1
1.089417350E1,1.186366288E0,-2.539270341E-1,5.107741678E0,5.249854184E0
1.090414350E1,-9.290521082E-1,4.083507424E0,-3.074489379E-1,4.199130332E0
1.091411350E1,1.007622972E0,2.678152823E0,-5.460270309E0,6.164605295E0
1.092408350E1,-6.119627928E-1,-1.699552286E0,-7.154320366E0,7.378839769E0
1.093405350E1,-4.280317540E-1,-1.066420746E0,-1.196450484E1,1.201956074E1
1.094402450E1,-4.523943973E-1,-7.303640127E-1,-7.642583923E0,7.690720467E0
1.095399450E1,1.525371333E0,-7.812530322E0,1.440551623E1,1.645847155E1
1.096396450E1,1.879304320E0,-2.778109220E0,1.709147450E1,1.741746756E1
1.097393450E1,-1.907164987E0,6.749010673E0,3.987884690E0,8.067815544E0
1.098390450E1,2.538164487E-1,7.616946806E0,9.665681362E-1,7.682223337E0
1.099387450E1,5.168099196E-1,3.705441370E0,1.338203130E0,3.973433761E0
1.100384450E1,-2.186361933E0,2.922268814E-1,-6.756633103E-1,2.306966831E0
1.101381450E1,4.037939487E-1,4.271328761E0,-1.127734941E1,1.206589859E1
1.102378363E1,4.950372274E-1,8.991684508E0,-9.286557840E0,1.293582655E1
1.103375363E1,2.503611462E-2,5.769835939E0,-4.558485230E0,7.353327217E0
1.104372363E1,2.013056016E0,2.341364311E0,1.399989488E0,3.390332126E0
1.105369363E1,2.124040993E0,-1.686360091E0,1.151614385E0,2.946451457E0
1.106366363E1,4.335382378E0,7.937282422E-1,-5.316867930E0,6.906129847E0
1.107363363E1,2.048827673E0,3.369734593E0,-7.935976154E0,8.861857795E0
1.108360463E1,2.960974823E-1,-3.867587876E0,-6.140395045E0,7.262944376E0
1.109357463E1,-1.169488520E0,-7.397986121E0,-4.827028549E-1,7.505391668E0
1.110354463E1,-1.018231649E0,-8.453665824E0,3.496043807E0,9.204541480E0
1.111351463E1,1.672038505E0,-2.370534608E0,4.458048776E0,5.318772977E0
1.112348463E1,3.133321870E-1,2.796607179E0,3.479886196E0,4.475354367E0
1.113345463E1,-3.824486149E-1,4.247548428E0,3.031324064E0,5.232290145E0
1.114342463E1,-2.703084473E0,2.623708521E0,3.139556025E0,4.903807103E0
1.115339463E1,-2.832480724E0,-1.622600005E0,2.267546137E0,3.974612347E0
1.116336463E1,-1.042472889E0,-2.249547530E0,1.692225140E0,3.001806080E0
1.117333463E1,-9.090712953E-1,-7.377979288E0,3.140588644E0,8.069961959E0
1.118330463E1,-1.207663529E0,-7.159324998E0,2.192866083E0,7.584394984E0
1.119327463E1,1.341331171E-1,-3.575492849E0,2.375880425E0,4.294991106E0
1.120324463E1,5.941510410E-1,-2.610175725E0,-1.585984740E0,3.111491663E0
1.121321463E1,-9.676827617E-1,-4.815371832E0,-1.678052659E0,5.190383082E0
1.122318563E1,-1.742390304E0,-2.598464921E0,2.011831024E0,3.719597826E0
1.123315563E1,-2.041939799E0,5.443743154E-1,3.559068021E0,4.139181890E0
1.124312563E1,1.383785099E0,-7.617229226E-1,3.970951154E0,4.273585857E0
1.125309563E1,1.350951668E0,6.055391148E-1,-2.551882201E0,2.950228939E0
1.126306563E1,6.893419211E-1,-1.050710447E0,-5.766113602E0,5.901461751E0
1.127303563E1,1.339790064E-1,-9.711874366E-1,-2.057888373E0,2.279486777E0
1.128300563E1,-2.488049646E-1,3.841034208E0,-2.414123554E0,4.543505280E0
1.129297563E1,-8.072568720E-1,5.505434788E0,-2.920447406E0,6.284145838E0
1.130294563E1,-4.240853585E-1,6.296433842E0,-1.441258551E0,6.473187293E0
1.131291563E1,-1.068020617E0,4.452668753E0,1.469232801E0,4.808905497E0
1.132288563E1,-4.675386493E-1,4.570792157E0,-3.349402655E0,5.685880009E0
1.133285563E1,-6.469699267E-1,4.366326427E0,-4.937068470E0,6.622538911E0
1.134282563E1,-1.022730551E-1,2.271167025E0,-3.053477994E0,3.806886825E0
1.135279563E1,-1.791890748E-1,-2.185969585E0,1.556188499E0,2.689292545E0
1.136276663E1,3.381578567E-1,-6.278678772E-1,3.988040811E0,4.051300818E0
1.137273663E1,2.809549662E-1,2.974054095E0,-1.694909597E0,3.434625452E0
1.138270663E1,1.802027226E0,3.378728488E0,-3.338378314E0,5.080145479E0
1.139267663E1,-1.626181863E0,-4.596632465E0,2.412834828E0,5.440153433E0
1.140264663E1,-4.285529967E-1,-5.244460689E0,-7.413187712E-1,5.313904319E0
1.141261663E1,8.782563226E-1,1.489539303E0,-3.576654106E0,3.972721498E0
1.142258663E1,-1.253037703E0,1.128089283E0,-6.475762099E-1,1.806112915E0
1.143255663E1,-9.863234659E-1,-4.498366205E0,6.670152783E-1,4.653282914E0
1.144252663E1,-8.153114846E-1,-4.335661582E0,-8.438304019E-1,4.491630430E0
1.145249663E1,-3.468166914E0,-2.214951309E0,4.796737048E0,6.320037765E0
1.146246663E1,-3.148283872E0,9.339102674E-1,5.233193105E0,6.178202797E0
1.147243663E1,-9.147919187E-1,2.231812048E0,5.230612729E0,5.759959964E0
1.148240663E1,-9.188219659E-1,-9.938950986E-1,2.841625185E0,3.147522036E0
1.149237663E1,4.088237602E-1,-3.182317298E0,5.450376821E-1,3.254434871E0
1.150234763E1,-8.401206359E-2,-4.605394810E0,1.564870445E0,4.864723927E0
1.151231763E1,-1.118540048E0,-7.769055104E-1,1.730195789E0,2.201883621E0
1.152228763E1,-4.391215832E-1,-1.460923615E0,3.454145583E0,3.776009439E0
1.153225763E1,-2.162923223E0,-1.820317170E-1,-4.478912811E0,4.977151030E0
1.154222763E1,-8.516642091E-1,1.067672927E0,-4.261997482E0,4.475475387E0
1.155219763E1,6.507873546E-1,-3.908606679E0,-2.892693597E0,4.905956237E0
1.156216763E1,-7.909709511E-2,-7.461250656E0,3.078339770E0,8.071721839E0
1.157213763E1,-1.161536507E-1,3.134408721E-1,3.404257139E0,3.420629112E0
1.158210763E1,1.666412022E0,8.390873744E0,-1.593828195E-1,8.556231303E0
1.159207763E1,-7.433894165E-1,3.455515586E0,-3.035114813E0,4.658877302E0
1.160204763E1,2.013302622E0,-1.796236289E0,-4.150392262E0,4.950313948E0
1.161201763E1,1.362239425E0,-2.843541318E0,-3.076635892E0,4.405350371E0
1.162198763E1,5.203648257E-2,2.116058813E0,-4.144928623E0,4.654121398E0
1.163195763E1,-3.790768545E-1,5.468445886E0,-1.216157706E0,5.614858791E0
1.164192863E1,-6.405341888E-1,4.235362245E0,4.686177894E0,6.348924370E0
1.165189863E1,1.474404663E0,4.390003558E0,-6.405642289E-1,4.675074639E0
1.166186863E1,-1.313176754E0,2.444530245E0,-2.793221934E0,3.937289687E0
1.167183863E1,1.438613856E0,4.898861593E-1,1.800534870E0,2.356167246E0
1.168180863E1,-2.681383629E-1,3.656205475E-2,1.313567056E0,1.341153748E0
1.169177863E1,-8.494235560E-1,1.261675064E0,2.176965165E-1,1.536468717E0
1.170174863E1,3.748667204E0,1.135537173E0,1.447539631E0,4.175801894E0
1.171171863E1,-5.000669657E-1,1.770477843E0,-1.942942053E-1,1.849975405E0
1.172168863E1,3.235481498E-1,-1.676158746E0,-1.852209054E0,2.518902524E0
1.173165863E1,1.488965545E0,-5.012018080E0,-1.029695846E0,5.328941467E0
1.174162863E1,-5.112179714E-1,-1.507166320E0,-4.671592015E-1,1.658653625E0
1.175159863E1,-2.541712723E0,3.269847777E0,-2.043065096E0,4.618043205E0
1.176156863E1,-2.843676973E0,-4.001746684E-1,6.243403689E0,6.872170554E0
1.177153863E1,-3.876377118E0,-7.359646513E0,7.578201985E0,1.125254823E1
1.178150863E1,1.736590889E0,2.824088216E-1,-2.762476689E0,3.275176349E0
1.179147963E1,5.682033272E-1,4.290149487E0,-6.813218948E0,8.071442874E0
1.180144963E1,-2.645923263E0,-1.263909285E0,2.612730081E0,3.927433649E0
1.181141963E1,-1.851452132E0,-3.378468871E0,4.793522834E0,6.149779514E0
1.182138963E1,1.134925920E0,-3.856288424E-1,-2.864484875E0,3.105163449E0
1.183135963E1,4.933308637E-1,-1.267622559E0,-7.191701031E-1,1.538651335E0
1.184132963E1,-1.554319656E-1,-1.928022005E0,2.248429250E0,2.965950445E0
1.185129963E1,2.831382910E0,-5.571946281E-1,2.136087281E-1,2.893583198E0
1.186126963E1,1.945226122E0,-1.908353141E0,-2.946586214E0,4.013488096E0
1.187123963E1,1.452908982E0,-1.280044676E0,-6.610657364E-1,2.046085725E0
1.188120963E1,-1.033797229E0,4.075339741E-1,1.790192900E0,2.107038507E0
1.189117963E1,-1.303743149E0,-4.496869902E0,8.281095779E-1,4.754718771E0
1.190114963E1,-1.059449987E0,-3.827921827E0,3.772206632E0,5.477678584E0
1.191111963E1,-2.272770039E0,1.428270131E0,1.657665757E0,3.154884306E0
1.192108963E1,1.210372617E0,4.398171241E0,-4.629000896E-1,4.585105084E0
1.193106063E1,7.503178189E-2,3.495823951E0,-4.646080613E-2,3.496937728E0
1.194103063E1,-1.419674871E0,3.280920942E0,-6.530766857E-1,3.634064959E0
1.195100063E1,2.490294063E-1,3.761158903E0,-2.436654630E0,4.488386985E0
1.196097063E1,1.024029163E0,6.216494218E0,-4.631051515E0,7.819211867E0
1.197094063E1,3.963123267E-1,4.081630467E0,-4.260347398E0,5.913318077E0
1.198091063E1,4.204298620E-1,-3.659265616E0,2.022703922E-1,3.688888644E0
1.199088063E1,3.000070404E0,-2.966567904E0,6.423587394E-1,4.267736204E0
1.200085063E1,-3.352456509E-1,2.981694944E0,-3.250995770E0,4.424010384E0
1.201082063E1,-6.570266260E-1,3.776013462E0,7.184981995E0,8.143336412E0
1.202079063E1,3.168374028E0,-2.474873201E0,2.507597728E0,4.738315915E0
1.203076096E1,7.520867112E-1,-3.148165173E0,-5.747448705E0,6.596191704E0
1.204073096E1,5.099607104E-1,-2.710718013E0,1.102098994E0,2.970298683E0
1.205070096E1,1.971640041E0,1.054035466E0,3.919096291E-2,2.236043637E0
1.206067096E1,1.720083030E0,-9.028621370E-1,4.612043971E-1,1.996635962E0
1.207064196E1,2.457452884E0,-1.372723629E0,-1.276975181E0,3.090972412E0
1.208061196E1,3.072287902E0,3.187922439E-1,-2.154367431E0,3.765883758E0
1.209058196E1,2.121638811E0,-1.544600487E0,2.326104832E0,3.506836979E0
1.210055196E1,-1.714137873E0,-6.209745947E-1,2.434522151E0,3.041508869E0
1.211052196E1,-3.754457994E0,3.380623278E-1,-3.747644234E-1,3.788230371E0
1.212049196E1,-2.646694510E0,-1.679001662E0,-1.008875080E0,3.292699096E0
1.213046196E1,-2.045047887E0,-2.989522026E0,-1.084670198E-1,3.623703617E0
1.214043196E1,-1.642392099E0,-5.248118708E-1,2.024794886E0,2.659449875E0
1.215040196E1,-2.235315261E-1,-3.501999196E0,4.104794505E0,5.400305791E0
1.216037196E1,2.449850700E-1,-9.094449323E-1,1.882941434E0,2.105368427E0
1.217034196E1,6.239259768E-1,-1.165799730E0,6.883774960E-1,1.490716678E0
1.218031196E1,-3.957083458E-1,-6.389325634E-1,1.807567316E-1,7.729766565E-1
1.219028196E1,3.635233340E-1,-1.445248691E0,2.821573913E0,3.190951636E0
1.220025196E1,1.359115258E0,-1.714343403E0,9.132210642E-1,2.370683509E0
1.221022196E1,8.295079395E-3,1.667646369E-1,-7.541949248E-1,7.724566247E-1
1.222019296E1,-2.786552746E-1,-1.464458549E-1,4.064355161E0,4.076527692E0
1.223016296E1,-1.567795660E-2,1.717875414E0,-5.273684489E0,5.546448397E0
1.224013296E1,2.062327579E-2,2.522541165E0,-2.190919545E0,3.341222486E0
1.225010296E1,1.575394483E-1,-6.726593032E-1,-1.797551036E0,1.925741141E0
1.226007296E1,-5.946377486E-1,-1.575303924E0,-3.359358124E0,3.757720521E0
1.227004296E1,-9.053032033E-1,1.409706391E0,-3.372955824E0,3.766122275E0
1.228001296E1,-1.157581030E0,8.679412787E0,5.768862963E-3,8.756268238E0
1.228998296E1,-7.314149036E-1,5.466252596E0,4.889173341E0,7.370135763E0
1.229995296E1,7.350735064E-1,6.873708394E0,-5.503845515E0,8.836317988E0
1.230992296E1,1.890230135E-1,1.764020178E-1,-5.263461801E0,5.269808109E0
1.231989296E1,-8.865314484E-1,-3.512326256E0,4.138682628E0,5.500097056E0
1.232986296E1,-6.408435796E-1,-1.354186201E0,2.537988047E0,2.947182398E0
1.233983296E1,-1.247682823E0,3.970143653E0,-5.935944811E0,7.249427140E0
1.234980296E1,-9.101541265E-1,1.562957528E0,-2.370141968E0,2.981407338E0
1.235977396E1,1.422123538E0,-5.685558266E0,3.054406532E0,6.608888516E0
1.236974396E1,8.155882041E-1,-3.334470328E0,4.510286046E0,5.668029349E0
1.237971396E1,9.020106362E-1,5.335759699E-1,-1.198170501E0,1.591835121E0
1.238968396E1,-1.062647830E0,-2.248736814E-1,-2.121372178E0,2.383276840E0
1.239965396E1,-4.113957676E0,-9.847035679E-1,3.130277663E-1,4.241730220E0
1.240962396E1,-1.403760504E0,-6.679298998E0,2.347519090E0,7.217646745E0
1.241959396E1,2.318085522E0,-4.664154357E-1,-1.809461814E-1,2.371456381E0
1.242956396E1,-2.295502479E-1,-1.733244528E0,4.816136355E0,5.123670491E0
1.243953396E1,-1.644309985E0,1.504428069E0,3.650652375E0,4.277186213E0
1.244950396E1,-9.312069168E-2,4.888272285E-1,3.343359557E0,3.380188849E0
1.245947396E1,1.501481072E0,3.222400546E-1,-2.915044579E0,3.294809397E0
1.246944396E1,-5.711411876E-1,-2.664632014E0,3.680231684E0,4.579363632E0
1.247941396E1,-2.230240243E-1,-2.782352252E0,8.923798335E-1,2.930454835E0
1.248938396E1,1.580588930E0,7.550834092E-1,-2.172970932E0,2.791095661E0
1.249935496E1,2.806629892E-1,-2.502436976E0,-1.550147156E0,2.957011792E0
1.250932496E1,1.656313186E-1,1.706169873E0,8.952110553E-1,1.933869748E0
1.251929496E1,-4.099998545E-1,-2.178136362E0,5.612937602E0,6.034686936E0
1.252926496E1,5.816303981E-2,-2.219317133E0,2.702351525E0,3.497349745E0
1.253923496E1,1.526682279E0,1.442779997E0,-4.099278241E0,4.606132326E0
1.254920496E1,-8.235204638E-1,4.660933418E0,-9.965263456E-1,4.836894772E0
1.255917496E1,-2.234254576E0,4.428453971E0,-6.938703704E-1,5.008448280E0
1.256914496E1,-2.835871269E-1,-5.644521922E-1,-1.534361427E0,1.659304953E0
1.257911496E1,-3.914484300E-1,-3.223108059E-1,-2.709880984E0,2.756913324E0
1.258908496E1,1.681387143E-1,1.878032404E0,-4.098652589E0,4.511566179E0
1.259905496E1,1.751489741E0,5.467259486E0,-3.837987224E0,6.905706954E0
1.260902496E1,-1.125028503E-1,3.680346875E0,-5.144818872E0,6.326671418E0
1.261899496E1,2.496980647E0,8.248272434E-1,-2.761655740E0,3.813396748E0
1.262896596E1,1.291864384E0,1.984659013E-1,-3.203280151E0,3.459668485E0
1.263893596E1,2.452523791E-1,4.987002522E-2,2.884203440E0,2.895041491E0
1.264890596E1,-8.301202161E-1,-7.516136715E-1,5.218707798E0,5.337502577E0
1.265887596E1,-1.676972532E0,-8.347724801E-1,-2.812715381E-1,1.894253321E0
1.266884596E1,-3.666938624E0,-2.703807482E0,2.442113006E0,5.169229121E0
1.267881596E1,-4.181593297E0,-2.656350895E0,2.201748004E0,5.421219129E0
1.268878596E1,-1.596427429E0,9.693900025E-1,1.300978001E0,2.276146144E0
1.269875596E1,-3.251750937E0,3.527350384E-1,1.172187814E0,3.474525930E0
1.270872596E1,-2.927172435E-1,-3.959593230E0,1.938602834E0,4.418398225E0
1.271869596E1,-6.990893758E-1,-3.609450847E0,3.165435217E0,4.851478278E0
1.272866596E1,-9.566788866E-1,9.225956127E-1,1.183480541E0,1.779618877E0
1.273863596E1,1.080950638E0,-3.409049517E-1,1.188160068E0,1.642070283E0
1.274860596E1,4.151404342E-1,-1.417934301E0,1.131578316E0,1.861007455E0
1.275857596E1,5.851802062E-2,-2.460836668E0,1.291441777E0,2.779741594E0
1.276854696E1,-1.043221625E0,-5.199116117E-1,-1.656150743E0,2.025204861E0
1.277851696E1,-1.355147630E0,6.962805927E-2,-1.694559349E0,2.170899480E0
1.278848696E1,-1.304242063E0,-4.137140717E0,2.663166994E0,5.090131541E0
1.279845696E1,-2.155304155E0,-1.397507053E0,-5.143947637E-1,2.619725927E0
1.280842696E1,-1.602665531E0,-8.431451082E-1,-8.945228380E-1,2.019802363E0
1.281839696E1,-2.610782958E0,2.225958400E0,-5.404977284E0,6.401941729E0
1.282836696E1,1.766987640E-1,-8.970479581E-1,1.596941838E0,1.840146930E0
1.283833696E1,-1.348099250E0,-8.884560594E-1,1.757513396E0,2.386541241E0
1.284830696E1,-9.886593555E-1,1.270257899E0,-1.544197029E0,2.230593400E0
1.285827696E1,-3.429992051E-1,4.192326154E0,-1.023836351E0,4.329144015E0
1.286824696E1,-1.858713643E0,9.466475496E-1,8.731828398E-1,2.261284206E0
1.287821696E1,-1.859677264E0,-3.139220687E0,1.967958781E0,4.145596195E0
1.288818696E1,-5.422487429E-1,1.286562568E0,-1.856947052E0,2.323258336E0
1.289815796E1,-2.496680684E0,3.967238464E0,-5.806501490E0,7.462429566E0
1.290812796E1,-2.680309934E-1,4.735911387E0,-4.591268229E0,6.601548396E0
1.291809796E1,1.360378695E0,1.369897377E-1,5.611707348E-1,1.477940789E0
1.292806796E1,2.725191919E0,4.418094751E-1,4.270641421E0,5.085296919E0
1.293803796E1,4.894972318E0,2.972668889E0,1.962418544E0,6.053808789E0
1.294800796E1,3.680690106E0,4.537140846E0,-6.189441490E-1,5.875050517E0
1.295797796E1,-4.309198034E-1,3.591285594E0,-2.329758173E0,4.302417604E0
1.296794796E1,5.937294202E-1,2.604110116E-1,4.827174729E-1,8.082973946E-1
1.297791796E1,1.904659747E0,-2.079050615E-1,3.478935438E-1,1.947301514E0
1.298788796E1,-3.599413662E-1,3.087006513E0,-3.327614175E0,4.553260711E0
1.299785796E1,-2.482255969E-1,-6.993728927E-1,1.434886256E0,1.615437079E0
1.300782796E1,8.121357705E-2,-4.409458414E0,-2.776047492E-1,4.418934662E0
1.301779796E1,-1.332590680E0,-2.868026241E0,-1.967272317E-1,3.168607587E0
1.302776846E1,-4.887112710E-1,3.370083672E-1,3.744989598E0,3.791748994E0
1.303773846E1,-1.929473357E-1,-1.582441328E0,4.070968947E0,4.371971797E0
1.304770846E1,-1.121590102E0,-1.564242161E0,-2.587441458E0,3.224852120E0
1.305767846E1,-4.427353086E-1,-4.003288887E0,-1.546253495E0,4.314306009E0
1.306764846E1,-1.295921913E0,-4.292374937E0,1.733632198E0,4.807221318E0
1.307761846E1,-6.802079125E-1,-2.598664604E0,1.261726227E0,2.967775867E0
1.308758846E1,2.273368794E0,-2.232265792E0,1.265584804E0,3.428253365E0
1.309755846E1,2.155549153E0,-5.773101025E0,5.338857554E0,8.153434097E0
1.310752846E1,3.009162093E-1,-1.016734908E0,3.516557593E0,3.672938571E0
1.311749846E1,2.599534377E0,2.304057029E0,-5.026851296E-1,3.509836194E0
1.312746846E1,2.546660053E0,-1.988621964E0,1.980104032E0,3.789578699E0
1.313743846E1,7.469867697E-1,-3.437013826E0,-2.108774936E-1,3.523566743E0
1.314740846E1,1.217037566E0,-3.925909759E0,5.392506927E-1,4.145448007E0
1.315737846E1,1.459451578E0,-1.583368988E0,5.689074782E0,6.082978558E0
1.316734946E1,1.568684437E0,1.654308578E0,1.355299804E0,2.652234019E0
1.317731946E1,-1.441709664E0,4.267775701E0,-2.660741569E0,5.231823954E0
1.318728946E1,-3.185816272E0,-6.890990424E-1,-2.646491904E0,4.198595266E0
1.319725946E1,-1.153377175E0,3.525255034E0,-1.103127051E1,1.163815411E1
1.320722946E1,-1.048310749E-1,2.325338555E0,-7.452972168E0,7.808007626E0
1.321719946E1,-7.647178665E-1,3.397126459E0,-3.221414121E0,4.743708521E0
1.322716946E1,-4.779612015E-1,3.187701707E0,-5.955640572E-1,3.277893474E0
1.323713946E1,-6.248605080E-1,3.144613574E0,-2.730320511E0,4.211139428E0
1.324710946E1,-9.139668766E-1,-2.856236207E-1,7.798753113E-1,1.234958220E0
1.325707946E1,-5.596866749E-1,3.978151415E0,6.895369989E-1,4.076076438E0
1.326704946E1,-1.294278627E-1,6.893753818E0,-1.872160923E0,7.144618940E0
1.327701946E1,7.871540715E-1,5.386381969E0,2.014517235E0,5.804395054E0
1.328698946E1,4.180770520E-1,-2.760033723E0,3.661048139E0,4.603894878E0
1.329696046E1,5.592425058E-1,-3.168436885E0,2.862159437E0,4.306239789E0
1.330693046E1,1.765735166E0,2.221025105E0,-1.217759843E0,3.087671004E0
1.331690046E1,-3.192090042E-2,-8.514744669E-2,-2.525099614E0,2.526736451E0
1.332687046E1,1.277580075E-2,5.735922673E-1,-1.228217588E0,1.355614161E0
1.333684046E1,-6.786256559E-2,-1.439894396E0,1.394063920E0,2.005321773E0
1.334681046E1,3.521403035E-1,-3.792124003E0,2.326652716E0,4.462904896E0
1.335678046E1,2.462120132E0,3.726009536E-1,2.552024873E0,3.565627289E0
1.336675046E1,6.253550363E-1,-1.001757265E0,-4.547847390E-2,1.181801519E0
1.337672046E1,-4.853117363E-1,-7.458822892E0,-1.584379095E-1,7.476273736E0
1.338669046E1,-1.262038030E0,-1.468145218E0,1.484339667E0,2.439560333E0
1.339666046E1,-9.651045781E-1,-1.362451825E0,3.235976611E0,3.641324821E0
1.340663046E1,-4.889341230E-1,-2.410956118E0,5.166588056E0,5.722359489E0
1.341660046E1,-2.557529442E0,-9.999493057E-1,-2.309445530E-1,2.755755948E0
1.342657146E1,-9.978740557E-1,-5.582807484E-1,2.440148342E-1,1.169176319E0
1.343654146E1,-1.341562063E0,1.109656812E0,2.648847163E-1,1.761048245E0
1.344651146E1,-1.669395272E0,-1.672872318E0,3.145203266E0,3.934169029E0
1.345648146E1,-1.768280167E0,-1.915821205E0,-2.051582150E0,3.317555570E0
1.346645146E1,-2.579706030E-1,-1.903899025E0,-5.605892292E0,5.925994323E0
1.347642146E1,3.024927648E-1,1.176157781E0,-2.575862217E0,2.847791277E0
1.348639146E1,-2.401480705E-1,-6.966665089E-1,2.230883510E0,2.349437498E0
1.349636146E1,-4.801638477E-1,-2.547900247E0,3.215922416E0,4.130921202E0
1.350633146E1,1.929694747E0,2.300013971E0,-2.165515147E0,3.701789019E0
1.351630146E1,2.173358456E0,3.095788447E0,-4.062824945E0,5.551030501E0
1.352627146E1,1.117800960E0,4.483448204E0,-5.004164100E-2,4.620962123E0
1.353624146E1,2.340686326E0,2.036091707E0,2.823173127E0,4.194614216E0
1.354621146E1,2.018266616E0,2.444912653E0,-3.874439351E0,5.006223956E0
1.355618146E1,1.133022432E0,5.149818242E0,-5.131829867E0,7.357991950E0
1.356615246E1,1.616672390E0,4.862948872E0,-3.522487839E0,6.218506406E0
1.357612246E1,3.264716846E-1,1.373102236E0,2.734005427E0,3.076813154E0
1.358609246E1,-6.255900212E-1,3.099973007E0,3.855189732E0,4.986349706E0
1.359606246E1,8.217623522E-1,3.519050261E0,-1.011930835E0,3.752733953E0
1.360603246E1,2.310102757E0,-2.036651285E0,-2.317517611E0,3.854271797E0
1.361600246E1,3.019623785E0,-3.759198624E0,-1.906824387E0,5.185140436E0
1.362597246E1,2.402069227E0,-1.483395634E0,6.911701262E-2,2.824035471E0
1.363594246E1,2.489084859E0,-4.691375777E0,1.951868412E0,5.658121633E0
1.364591246E1,3.509768537E-1,-3.802434106E0,3.493511378E0,5.175549404E0
1.365588246E1,3.783331984E-1,-4.654753496E0,2.618634015E0,5.354167556E0
1.366585246E1,1.407670537E0,-1.582904135E0,1.864946043E0,2.822258951E0
1.367582246E1,-4.402833518E-1,-1.245892844E0,5.907691650E0,6.053669882E0
1.368579346E1,-3.499558568E-2,-4.085689312E-1,1.127526780E0,1.199779106E0
1.369576346E1,3.574076069E0,-3.954252675E-1,3.958372039E-1,3.617605283E0
1.370573346E1,1.634799635E0,-2.669027950E0,-4.233378285E0,5.264767018E0
1.371570346E1,2.693895282E0,-1.826799978E0,-3.347485353E0,4.669039316E0
1.372567346E1,3.953884301E0,-3.732745528E-1,-1.880883799E0,4.394343958E0
1.373564346E1,2.469563929E0,-3.305940301E0,4.937117586E0,6.434525416E0
1.374561346E1,2.264764324E0,-1.362402709E0,4.854322767E0,5.527182656E0
1.375558346E1,2.129224988E0,4.257258314E0,-6.515651804E-1,4.804413032E0
1.376555346E1,1.862391249E0,8.424206382E-1,2.393696306E0,3.147690535E0
1.377552346E1,1.071045528E0,-1.092056401E0,2.777205241E-1,1.554623554E0
1.378549346E1,1.496623790E0,-4.439283307E0,-3.894846718E0,6.092368177E0
1.379546346E1,-6.924972249E-1,-3.964813039E0,-1.989925600E0,4.489888499E0
1.380543346E1,-1.826871022E0,3.362407155E0,2.019346451E0,4.326777056E0
1.381540446E1,-5.613473207E-3,4.421698975E0,1.784906432E0,4.768369145E0
1.382537446E1,5.633562778E-1,2.635569890E0,-2.945468811E0,3.992415993E0
1.383534446E1,1.625600211E0,4.092858291E0,-6.923714367E0,8.205600872E0
1.384531446E1,-3.828681526E-1,3.309562359E0,-5.793860979E0,6.683458392E0
1.385528446E1,1.535318324E0,4.958275151E-1,1.311669635E0,2.079308662E0
1.386525446E1,-3.332306273E-2,1.710405011E0,1.956408775E0,2.598871106E0
1.387522446E1,1.697884368E0,5.414787158E0,-2.290014063E0,6.119386873E0
1.388519446E1,1.210217812E0,4.409705166E0,-1.918660905E0,4.958970304E0
1.389516446E1,-1.715275742E0,2.963489930E0,-4.478853169E0,5.637780516E0
1.390513446E1,-1.443600069E-1,1.042304489E0,-1.438344884E-1,1.062038992E0
1.391510446E1,-1.417520172E0,-1.017414646E0,2.876952893E0,3.364721971E0
1.392507446E1,-1.342196924E-1,1.135275511E0,4.480664636E0,4.624199498E0
1.393504446E1,8.883596534E-1,2.827302430E0,3.310170761E0,4.442977872E0
1.394501446E1,3.907775351E-1,-2.574019759E0,2.973969895E-1,2.620444575E0
1.395498546E1,-4.729588793E0,-2.972709235E0,-4.645887070E0,7.265691778E0
1.396495546E1,-2.590900086E0,-4.555144715E-1,-5.905522333E0,6.464940117E0
1.397492546E1,2.112119544E-1,-2.043481418E0,1.972771039E0,2.848201602E0
1.398489546E1,-4.069002528E0,-7.826959496E0,7.607554423E0,1.164873216E1
1.399486546E1,-3.017737766E0,-5.645197860E0,8.132300513E0,1.034936287E1
1.400483546E1,-2.813923416E0,-6.193818131E-1,-8.913612485E-2,2.882662670E0
1.401480546E1,2.344579403E0,2.795922178E-1,-3.757814881E0,4.438062309E0
1.402477621E1,1.244554416E0,-1.219450273E0,6.998994344E-1,1.877720395E0
1.403474621E1,2.215076147E0,-4.845426228E0,4.404102364E0,6.912368285E0
1.404471621E1,2.255374281E0,-4.662539648E0,2.152730795E0,5.608942770E0
1.405468621E1,2.399025605E-1,-6.303531193E0,4.380686020E0,7.680004475E0
1.406465621E1,4.266237444E-1,-5.866086956E0,5.738063924E0,8.216955737E0
1.407462721E1,-5.364597436E-1,-7.060995296E-1,1.384534712E0,1.644172124E0
1.408459721E1,-6.076449529E-1,6.193150379E0,1.153743356E-1,6.223958165E0
1.409456721E1,-5.674262322E-2,5.033034142E0,4.101475040E0,6.492822954E0
1.410453721E1,-4.313943561E0,2.227521361E0,-1.783415392E0,5.172284884E0
1.411450721E1,-3.708955035E-1,1.711877340E0,-8.214367354E0,8.399042715E0
1.412447721E1,1.214399887E0,-7.497025090E-1,-9.668071704E0,9.772841522E0
1.413444721E1,1.036171637E0,-9.842816913E-1,-7.557800465E0,7.691736474E0
1.414441721E1,1.473208907E0,1.067346945E0,-6.526249298E0,6.775064862E0
1.415438721E1,1.906313779E0,1.622538609E0,5.913304977E0,6.421358074E0
1.416435721E1,3.503671353E-1,7.553740743E0,1.111898576E1,1.344669479E1
1.417432721E1,6.433523275E-1,1.318670389E1,4.068814833E0,1.381514806E1
1.418429721E1,4.431664092E0,7.658161490E0,-7.879669222E0,1.184804925E1
1.419426721E1,5.090517535E0,-2.679977446E0,-6.998120770E0,9.059213112E0
1.420423821E1,5.419163653E-1,-4.744040186E0,-2.633044478E0,5.452752870E0
1.421420821E1,-2.149934364E0,2.930437959E0,6.271863842E-1,3.688230899E0
1.422417821E1,-9.179996281E-1,9.322451558E0,3.540062231E-1,9.374227796E0
1.423414821E1,3.705929101E-1,8.091523200E0,-9.904598594E-3,8.100011414E0
1.424411821E1,2.746582641E-1,-2.713976667E0,-2.252507683E0,3.537640085E0
1.425408821E1,1.085295411E0,-1.236577703E1,2.691893195E0,1.270183438E1
1.426405821E1,-1.200287632E0,-6.753953909E0,8.405404075E0,1.084930419E1
1.427402821E1,-1.503763533E0,1.022686788E-1,6.975801364E0,7.136775764E0
1.428399821E1,2.232917464E0,2.226750698E0,9.951592666E-1,3.306762924E0
1.429396821E1,1.824165954E0,-2.178919597E0,-4.961039130E0,5.717270440E0
1.430393821E1,-5.809247489E-1,-8.129097408E0,-2.208576967E0,8.443785315E0
1.431390821E1,-1.735274900E-1,-2.683743053E0,-1.415404503E0,3.039071976E0
1.432387921E1,2.263255450E-1,4.709965245E0,-4.177735596E0,6.299878616E0
1.433384921E1,-3.041084528E0,3.931611964E0,-1.209664373E0,5.115569923E0
1.434381921E1,-1.855848653E0,-1.524705335E-1,3.318673198E0,3.805392658E0
1.435378921E1,-1.926879167E0,-5.794907631E0,7.278440382E0,9.501026901E0
1.436375921E1,-3.609285955E0,-8.046002626E0,4.987342245E0,1.013107527E1
1.437372921E1,-2.678675856E0,-9.659904313E-1,-3.450613865E0,4.473832574E0
1.438369921E1,3.448073103E-1,7.871764371E-1,-3.199306968E0,3.312718506E0
1.439366921E1,1.050506306E0,-4.010307008E-1,-3.749065107E0,3.914061611E0
1.440363921E1,1.372931644E0,-8.102790785E-1,4.072468758E-2,1.594726304E0
1.441360921E1,-9.325758962E-2,-3.441130558E0,5.978862205E0,6.899048467E0
1.442357921E1,7.758796530E-2,-1.460042732E0,4.584474349E0,4.811979814E0
1.443354921E1,1.106643742E0,4.627637618E0,-4.252210997E0,6.381299919E0
1.444351921E1,1.749417341E0,4.545650299E0,-3.843838533E0,6.204715331E0
1.445349021E1,1.551588640E0,1.983964656E0,-2.545477161E0,3.580921256E0
1.446346021E1,-1.862475449E0,-2.722642825E0,-1.257132654E0,3.530153150E0
1.447343021E1,1.607094979E-1,-5.312002462E-1,-2.300304578E0,2.366305643E0
1.448340021E1,-3.895178986E-1,6.841293769E0,-7.761574761E0,1.035360166E1
1.449337021E1,6.984949332E-1,4.632229144E0,-3.339590442E0,5.753112752E0
1.450334021E1,-6.406865453E-2,-3.219550028E-1,3.872247815E0,3.886137279E0
1.451331021E1,-5.974405749E-1,-1.921824834E-1,4.170830619E0,4.217783470E0
1.452328021E1,7.667470330E-2,3.671200660E0,6.494151592E-1,3.728985565E0
1.453325021E1,8.230869658E-1,-9.473647106E-1,2.216883522E0,2.547458458E0
1.454322021E1,-1.094418603E0,-3.551315490E0,2.713150747E0,4.601171673E0
1.455319021E1,-3.505806026E0,-2.054377412E0,7.161669731E-1,4.126019580E0
1.456316021E1,-2.007292123E0,-9.068870679E-1,1.206049039E0,2.511218849E0
1.457313121E1,-4.214191378E-1,-4.435498989E-1,1.306836326E0,1.442966315E0
1.458310121E1,-2.111214102E0,-8.277806720E-1,9.740338612E-1,2.468033182E0
1.459307121E1,4.808067125E-1,-2.251340286E0,1.184647061E0,2.589033959E0
1.460304121E1,4.282095459E-1,3.298648238E-1,4.729307542E0,4.760097062E0
1.461301121E1,-2.715900108E-1,-4.642426103E-2,-2.769503288E0,2.783175311E0
1.462298121E1,1.255536949E0,-2.074314078E0,-2.600783050E-1,2.438604652E0
1.463295121E1,-2.417826596E-1,-4.656079352E-2,-3.098570552E0,3.108338178E0
1.464292121E1,9.226873409E-2,-1.769450195E0,-4.052039756E0,4.422498580E0
1.465289121E1,-2.428750657E-1,-4.345125885E0,2.741560614E-1,4.360535380E0
1.466286121E1,2.363377506E-1,-3.291543871E0,5.615825542E0,6.513648218E0
1.467283121E1,-2.177231944E0,1.116535184E0,-5.992805475E-1,2.519152026E0
1.468280121E1,-2.100375119E0,2.554877437E0,-4.767050149E0,5.802046319E0
1.469277221E1,-4.634995571E-2,-1.913746028E0,-4.769515920E0,5.139343761E0
1.470274221E1,9.361301628E-1,-3.466466543E0,-3.642890196E0,5.115015050E0
1.471271221E1,7.375212970E-1,-1.715447357E0,-2.173731655E0,2.865624994E0
1.472268221E1,-2.349103174E-1,6.563590202E-1,3.732139757E0,3.796690293E0
1.473265221E1,-1.768602494E0,2.585845168E0,6.047255332E0,6.810568777E0
1.474262221E1,-1.041636445E0,3.443299583E0,5.570666326E0,6.631262460E0
1.475259221E1,1.396564792E-1,5.962767159E0,-1.254303771E-1,5.965721155E0
1.476256221E1,-7.231485486E-1,5.211301714E0,-1.179671665E0,5.391867452E0
1.477253221E1,7.302106695E-1,7.097321123E-2,-4.935458731E0,4.989689139E0
1.478250221E1,1.507876610E0,3.400790910E0,-7.000209981E0,7.927295280E0
1.479247221E1,1.524257439E0,1.593240258E0,-1.457268228E0,2.642991855E0
1.480244221E1,3.134205823E0,1.554428487E0,4.025458898E0,5.333274173E0
1.481241321E1,9.522570759E-1,-7.339103490E-2,4.365279776E0,4.468539728E0
1.482238321E1,5.547214752E-1,2.057292541E0,2.145061587E0,3.023484369E0
1.483235321E1,7.922930431E-1,1.551781160E0,-2.912862983E0,3.394189710E0
1.484232321E1,-4.438060069E-1,1.648260218E0,-5.140263891E0,5.416275324E0
1.485229321E1,-1.976116523E0,-4.462173986E0,1.793152760E0,5.199175898E0
1.486226321E1,-3.783179590E-1,-5.540917447E0,5.605672436E0,7.891036313E0
1.487223321E1,-4.141098990E0,-2.669036721E0,-1.331091746E0,5.103358022E0
1.488220321E1,-1.128114133E0,1.390102431E-1,-6.353767546E0,6.454636115E0
1.489217321E1,-1.750412830E0,1.023335829E-1,-7.835661907E0,8.029446728E0
1.490214321E1,-3.200310935E0,-3.318241673E0,1.022110838E0,4.722015295E0
1.491211321E1,1.424683449E0,-8.584048793E-1,7.216865693E0,7.406060511E0
1.492208321E1,2.614831863E0,2.180674639E0,8.286737757E0,8.958945820E0
1.493205421E1,1.324658055E0,-3.385385835E-1,3.587546300E0,3.839246773E0
1.494202421E1,-1.410812904E-1,-4.300998411E0,7.955002409E-1,4.376221189E0
1.495199421E1,1.178094525E0,-4.556753869E0,-3.988903275E0,6.169543084E0
1.496196421E1,-8.927309588E-1,4.446751955E-1,-4.680630641E0,4.785708703E0
1.497193421E1,-2.239438571E0,-1.696654699E0,-2.494813961E-1,2.820631711E0
1.498190421E1,-1.605239329E0,3.373580307E-2,2.065248263E0,2.615947590E0
1.499187421E1,-1.238714510E0,-2.222007437E0,1.850160774E0,3.145604167E0
1.500184421E1,1.455300348E0,-1.775605558E0,3.805090204E0,4.444028090E0
1.501181421E1,2.060591979E0,1.170711976E-1,1.761999380E0,2.713740368E0
1.502178421E1,-9.595125204E-1,1.127470355E0,-6.565125096E-1,1.619525348E0
1.503175408E1,-1.411038533E0,2.875783449E-1,-7.338816977E-1,1.616265260E0
1.504172408E1,-1.957932852E0,1.838326302E0,8.706650287E-1,2.823296343E0
1.505169508E1,2.239720407E-1,-5.736674041E-2,7.472694826E-1,7.822187019E-1
1.506166508E1,5.826900233E-1,5.776265538E-1,-2.448202296E0,2.582029160E0
1.507163508E1,4.922098063E-1,5.052756801E0,-4.591290448E0,6.844893700E0
1.508160508E1,5.208641597E-1,7.386648370E0,-2.564766541E0,7.836574572E0
1.509157508E1,-1.171682614E0,4.875121605E0,2.372477930E0,5.546918274E0
1.510154508E1,-1.441586580E0,4.272023703E0,3.334530846E0,5.607802988E0
1.511151508E1,9.035520353E-1,6.060446066E0,1.085074825E0,6.222764673E0
1.512148508E1,-1.441306206E0,3.779278547E0,-4.550716619E0,6.088458891E0
1.513145508E1,-2.077942860E0,8.673058033E-2,-4.389353347E0,4.857138204E0
1.514142508E1,1.510918478E0,-2.596634158E0,-6.496529655E0,7.157533175E0
1.515139508E1,-1.740826027E0,-2.004133165E-2,-7.489014405E0,7.688706892E0
1.516136608E1,9.059019582E-1,-3.205031684E0,-2.697371451E0,4.285872047E0
1.517133608E1,7.057137595E-1,-4.628146326E0,3.593513968E0,5.901788963E0
1.518130608E1,-1.827702350E0,-6.804139391E0,1.028605223E1,1.246754504E1
1.519127608E1,-3.570909217E0,-5.458291612E0,1.076540580E1,1.258722773E1
1.520124608E1,-7.195735610E-1,2.574712947E0,3.548560574E0,4.442883637E0
1.521121608E1,-7.634949213E-1,-1.179662602E0,1.428332112E0,2.003661890E0
1.522118608E1,-3.107036809E-1,-2.059432330E0,-7.839478970E-1,2.225392685E0
1.523115608E1,2.512066171E0,-1.536646227E0,-4.187107514E0,5.118947880E0
1.524112608E1,2.868448994E0,-2.654499374E0,3.175494182E-1,3.921122823E0
1.525109608E1,4.087256366E-1,-8.201895243E-1,-3.285534688E0,3.410939121E0
1.526106608E1,-1.603097202E0,-1.767642528E0,-6.151539838E-1,2.464324485E0
1.527103608E1,-2.389463507E0,-3.532335720E0,7.163118671E0,8.336498101E0
1.528100708E1,1.085333345E0,-2.143337828E-1,8.770089653E0,8.839590486E0
1.529097708E1,-1.692370590E-2,-2.521654435E0,1.230492740E0,2.805911596E0
1.530094708E1,-1.200917888E0,2.626483025E0,-1.163455114E1,1.198763517E1
1.531091708E1,3.121037016E0,-1.160319428E0,-8.116656872E0,8.773102758E0
1.532088708E1,-1.020762104E0,-7.169357650E0,-8.603886641E0,1.124582188E1
1.533085708E1,-3.660862490E0,-3.711252625E0,-6.394505682E0,8.250152310E0
1.534082708E1,5.180488349E-1,-1.995019402E0,-3.429477350E0,4.001223800E0
1.535079708E1,5.519979152E0,8.612118351E0,1.140279792E1,1.531869944E1
1.536076708E1,-1.447764895E0,1.204626295E1,9.174517586E0,1.521118822E1
1.537073708E1,-2.396728088E0,8.010932196E0,4.974340376E0,9.729511928E0
1.538070708E1,1.702287029E0,4.463391084E0,-4.368237882E0,6.473109245E0
1.539067808E1,1.547081168E0,-4.602052249E0,-1.208069837E1,1.301981636E1
1.540064808E1,1.529266748E0,-8.429444318E0,1.452943043E0,8.689374648E0
1.541061808E1,7.047907765E-1,-1.865569064E0,1.954080765E1,1.964230744E1
1.542058808E1,1.059963007E0,1.134849365E1,1.757743075E1,2.094941292E1
1.543055808E1,3.127133031E0,1.088077487E1,3.148958348E0,1.175100683E1
1.544052808E1,1.097141432E0,1.475645734E0,-7.490600170E0,7.712998156E0
1.545049808E1,4.115178575E0,-3.757936210E0,-2.786854316E0,6.230837523E0
1.546046808E1,3.492712648E0,-1.654764076E0,-7.454852632E0,8.397149133E0
1.547043808E1,2.082773830E-1,1.942914571E0,-1.171310731E1,1.187498124E1
1.548040808E1,3.562401226E0,-4.587072852E0,-9.138925000E0,1.082829119E1
1.549037808E1,-2.378308189E0,-1.086341800E1,3.255537302E0,1.158743818E1
1.550034808E1,2.104394933E0,-5.572021126E0,6.504999931E0,8.819916188E0
1.551031908E1,1.873772598E-1,6.706929431E0,-4.064673834E0,7.844717076E0
1.552028908E1,-1.734368801E0,8.373691117E0,-6.558880270E-1,8.576533516E0
1.553025908E1,-1.932023693E0,3.410710126E0,8.367443367E0,9.240117294E0
1.554022908E1,-1.638819742E0,1.060827299E0,3.427097533E0,3.944119953E0
1.555019908E1,-2.416413214E-1,4.335308703E0,-5.584040662E0,7.073528270E0
1.556016908E1,-9.530165561E-1,7.467090270E-1,4.849645579E-1,1.304226035E0
1.557013908E1,6.183874941E-1,-2.147594309E0,1.357515314E0,2.614844591E0
1.558010908E1,-7.013353279E-2,3.470232735E0,-6.305832657E0,7.197983012E0
1.559007908E1,-2.969945841E0,1.693457733E0,-6.025797220E0,6.928102881E0
1.560004908E1,-8.753715988E-1,-1.204960171E1,8.420820844E-1,1.211066798E1
1.561001908E1,5.327595890E-1,-1.064338143E1,8.830548109E0,1.383994151E1
1.561999008E1,5.186926865E-1,-7.354793909E0,8.857899045E0,1.152494733E1
1.562996008E1,1.897450861E0,-2.477465272E-1,3.829954319E0,4.281383912E0
1.563993008E1,2.591745447E-1,3.435108218E0,1.318724300E0,3.688654727E0
1.564990008E1,-3.026949177E0,-1.822577411E0,-6.396372113E0,7.307378870E0
1.565987008E1,-1.013769638E0,1.273715358E0,-5.878369617E0,6.099615484E0
1.566984008E1,-4.467423909E0,1.478055372E0,2.508049718E0,5.332245067E0
1.567981008E1,-3.034585056E0,1.307113192E0,3.143459626E0,4.560547092E0
1.568978008E1,6.477396396E-1,3.535490585E0,-5.382701147E-1,3.634418115E0
1.569975008E1,-2.552467142E-1,4.832029088E0,-3.192591441E0,5.797093763E0
1.570972008E1,2.894311266E-1,3.594660607E0,-1.177760210E0,3.793741474E0
1.571969008E1,4.029651790E-1,-6.424553354E0,4.155295152E0,7.661836890E0
1.572966108E1,-3.486221654E0,-2.834872528E0,1.163456166E0,4.641537883E0
1.573963108E1,-1.220505622E0,1.360249472E-1,-4.680503172E0,4.838930326E0
1.574960108E1,4.201372966E0,-1.235238925E-1,-4.835209388E0,6.406718565E0
1.575957108E1,3.159483044E0,-4.240529430E0,-6.815194137E0,8.626198124E0
1.576954108E1,4.938861226E0,-8.172249275E0,-4.927356829E0,1.074508510E1
1.577951108E1,-2.096951574E0,-4.744788045E0,7.163598143E0,8.844623104E0
1.578948108E1,-5.129959928E0,1.291312553E0,1.057748448E1,1.182654450E1
1.579945108E1,-3.629649176E0,4.067101014E0,4.339632134E0,6.967644570E0
1.580942108E1,-2.357994523E0,3.126678702E-1,-4.890145149E0,5.437960918E0
1.581939108E1,-9.265334932E-1,-2.067210881E0,-6.997463543E0,7.355020135E0
1.582936108E1,-1.394312865E0,-4.020333521E0,1.839362136E0,4.635778581E0
1.583933208E1,-3.232111602E0,-2.123723343E-1,5.843476358E0,6.681157337E0
1.584930208E1,-1.039945723E0,1.955958247E0,4.719308218E0,5.213360704E0
1.585927208E1,3.772634503E-1,3.555789779E0,-3.519772977E0,5.017446609E0
1.586924208E1,1.152549136E0,4.142566933E0,-7.518355148E0,8.661113926E0
1.587921208E1,1.949828429E-1,-7.136170024E-1,-1.928117023E0,2.065164107E0
1.588918208E1,1.496639139E0,-5.564871735E0,3.335834191E0,6.658492013E0
1.589915208E1,-3.996104121E-1,-2.326475546E0,-6.349748755E-1,2.444457003E0
1.590912208E1,2.656054441E0,3.915493237E0,-1.065544540E0,4.849855425E0
1.591909208E1,2.748816716E0,4.185651557E0,-1.556745154E0,5.243961076E0
1.592906208E1,-2.264241291E0,-2.079549383E0,-1.300603194E0,3.338095704E0
1.593903208E1,9.602288774E-1,-3.346491618E0,-5.193993956E0,6.252888841E0
1.594900308E1,3.858284079E0,2.867449705E0,-4.024518081E0,6.269399463E0
1.595897308E1,4.810257272E0,4.595528218E0,3.976776150E0,7.750625986E0
1.596894308E1,3.700384113E0,4.791853746E0,4.834310671E0,7.747597342E0
1.597891308E1,2.569842216E0,3.150697018E0,-2.096105189E0,4.574345601E0
1.598888308E1,1.177395490E0,1.151914932E0,-3.142984833E0,3.548453439E0
1.599885308E1,2.516815571E0,3.065604535E-1,7.506033311E0,7.922681112E0
1.600882308E1,1.867555455E-2,3.961762254E0,5.751185660E0,6.983698550E0
1.601879308E1,-1.488623045E0,8.083651094E0,-2.044247403E0,8.469968183E0
1.602876325E1,-1.447516973E0,5.397095822E0,-4.426718810E0,7.128799907E0
1.603873325E1,-9.212809028E-2,-4.735719599E0,-9.774638379E-1,4.836420500E0
1.604870325E1,-2.248733525E-1,-7.478052045E0,-3.861091912E-2,7.481532010E0
1.605867425E1,-1.156996016E0,-1.039207219E0,2.550323333E0,2.987095668E0
1.606864425E1,-1.502451271E0,2.106668477E0,3.059304160E0,4.006838384E0
1.607861425E1,-1.944227417E0,4.701754292E0,-7.431770164E-1,5.141869869E0
1.608858425E1,-1.408859568E0,4.518397889E-1,-4.754090965E0,4.978998432E0
1.609855425E1,-5.854732248E-1,-6.233478041E0,-1.464611746E0,6.429938954E0
1.610852425E1,6.689390123E-1,-6.937952921E0,7.623365879E-1,7.011692179E0
1.611849425E1,-1.659374313E0,-8.577780578E-1,2.589256434E0,3.192734751E0
1.612846425E1,-1.414826652E0,5.228836344E0,4.623552461E0,7.121776557E0
1.613843425E1,-1.187756391E0,3.879408315E0,2.644354747E0,4.842848970E0
1.614840425E1,-1.204793861E0,-4.518278605E0,1.479529747E0,4.904628230E0
1.615837425E1,1.210240250E-1,-2.806625506E0,-2.953757240E0,4.076331117E0
1.616834525E1,-4.311627187E-1,1.001604652E-1,-4.796476847E-1,6.526831622E-1
1.617831525E1,-2.667529017E0,-1.773998159E0,1.899489639E0,3.724357852E0
1.618828525E1,-1.123505650E0,1.197229976E0,-2.794834596E-1,1.665453562E0
1.619825525E1,-1.024008478E0,-2.258017514E0,-1.493490559E0,2.894434402E0
1.620822525E1,-1.973969426E0,-2.278262329E-1,2.071884268E0,2.870742849E0
1.621819525E1,-1.935521206E0,1.921552354E0,2.108720557E0,3.447507530E0
1.622816525E1,-4.416796669E0,-7.187982202E-2,6.143246148E0,7.566553559E0
1.623813525E1,-3.355536384E0,-4.720357794E-1,5.369398731E-1,3.430852172E0
1.624810525E1,-5.397256036E0,-2.666096157E0,-7.963270957E0,9.982591135E0
1.625807525E1,-2.262872896E0,-5.960748700E0,-8.790983509E0,1.085967356E1
1.626804525E1,-2.096701898E-3,-8.280063161E0,6.092345551E0,1.027988933E1
1.627801625E1,-4.241102457E-2,-6.125943652E-1,8.761181420E0,8.782674446E0
1.628798625E1,9.609831682E-1,6.717977745E0,8.251757959E0,1.068392358E1
1.629795625E1,1.095888520E0,2.777783823E0,3.035398988E0,4.258016161E0
1.630792625E1,-1.021400766E-1,1.234945394E0,-4.791763991E0,4.949396415E0
1.631789625E1,2.378067284E0,-1.160078815E-1,-3.816311011E0,4.498098661E0
1.632786625E1,1.767999647E0,1.809080868E0,1.081345471E0,2.750982436E0
1.633783625E1,5.496809560E-1,6.479506071E0,-8.231230724E-1,6.554668540E0
1.634780625E1,-2.240076649E0,5.814740217E0,-5.896643336E0,8.579017998E0
1.635777625E1,6.022789266E-1,-9.839519083E-2,-3.573441646E0,3.625176784E0
1.636774625E1,1.022732104E0,-2.924156295E0,3.155862740E0,4.422232539E0
1.637771725E1,8.776408301E-1,-1.383755279E-1,1.100957032E0,1.414746479E0
1.638768725E1,-2.509258045E0,-8.246497804E-1,-8.256326973E-1,2.767325884E0
1.639765725E1,-2.987595954E0,-1.531650951E0,-3.379635683E0,4.763782276E0
1.640762725E1,1.109633716E0,-5.837481208E0,-1.654426984E0,6.168030681E0
1.641759725E1,1.981165009E0,-7.135288264E0,5.515847510E0,9.233738525E0
1.642756725E1,-6.776619617E-2,-2.400869378E0,4.471452348E0,5.075692281E0
1.643753725E1,-3.284231051E0,5.245856420E0,2.909282148E-1,6.195952098E0
1.644750725E1,-2.552770978E0,7.306397674E0,5.421304464E-2,7.739704496E0
