"Time (s)","Linear Acceleration x (m/s^2)","Linear Acceleration y (m/s^2)","Linear Acceleration z (m/s^2)","Absolute acceleration (m/s^2)"
1.016570837E-2,-3.865130145E-1,2.204631266E-1,1.618774756E0,1.678817444E0
2.013570833E-2,-8.794327824E-1,5.781121650E-1,2.625902689E-1,1.084697812E0
3.010570834E-2,-1.675568908E0,1.206350756E-1,-1.243340827E0,2.089971387E0
4.007570836E-2,8.164882368E-1,4.110303167E-1,-2.993635835E0,3.130088573E0
5.004570837E-2,-3.517218621E-1,-2.787839572E0,-3.151586087E0,4.222351550E0
6.001570832E-2,-8.367334901E-1,-5.662313245E0,2.484195417E-1,5.729190736E0
6.998570834E-2,2.737162046E-2,-5.517190615E0,3.982581266E0,6.804490798E0
7.995570835E-2,-1.796988388E0,-1.454082080E0,5.553466741E0,6.015356581E0
8.992670837E-2,-1.587524604E0,6.649465334E-1,8.549949585E0,8.721469267E0
9.989670833E-2,-1.164506546E0,-5.646626920E-2,5.304146143E0,5.430767003E0
1.098667083E-1,-8.925267448E-1,-3.477602273E-1,3.292258401E0,3.428776246E0
1.198367084E-1,-9.783905485E-1,5.239154926E-1,7.428916723E-1,1.335523697E0
1.298067084E-1,-1.239600801E0,9.296184111E-1,-3.350274475E0,3.691224674E0
1.397767083E-1,-5.112542973E-1,7.109360540E-1,-4.227018269E0,4.316768985E0
1.497467083E-1,1.158735124E0,1.609431490E0,-6.146631685E0,6.458639012E0
1.597167084E-1,1.732086194E0,-5.363074967E-1,-5.383341417E0,5.680502894E0
1.696867084E-1,2.530930458E0,-1.813171872E0,-3.672074819E-1,3.134970902E0
1.796567084E-1,2.246486513E0,-5.214137614E-1,3.030175670E0,3.807957268E0
1.896267083E-1,1.468767655E0,2.418888743E0,3.535700208E0,4.528739022E0
1.995967083E-1,2.596704325E0,3.436640773E0,-1.481643516E0,4.555067581E0
2.095677084E-1,5.210943938E-1,-1.134760956E0,-2.529865095E0,2.821247808E0
2.195377083E-1,1.217739305E-1,-4.239271986E0,-2.155874258E-1,4.246496650E0
2.295077083E-1,1.178981913E0,-4.696132779E-2,-6.609768587E-1,1.352440063E0
2.394777084E-1,9.039069613E-1,1.576831217E0,-1.283492487E0,2.225038751E0
2.494477084E-1,9.526358293E-1,3.097388830E0,-3.760521557E0,4.964157024E0
2.594177084E-1,1.013881613E0,-4.531937116E-1,-4.354703332E0,4.494082952E0
2.693877083E-1,-1.953544517E-1,-4.845417457E0,-9.036901027E-1,4.932837875E0
2.793577084E-1,-9.452098654E-1,-3.058502507E0,2.725814062E-1,3.212811836E0
2.893277084E-1,-5.312086516E-1,1.184359378E-1,1.945941675E0,2.020618396E0
2.992977084E-1,-8.452908171E-1,6.183296067E-1,4.649004221E-1,1.145853599E0
3.092677083E-1,-1.054213367E0,1.392937454E0,-1.282923553E0,2.167379389E0
3.192387084E-1,-1.337593119E0,2.848335450E0,3.362388736E-1,3.164684307E0
3.292087084E-1,-2.764316150E-1,5.584517210E0,-3.120243841E-1,5.600054118E0
3.391787083E-1,1.185415896E-1,4.645266973E0,-1.226002663E0,4.805792327E0
3.491487083E-1,-1.064909240E0,-4.127436385E0,3.073264972E0,5.254971017E0
3.591187084E-1,4.788229715E-1,-5.411099904E0,3.403030978E0,6.410139892E0
3.690887084E-1,8.699932567E-1,-3.063525265E0,3.858876402E0,5.003299151E0
3.790587084E-1,1.661487643E0,1.623375638E0,8.670666522E-1,2.479454422E0
3.890287083E-1,5.695353229E-1,2.471773008E0,3.621136799E0,4.421160934E0
3.989987083E-1,1.107025711E0,4.984885830E-1,3.046589389E0,3.279588953E0
4.089687084E-1,8.036821036E-1,1.502463404E0,-3.974685770E-1,1.749652101E0
4.189387084E-1,-8.907608856E-1,2.885010648E0,-1.007826090E0,3.183151712E0
4.289087083E-1,-2.393394298E0,3.762104690E0,-1.650078410E0,4.754421808E0
4.388797084E-1,-9.474597278E-1,1.479846082E0,-3.052951160E0,3.522518296E0
4.488497084E-1,-2.552667774E0,-2.770186243E0,-1.883945986E0,4.211804490E0
4.588197084E-1,-1.310857310E0,-2.363763532E0,2.253524514E0,3.519104667E0
4.687897083E-1,-1.235343297E0,2.362300559E0,5.076844990E-1,2.713720793E0
4.787597083E-1,-2.221611215E-1,2.243143660E0,-2.746081681E0,3.552747337E0
4.887297084E-1,-1.345657306E0,-1.715485657E0,7.752986956E-1,2.314038179E0
4.986997084E-1,-1.348112114E0,-2.589590310E0,-5.798094363E0,6.491631728E0
5.086697083E-1,4.886863837E-1,-2.838187022E0,-5.726175950E0,6.409618628E0
5.186397083E-1,-5.935791833E-1,-2.089195535E0,-1.208654559E0,2.485542209E0
5.286097084E-1,-1.059641045E0,1.966594040E-2,4.118395128E0,4.252576199E0
5.385797084E-1,-2.676221634E-1,-2.493018866E-1,6.248549824E0,6.259244999E0
5.485497083E-1,-1.824841745E0,2.237342929E0,6.490516963E0,7.103700530E0
5.585207083E-1,4.794968996E-2,4.885318857E0,5.870813261E0,7.637741017E0
5.684907084E-1,-9.680894355E-1,2.637901175E-1,3.465047132E0,3.607399896E0
5.784607084E-1,-1.446289350E0,-5.092176390E-1,-6.606553203E0,6.782153103E0
5.884307083E-1,1.404731141E0,6.182375130E-1,-6.721281422E0,6.894281047E0
5.984007083E-1,1.696283108E0,1.503251901E0,-5.296141305E0,5.760751286E0
6.083707084E-1,-3.359437719E-1,-1.398925003E0,1.568223238E-2,1.438782580E0
6.183407084E-1,2.077582599E-1,-1.734922678E0,1.928772495E0,2.602553272E0
6.283107083E-1,9.694584149E-1,-7.517420179E-1,2.769785709E0,3.029303311E0
6.382807083E-1,4.726788269E-1,-2.041789818E0,5.101444227E-1,2.156983604E0
6.482507084E-1,6.180406080E-1,-2.910746875E-1,1.110130144E0,1.303490546E0
6.582207084E-1,-1.208362490E0,-8.310872725E-1,2.509454804E0,2.906580358E0
6.681917083E-1,1.533637104E0,-2.887606812E0,1.260646831E0,3.504218358E0
6.781617083E-1,1.810530978E0,-1.120835811E0,-1.332619039E0,2.512004944E0
6.881317084E-1,2.621015878E0,2.578496972E0,-5.093058735E0,6.281529921E0
6.981017084E-1,2.362763951E0,1.089523679E0,-2.707119929E0,3.754758800E0
7.080717083E-1,5.263244358E-1,-1.101860135E0,3.131350043E0,3.361021609E0
7.180417083E-1,6.526226494E-1,1.226093879E-1,1.320598918E0,1.478151171E0
7.280117084E-1,-1.130894046E0,1.307319306E0,1.611340606E-1,1.736078713E0
7.379817084E-1,-9.996755829E-1,3.420843936E0,-2.098135927E0,4.135661842E0
7.479517083E-1,-1.466789542E0,1.533063930E0,-2.324888027E0,3.147516626E0
7.579217083E-1,2.798430268E-1,1.678442376E0,-3.136407884E0,3.568267836E0
7.678917084E-1,1.277797445E0,1.962009823E0,-4.539626205E-1,2.385022205E0
7.778627084E-1,1.137263418E0,3.445606602E0,2.142291176E0,4.213666387E0
7.878327083E-1,2.363191675E0,4.430265146E0,-1.777438368E0,5.326463302E0
7.978010834E-1,1.193969861E0,-1.150168369E0,1.949017895E0,2.558734465E0
8.077710834E-1,2.421775659E0,-6.339288670E0,8.201415771E-1,6.835510983E0
8.177410833E-1,2.192587610E0,-6.235985327E-1,-2.927177551E0,3.710078702E0
8.277110833E-1,1.084319000E0,-1.253292495E0,2.357299728E0,2.881553709E0
8.376810834E-1,-8.164997850E-1,-4.032500700E0,3.011392075E0,5.098648450E0
8.476510834E-1,-8.691008254E-1,1.008003553E0,-7.338594782E-1,1.519854316E0
8.576210833E-1,-3.542792881E-1,1.031074912E0,1.599143314E-1,1.101908291E0
8.675910833E-1,-3.214645676E-1,-1.098192469E0,-9.516589057E-1,1.488294608E0
8.775610834E-1,1.940643915E-1,-4.078856841E-1,-1.227127667E0,1.307621517E0
8.875310834E-1,4.913091523E-1,-4.824207267E-1,2.049792318E0,2.162351263E0
8.975020833E-1,-2.074213506E-1,-1.812537450E0,1.666683333E0,2.471062313E0
9.074720833E-1,-1.188556874E0,-1.045392112E0,2.984879630E0,3.378611921E0
9.174420834E-1,-9.972828291E-1,-6.180784687E-1,2.525327656E0,2.784577850E0
9.274120834E-1,-1.427261633E0,-2.455259593E0,-1.469407048E0,3.197582292E0
9.373820833E-1,-2.755324375E0,-9.964976943E-1,2.626586813E-1,2.941735822E0
9.473520833E-1,-1.216127520E0,3.339654469E0,-3.152249161E0,4.750677098E0
9.573220834E-1,-2.948238345E0,3.571432250E0,-2.059307492E0,5.068331580E0
9.672920834E-1,-2.725459429E0,-9.286430955E-2,-1.326461336E0,3.032532366E0
9.772620833E-1,-1.757609144E0,-2.015615050E0,-1.846834878E0,3.250029692E0
9.872320833E-1,-1.190813315E0,-7.416929930E-1,1.000984263E0,1.723401967E0
9.972030834E-1,-5.151108284E-2,1.607633471E0,1.764550520E0,2.387630061E0
1.007173083E0,-8.416224202E-1,1.600175933E0,1.631838605E0,2.435526339E0
1.017143083E0,-1.023844026E0,9.091367841E-2,-7.473969519E-1,1.270875324E0
1.027113083E0,-4.179419448E-1,-1.422597163E0,-5.477975678E-1,1.580677175E0
1.037083083E0,7.640012902E-1,-9.094297296E-1,9.766516596E-1,1.537728477E0
1.047053083E0,1.203263937E0,-9.618605429E-1,2.026118696E-2,1.540594146E0
1.057023083E0,-6.590237425E-1,-6.741254926E-2,-1.794931483E0,1.913278802E0
1.066993083E0,-1.805220536E0,-2.121635887E-1,-1.004894881E0,2.076932424E0
1.076963083E0,-1.375195247E0,3.090925902E-2,-3.488687425E0,3.750074306E0
1.086933083E0,-1.262034521E0,7.306780082E-1,-1.665194632E0,2.213480211E0
1.096903083E0,-1.603048231E0,-1.666654974E0,2.198794575E0,3.190955972E0
1.106874083E0,-1.541256756E0,-1.372685915E0,3.706352951E0,4.242262510E0
1.116844083E0,4.593733780E-1,4.582298892E0,-5.582330936E-1,4.638977390E0
1.126814083E0,9.603453100E-1,2.801820849E0,3.687493926E0,4.729701327E0
1.136784083E0,9.945955950E-1,3.352720365E-1,5.402745987E0,5.503752532E0
1.146754083E0,1.073139196E0,4.612497715E0,-3.853337919E0,6.105323580E0
1.156724083E0,-1.198459938E-3,3.182858166E0,-3.615181410E0,4.816650721E0
1.166694083E0,-2.242866794E0,-1.430777710E0,-2.117083245E0,3.399943790E0
1.176664083E0,-1.080493239E0,-2.109309956E0,-3.965925472E0,4.620088633E0
1.186634083E0,-2.775424215E-1,1.009919393E0,-5.316389628E0,5.418575980E0
1.196604083E0,8.011328638E-1,-1.494672866E0,-4.228501707E-1,1.747759454E0
1.206574083E0,6.303646383E-1,-5.385627678E-1,1.284760748E0,1.529058407E0
1.216545083E0,-5.881496051E-1,-4.031807220E-1,3.295226448E0,3.371496996E0
1.226515083E0,-6.758064209E-1,-3.577809516E0,6.981957897E0,7.874336247E0
1.236485083E0,-7.547209550E-1,2.103301942E0,-1.452979295E0,2.665451484E0
1.246455083E0,-1.666070545E-1,5.761711818E-1,1.035602703E0,1.196747300E0
1.256425083E0,-9.900600560E-1,-8.292486155E-1,-6.082875985E-1,1.427545440E0
1.266395083E0,-1.767363908E0,-2.381700159E0,-3.706779213E0,4.747239510E0
1.276365083E0,-1.233491192E0,-1.720863633E0,2.416671771E-1,2.131026792E0
1.286335083E0,-5.686127419E-1,-6.855313638E-1,1.335620999E0,1.605352657E0
1.296305083E0,-1.151135133E-1,5.399903655E-3,1.878311024E0,1.881842869E0
1.306275083E0,-1.090165265E0,-1.167652421E0,2.953487683E0,3.357821016E0
1.316245083E0,-5.945420005E-1,-7.965366599E-1,8.358279026E-1,1.298675912E0
1.326216083E0,4.886155228E-1,2.069657063E0,-1.671788537E0,2.705014307E0
1.336186083E0,4.337549356E-1,2.890974808E0,-2.042755194E0,3.566332495E0
1.346156083E0,-2.830545735E-1,9.205555192E-1,-1.781600416E0,2.025251194E0
1.356126083E0,-7.648111296E-1,-2.678257488E0,-7.665699720E-2,2.786373186E0
1.366096083E0,-1.354450496E0,-2.510683304E-1,3.596657431E-1,1.423703234E0
1.376066083E0,-1.357529639E0,-1.443346007E0,2.485015197E0,3.178275467E0
1.386036083E0,-9.623664732E-1,-7.519905245E-1,3.533922654E-1,1.271426392E0
1.396006083E0,1.216134755E0,-1.423927112E0,-5.300816739E-1,1.946160000E0
1.405976083E0,6.793118998E-1,-6.993293309E-1,1.418197718E0,1.720991266E0
1.415946083E0,-8.770286997E-1,2.041120020E0,-1.219034536E0,2.534047252E0
1.425917083E0,-6.785762469E-1,2.212582310E0,-7.240542823E-1,2.424920783E0
1.435887083E0,2.656940440E-1,1.992727878E0,-3.435416366E0,3.980407433E0
1.445857083E0,1.282540122E0,3.962237048E-1,-2.214711281E0,2.589758376E0
1.455827083E0,1.719962285E0,7.591147721E-2,4.053231418E-1,1.768705646E0
1.465797083E0,1.121696083E0,-1.021564415E0,1.821949128E0,2.370926946E0
1.475767083E0,2.372042605E0,1.763756761E0,4.393217772E-1,2.988382113E0
1.485737083E0,2.658055943E0,8.805602717E-1,2.062498317E0,3.477721538E0
1.495707083E0,8.658450957E-2,9.570120317E-1,2.403198032E0,2.588190427E0
1.505677083E0,-8.404126313E-2,3.673132580E0,-2.651278435E0,4.530810438E0
1.515647083E0,2.943464971E0,4.720375920E0,-4.309013774E0,7.036585433E0
1.525617083E0,4.911158653E-1,3.520582524E0,-6.777084324E0,7.652749051E0
1.535588083E0,7.804790363E-1,-1.077059754E0,-3.338076013E-1,1.371361643E0
1.545558083E0,8.193327610E-1,-1.643506724E0,3.583176091E0,4.026359574E0
1.555528083E0,2.927869350E-1,8.127085966E-1,4.189522998E0,4.277653844E0
1.565498083E0,2.337315407E0,1.347268653E0,-5.986174732E-1,2.763425232E0
1.575468083E0,1.989653705E0,-1.187455478E-1,1.986357629E-2,1.993292987E0
1.585438083E0,9.208739001E-1,-1.435426831E0,-5.231480455E-1,1.783856161E0
1.595408083E0,4.455715371E-1,-1.147930639E0,8.754603302E-1,1.510863838E0
1.605378083E0,1.781932684E0,-1.660559544E0,1.816240491E0,3.038333690E0
1.615348083E0,1.090792087E0,-3.126814650E0,1.068281622E0,3.479658439E0
1.625318083E0,-6.090132380E-1,-1.891117304E0,1.305301432E0,2.377190276E0
1.635289083E0,8.979796388E-1,-1.667774131E0,9.248833358E-1,2.107901129E0
1.645259083E0,3.985695712E-1,-6.665872622E-1,1.567427432E0,1.749292724E0
1.655229083E0,2.052384096E0,-2.454912269E0,5.462655973E-1,3.246117809E0
1.665199083E0,4.459356725E-1,-1.951392449E0,1.750247061E0,2.658976474E0
1.675169083E0,1.098917816E0,1.778134479E0,-1.470705130E0,2.555847447E0
1.685139083E0,5.443421192E-1,-2.430278242E-2,-2.273859960E0,2.338233968E0
1.695109083E0,-1.937633512E0,-2.013833696E0,1.927370918E0,3.394806097E0
1.705079083E0,-4.248583239E-2,5.757481357E-1,-1.623344940E0,1.722945082E0
1.715049083E0,-7.015791933E-1,4.447740135E-1,-2.832987678E-1,8.776647876E-1
1.725019083E0,-3.113728289E0,-1.467378941E0,-2.234607017E-1,3.449411471E0
1.734990083E0,-8.746269558E-1,-7.087158662E-1,1.297708238E0,1.717933980E0
1.744960083E0,-9.396389307E-1,7.657308966E-2,2.366508508E-1,9.720022548E-1
1.754930083E0,1.450220579E0,1.958409693E0,-1.213285553E0,2.722236229E0
1.764900083E0,-6.793632822E-1,-8.551953426E-1,6.716667384E-1,1.282197235E0
1.774870083E0,-3.286097921E-1,2.822421759E-1,-3.033430815E0,3.064204228E0
1.784840083E0,2.073230809E-1,1.732220972E0,-3.164276884E0,3.613339252E0
1.794810083E0,-1.288100824E0,-2.167058520E0,5.830966240E-1,2.587537060E0
1.804780750E0,-1.567034353E0,1.730995104E-1,-2.415857254E0,2.884774926E0
1.814750750E0,6.985913392E-2,-1.256761648E0,-1.231878530E0,1.761208350E0
1.824720750E0,-6.161759309E-3,2.498123485E-1,3.028919104E0,3.039209620E0
1.834691750E0,7.214237662E-1,2.402783757E0,6.513271987E-1,2.591919974E0
1.844661750E0,1.699792899E-1,-1.586419481E0,2.492673880E-1,1.614854160E0
1.854631750E0,1.380712680E0,-2.145779333E0,3.383072677E0,4.237442293E0
1.864601750E0,2.457351946E-1,1.208958614E0,9.334448290E-1,1.547024875E0
1.874571750E0,-6.591020952E-1,3.336967089E0,-2.653250116E-1,3.411768205E0
1.884541750E0,-7.256054024E-1,1.249790890E0,8.796814352E-1,1.691839205E0
1.894511750E0,-1.196677999E0,-6.342796415E-2,2.137476579E0,2.450483109E0
1.904481750E0,-1.317937557E0,-8.745315000E-1,1.533901252E0,2.203319722E0
1.914451750E0,-7.656583180E-1,4.232750294E0,-2.553819968E0,5.002439819E0
1.924421750E0,-6.953994904E-1,3.094252383E0,-2.092236087E0,3.799398650E0
1.934392750E0,-8.575565945E-1,-2.814290329E0,2.385090959E-1,2.951697809E0
1.944362750E0,6.161540039E-1,1.172443629E0,-1.697752513E0,2.153284332E0
1.954332750E0,1.681809422E-1,1.914011492E0,4.463355124E-1,1.972546631E0
1.964302750E0,-3.750670899E-1,1.236606004E0,3.275649385E0,3.521327679E0
1.974272750E0,2.255132791E0,-2.759824392E-1,-1.920225620E0,2.974736399E0
1.984242750E0,1.334183900E0,-2.041524940E0,-2.378522197E0,3.406646239E0
1.994212750E0,7.316218950E-1,1.564785075E-1,8.213595521E-1,1.111029988E0
2.004182750E0,-7.403602664E-1,-7.922901195E-1,1.621418282E0,1.950603549E0
2.014152750E0,-1.357101769E0,7.863627970E-1,2.283922434E-1,1.585009362E0
2.024122750E0,3.165169461E-1,1.553754303E-1,-3.811302871E-1,5.192155595E-1
2.034093750E0,-1.480049565E0,-1.529739496E0,9.611460131E-1,2.335476675E0
2.044063750E0,-1.241883116E0,5.706736296E-1,-2.068310450E0,2.479082528E0
2.054033750E0,-4.928485415E-1,-1.038119929E0,-2.441017823E0,2.697991972E0
2.064003750E0,1.521528105E0,-2.829415029E-1,2.683029401E0,3.097377993E0
2.073973750E0,-1.402877574E0,7.179439420E-1,-2.194378758E0,2.701630457E0
2.083943750E0,-2.506861418E-1,-1.959744904E0,9.646596050E-1,2.198638621E0
2.093913750E0,1.053925100E0,-2.084853392E0,-3.745808208E-1,2.365942217E0
2.103883750E0,1.389240698E-1,-1.233129542E0,-1.535830248E0,1.974508271E0
2.113853750E0,6.093385259E-1,-7.840613329E-1,1.650059699E0,1.925809602E0
2.123824750E0,-4.890891107E-1,-2.778285806E0,3.296909861E0,4.339089168E0
2.133794750E0,-1.261166064E0,7.967936450E-1,1.649664427E0,2.224143133E0
2.143764750E0,-1.526142435E0,-5.421333700E-1,6.984048861E-1,1.763742812E0
2.153734750E0,-2.205942139E-1,-1.756121759E0,2.211989987E-1,1.783691239E0
2.163704750E0,3.930881720E-1,-2.308890045E-1,-1.031368150E0,1.127629506E0
2.173674750E0,1.897075178E0,-6.405297303E-1,1.075037495E0,2.272636834E0
2.183644750E0,9.649020452E-2,-5.431627724E-1,-5.496571578E0,5.524186390E0
2.193614750E0,-1.604200571E0,-3.107055739E0,4.272671574E-1,3.522756316E0
2.203584750E0,1.933757905E-1,-1.169088789E0,2.446450471E0,2.718323509E0
2.213554750E0,-1.161254836E-1,8.888846603E-1,2.620754215E0,2.769829187E0
2.223525750E0,9.522559065E-1,2.425699579E0,-8.814315069E-1,2.750950974E0
2.233495750E0,9.145659238E-1,5.167631784E-1,-1.611673898E-1,1.062755823E0
2.243465750E0,9.464693557E-1,-2.428049868E0,1.044483454E0,2.807521342E0
2.253435750E0,1.594913219E-1,4.140153202E-1,2.299835047E0,2.342239827E0
2.263405750E0,1.105973213E0,3.333056471E0,7.860616654E-1,3.598657406E0
2.273375750E0,3.625947962E-1,3.959825656E0,-3.630519826E0,5.384456187E0
2.283345750E0,6.683876199E-1,2.313361995E0,-3.889337472E0,4.574421461E0
2.293315750E0,-8.853799123E-2,-1.723037336E0,1.533740453E0,2.308474911E0
2.303285750E0,-1.506688237E-1,1.881010976E0,1.124947574E0,2.196909290E0
2.313256750E0,-7.229544941E-1,5.183545566E0,5.892829782E-1,5.266788610E0
2.323226750E0,3.799824421E-1,1.402503791E0,-6.836710721E-1,1.605867266E0
2.333196750E0,4.258873242E-1,4.979105857E-1,-4.527593805E0,4.574756892E0
2.343166750E0,4.886017818E-1,1.814591284E0,-3.983817952E0,4.404801778E0
2.353136750E0,1.646278743E0,-2.174471328E0,2.112559254E0,3.449850121E0
2.363106750E0,1.557569465E0,-9.321447006E-1,2.879660738E0,3.404021496E0
2.373076750E0,1.456430614E0,4.490322483E-1,-6.009943664E-1,1.638296165E0
2.383046750E0,2.739722396E-1,-2.541424748E0,6.284183925E-1,2.632263325E0
2.393016750E0,-1.847162103E-1,-4.719236005E0,3.912063260E0,6.132662350E0
2.402987750E0,1.285430547E0,-2.292649403E-1,8.778892636E-1,1.573398761E0
2.412957750E0,9.739339469E-1,3.207092535E0,-2.968782830E0,4.477461485E0
2.422927750E0,-9.473860529E-1,1.007010696E0,-3.023091184E0,3.324257989E0
2.432897750E0,-9.182080083E-1,-3.218253993E0,-8.852918386E-2,3.347850374E0
2.442867750E0,-8.253401904E-1,-4.375509480E0,-9.958088923E-1,4.562664242E0
2.452837750E0,5.051563092E-1,-1.967371720E-1,-3.069579472E0,3.117083019E0
2.462807750E0,-5.284310414E-1,5.695840010E-1,9.746197522E-2,7.830479783E-1
2.472777750E0,-2.847246844E-1,-5.330497205E-2,4.242337389E0,4.252215433E0
2.482747750E0,-1.066298612E-1,-1.582436357E0,1.109063028E0,1.935328280E0
2.492717750E0,-2.985219572E-1,-3.486974483E0,5.290637906E0,6.343418310E0
2.502688750E0,6.596892288E-1,1.249190381E0,8.193112725E-1,1.633076069E0
2.512658750E0,-7.517703038E-1,5.353859755E-1,6.925534020E0,6.986760207E0
2.522628750E0,-2.382688484E-1,2.940216258E0,-3.054832209E0,4.246603762E0
2.532598750E0,-7.061532509E-2,-3.003889220E0,-2.784520108E0,4.096570419E0
2.542568750E0,1.247833096E0,-5.550387597E0,2.236340716E0,6.112700689E0
2.552538750E0,1.669108539E-1,-3.704105866E-1,-5.984350401E-1,7.233171732E-1
2.562508750E0,-8.548775464E-2,3.229233018E-1,-1.150546684E0,1.198058966E0
2.572478750E0,-1.987704097E0,3.439539823E-1,2.860956665E0,3.500620653E0
2.582448750E0,-1.974897087E-2,8.679130366E-1,-1.829950458E-1,8.872148825E-1
2.592419750E0,-7.914418347E-1,-4.937119925E-1,1.839626430E0,2.062609297E0
2.602389750E0,-5.933064107E-1,2.024278869E0,-2.938738666E0,3.617444179E0
2.612359750E0,-4.256049037E-1,-4.428967649E-1,-3.332990105E0,3.389117897E0
2.622329750E0,-9.750239410E-1,-1.640433135E0,-1.973177420E0,2.745017612E0
2.632299750E0,-2.506485003E-1,1.916068835E0,-1.232899454E0,2.292201019E0
2.642269750E0,1.130792450E0,2.856499332E0,-1.591051353E0,3.459728950E0
2.652239750E0,9.745166950E-1,5.763653094E-1,-1.128168805E0,1.598325565E0
2.662209750E0,-1.786731494E0,-6.227296364E-1,2.633520441E0,3.242781452E0
2.672179750E0,-4.795664449E-1,3.067367763E0,4.128040695E-1,3.131954049E0
2.682150750E0,-2.062979178E-1,5.637854927E0,-2.309330925E0,6.095980342E0
2.692120750E0,-2.003589008E-1,2.629545796E0,-1.600894555E0,3.085047514E0
2.702090750E0,1.114790229E0,-1.428606639E0,3.393077847E0,3.846641582E0
2.712060750E0,-1.136349059E0,5.914812389E-1,-2.666092941E0,2.957903110E0
2.722030750E0,-4.218459845E-1,-9.628814667E-1,-2.027683411E0,2.283986595E0
2.732000750E0,1.381361136E0,3.820402600E0,-1.624954678E0,4.375398533E0
2.741970750E0,-6.494198370E-1,-4.512630780E0,2.934102994E0,5.421673455E0
2.751940750E0,-7.992211166E-1,-6.647625800E0,4.613321587E0,8.130954387E0
2.761910750E0,-5.021722557E-1,-8.347280413E-2,-1.292931063E0,1.389537843E0
2.771881750E0,4.298045567E-1,7.647585046E-1,8.995379949E-1,1.256485627E0
2.781851750E0,1.139075470E0,2.750123569E0,2.064077066E0,3.622304060E0
2.791821750E0,-1.222111779E0,-5.472575775E0,2.656478949E0,6.204798403E0
2.801791500E0,1.426524445E0,-4.520816005E0,-8.050113219E-1,4.808408528E0
2.811761500E0,-8.052145126E-1,4.866125956E-1,-2.871755887E0,3.021943763E0
2.821731500E0,3.246387286E-1,8.582701010E-1,1.676078639E0,1.910826385E0
2.831701500E0,1.389709937E-1,-7.386001083E-1,4.245075055E0,4.311090962E0
2.841671500E0,-1.359248428E0,-2.729124463E0,1.577091125E0,3.432621891E0
2.851641500E0,8.164858979E-1,8.043266129E-1,-2.003944885E0,2.308546214E0
2.861612500E0,-7.556064427E-1,1.146574962E0,-3.507405531E-1,1.417248805E0
2.871582500E0,-3.338453159E-1,-9.879449719E-1,3.184186068E0,3.350601271E0
2.881552500E0,2.332170003E-1,-4.198373929E-1,2.986307520E-1,5.655386209E-1
2.891522500E0,-5.619162548E-1,-8.897032705E-1,1.198263472E0,1.594727919E0
2.901492500E0,-9.067780173E-1,1.579321253E-1,1.720478886E0,1.951214116E0
2.911462500E0,-6.653798852E-1,-5.879892817E-1,-1.338493736E0,1.606246329E0
2.921432500E0,-1.677262993E0,2.677018463E0,-5.793659250E0,6.598948894E0
2.931402500E0,-4.340139672E0,1.789492403E0,-4.887225634E0,6.776730025E0
2.941372500E0,-2.586610569E0,1.369909949E0,-1.338061627E0,3.218325096E0
2.951342500E0,-7.925680815E-1,-1.204820539E0,1.501325244E-1,1.449929816E0
2.961313500E0,5.557497811E-1,-1.178107242E0,4.956268387E0,5.124586892E0
2.971283500E0,1.855759191E0,1.086630477E0,1.981278153E0,2.924050459E0
2.981253500E0,1.759111294E0,3.062354652E0,-8.242749739E-1,3.626557292E0
2.991223500E0,1.445346048E0,1.374837690E0,-1.577253678E0,2.543016523E0
3.001193500E0,3.210148875E0,1.116647159E0,-5.946633521E0,6.849409238E0
3.011163500E0,3.108635657E-1,-4.120740446E-1,-8.746206701E-1,1.015579879E0
3.021133500E0,2.311378620E0,1.025123908E0,2.866092859E0,3.822020202E0
3.031103500E0,2.605253612E-1,2.386867051E0,-6.134103441E-1,2.478160615E0
3.041073500E0,2.969986187E0,3.026422343E0,-2.277580544E0,4.813254957E0
3.051044500E0,1.527990594E0,1.861679496E0,-3.883744025E-1,2.439557435E0
3.061014500E0,7.430271815E-1,3.779406309E-2,2.771622904E0,2.869740634E0
3.070984500E0,2.153796450E0,3.151926979E-1,-1.945076287E-1,2.185410443E0
3.080954500E0,2.878523747E0,-1.032732890E0,-5.425362432E-1,3.105926876E0
3.090924500E0,2.545923888E0,3.860957426E-1,-7.308855844E-1,2.676750288E0
3.100894500E0,-1.568067994E0,-1.423134229E0,2.153032511E0,3.019883651E0
3.110864500E0,-2.276820260E-1,-1.906347254E0,3.456261690E0,3.953700018E0
3.120834500E0,8.939947613E-1,-3.260274131E0,2.846129295E0,4.419170285E0
3.130804500E0,9.947511309E-1,-2.850550083E0,3.496381776E0,4.619507669E0
3.140775500E0,3.206163705E0,-1.472775044E0,-8.577046752E-2,3.529292933E0
3.150745500E0,1.836002911E0,-1.073022544E0,-9.691409111E-1,2.336989126E0
3.160715500E0,2.435811169E-2,8.734342700E-1,-1.585378969E0,1.810222974E0
3.170685500E0,-9.670680732E-2,2.118687136E0,-1.805428990E0,2.785275790E0
3.180655500E0,-5.603880119E-1,1.552927507E0,1.287791360E0,2.093806379E0
3.190625500E0,-4.967843754E-1,-2.837091254E0,2.681080524E0,3.934980848E0
3.200595500E0,5.737305905E-1,-3.143334788E0,-2.557601947E0,4.092804430E0
3.210565500E0,-1.456138984E0,-2.474115110E0,-4.583234739E0,5.408107524E0
3.220535500E0,-2.243093520E-1,1.359704804E0,-3.076071051E0,3.370656456E0
3.230506500E0,-7.784115339E-1,-1.529911112E0,6.111591661E0,6.348078856E0
3.240476500E0,-7.803321250E-1,2.222353592E0,-1.524619381E0,2.805750875E0
3.250446500E0,-1.009844987E0,2.726568353E-1,-3.230054551E-1,1.094742514E0
3.260416500E0,-5.710848716E-1,-3.528122216E-2,-6.961694956E-2,5.763932815E-1
3.270386500E0,3.217328817E-1,-5.363552685E0,3.430150949E0,6.374727051E0
3.280356500E0,3.207937824E-1,5.501879096E-2,3.458803475E-1,4.749409784E-1
3.290326500E0,-3.582862022E-1,1.589192523E0,-9.168855143E-1,1.869379823E0
3.300296500E0,-5.500617194E-1,-2.048751221E0,1.371037000E0,2.525805201E0
3.310266500E0,-5.479365123E-1,-6.527363777E-1,6.403069514E-1,1.065970071E0
3.320237500E0,9.020386297E-2,4.114100933E-3,-6.580900884E-1,6.642561457E-1
3.330207500E0,-1.084637673E-1,9.800947925E-1,-1.534508193E-1,9.979465643E-1
3.340177500E0,1.145402961E0,2.016457926E0,8.240141881E-1,2.461107453E0
3.350147500E0,6.955342687E-1,-8.656495795E-1,-3.917697637E0,4.072035350E0
3.360117500E0,2.858609446E-1,-2.879951052E0,-2.645753986E-1,2.906171827E0
3.370087500E0,-3.168563770E-1,-7.700812250E-1,5.491839427E-1,9.975099296E-1
3.380057500E0,-1.833298720E-1,8.015105939E-1,3.178823587E0,3.283435468E0
3.390027500E0,-6.234190232E-1,2.396206808E0,1.615645326E0,2.956479015E0
3.399997500E0,-8.000672087E-1,1.080038911E0,-9.833028674E-1,1.665375668E0
3.409968500E0,-2.965950073E-1,2.414469709E0,-2.355025746E0,3.385820261E0
3.419938500E0,-7.896699822E-1,4.401235474E0,-2.941047147E0,5.352028653E0
3.429908500E0,-1.607861367E0,-9.585267529E-1,-4.624703193E-1,1.928178028E0
3.439878500E0,5.575874514E-1,9.048919979E-1,-2.339120734E0,2.569283772E0
3.449848500E0,6.702066156E-1,4.678307542E-1,5.667121410E-2,8.193010122E-1
3.459818500E0,-4.251685186E-1,-6.601483083E-1,8.970546824E-1,1.192170777E0
3.469788500E0,-1.526373985E0,-2.514419675E-2,2.211423976E0,2.687163146E0
3.479758500E0,2.121963331E0,3.892093849E-1,1.001348544E0,2.378426209E0
3.489728500E0,-1.070968125E0,1.116451862E0,4.686555040E-1,1.616500995E0
3.499699500E0,-5.651817054E-1,1.322140828E0,2.311855168E0,2.722528429E0
3.509669500E0,3.017449790E-1,1.075919547E0,-1.157742852E0,1.609043634E0
3.519639500E0,-2.226797183E0,-1.816924908E0,-4.977942261E0,5.748021483E0
3.529609500E0,-2.354426260E0,-1.956611089E0,-9.671522731E-1,3.210456897E0
3.539579500E0,-4.004032580E-1,-4.584810564E-1,1.926484480E0,2.020363853E0
3.549549500E0,-2.388230037E0,-7.083147472E-1,1.078109037E0,2.714345517E0
3.559519500E0,-1.311287227E0,-1.817028696E0,2.682747565E0,3.495454473E0
3.569489500E0,-1.331032982E0,-1.794543228E0,-4.529194772E-2,2.234745076E0
3.579459500E0,-1.175300140E0,4.416428295E-1,1.059924781E0,1.643112702E0
3.589430500E0,-2.821593501E0,7.089939013E-1,-2.634410387E-1,2.921209239E0
3.599400500E0,-1.813348605E0,-1.350227636E0,-4.489907330E-1,2.304981672E0
3.609370500E0,-4.261080931E-1,-3.474256789E0,6.817865145E-1,3.566070834E0
3.619340500E0,-3.723995901E-1,-6.248401889E-1,7.531126052E-1,1.047036443E0
3.629310500E0,3.457263464E-1,-8.980127487E-1,2.115760605E0,2.324305604E0
3.639280500E0,1.301754657E0,-1.688856267E0,1.831675971E0,2.811020729E0
3.649250500E0,3.274450998E-1,1.200518158E0,1.384111959E-1,1.252047044E0
3.659220500E0,2.441953962E0,8.987249395E-1,-1.261333294E0,2.891678984E0
3.669190500E0,5.513667448E-1,6.033171728E-1,-9.929718232E-1,1.286075402E0
3.679161500E0,-1.619703733E0,5.692489555E-1,-1.515185484E0,2.289819121E0
3.689131500E0,-2.144873453E-1,7.308920163E-1,-1.923712315E0,2.069028040E0
3.699101500E0,-1.588417182E0,1.835656463E0,-3.646089792E-1,2.454718620E0
3.709071500E0,1.480995937E-1,1.136777368E0,1.050826514E0,1.555131067E0
3.719041500E0,-6.340846369E-1,2.368978079E0,-1.625363984E0,2.942095944E0
3.729011500E0,4.247931639E-1,2.388061345E-2,-2.190585669E0,2.231520802E0
3.738981500E0,-9.551021118E-2,1.320339886E0,-1.955427613E0,2.361380267E0
3.748951500E0,3.550585757E-1,1.201534697E0,1.122340300E0,1.682082034E0
3.758921500E0,7.715958001E-1,2.586257105E0,-6.770379907E-1,2.782528765E0
3.768892500E0,-2.799457551E-1,7.351865038E-1,7.565718180E-1,1.091453039E0
3.778862500E0,5.991319186E-1,9.116794458E-1,-1.378855312E-1,1.099604878E0
3.788832500E0,3.859745590E0,1.722255855E0,8.855532092E-1,4.318333676E0
3.798802500E0,3.742269181E0,1.089660212E0,-5.298653269E-1,3.933534703E0
3.808772333E0,1.014865334E0,2.376988472E0,-2.082172444E0,3.318955849E0
3.818742333E0,2.619457303E0,-4.334862560E-1,-1.688627349E0,3.146574203E0
3.828712333E0,1.436187700E0,-6.370512217E-2,2.184568884E0,2.615154807E0
3.838682333E0,-6.258621360E-1,-3.954229871E0,3.292202852E0,5.183265082E0
3.848652333E0,4.907868498E-1,-1.369733948E0,-1.961253194E0,2.442039498E0
3.858623333E0,2.608693748E0,1.194865362E0,-2.020764985E0,3.509483927E0
3.868593333E0,1.573884805E0,-3.639831225E0,6.267203611E-1,4.014755676E0
3.878563333E0,1.290449504E0,-3.150026050E0,-1.269874322E0,3.633249899E0
3.888533333E0,-7.740986276E-1,-1.785471273E0,2.403630726E0,3.092665035E0
3.898503333E0,-9.934936872E-1,-1.609368340E0,2.024936389E0,2.770823621E0
3.908473333E0,-1.217834614E0,-1.381965446E0,3.383586062E0,3.852480277E0
3.918443333E0,-2.698103011E-1,-2.010473008E0,2.951929985E0,3.581716062E0
3.928413333E0,-2.810153205E-1,-1.548137760E0,2.350311720E-1,1.590892764E0
3.938383333E0,2.891185015E-2,-3.572935277E-1,1.120049946E0,1.176012942E0
3.948354333E0,-1.592624400E0,9.173278561E-1,9.011652750E-1,2.046959142E0
3.958324333E0,1.332232392E0,9.233124813E-1,-1.106272151E0,1.962444179E0
3.968294333E0,-1.143060055E0,-9.793966350E-1,-1.979521649E0,2.486827300E0
3.978264333E0,-2.357864861E-1,1.941586376E0,-2.870597554E0,3.473569236E0
3.988234333E0,4.655435793E-1,4.643107304E-1,-2.024362777E0,2.128464219E0
3.998204333E0,-1.491446373E0,-5.673208362E-1,-1.024338627E-1,1.598986526E0
4.008174333E0,-1.253212973E0,-7.307777032E-1,-1.423095345E-2,1.450786451E0
4.018144333E0,9.937883138E-1,1.354129776E0,-1.855526764E0,2.502850821E0
4.028114333E0,-3.318580665E-1,-7.587317795E-2,7.111266732E-1,7.884083084E-1
4.038085333E0,3.769018000E-1,-1.884672503E0,3.729975117E0,4.196040966E0
4.048055333E0,5.524094130E-1,-1.215630579E0,1.808644958E0,2.248134882E0
4.058025333E0,1.588196596E0,1.804973491E0,4.499198556E-1,2.445961081E0
4.067995333E0,-3.886334342E-1,-2.201345131E-1,2.578247296E0,2.616649436E0
4.077965333E0,-5.743206111E-1,-2.035819227E0,1.117799937E0,2.392463330E0
4.087935333E0,6.378153066E-1,1.568627573E0,-3.554917667E0,3.937618626E0
4.097905333E0,-5.246390124E-1,2.007786505E0,-2.484535140E0,3.237185136E0
4.107875333E0,-2.141116178E0,-1.005023519E0,3.065809772E0,3.872162228E0
4.117845333E0,-1.836281531E0,-2.415426314E-1,1.774707718E0,2.565123815E0
4.127816333E0,6.918158781E-1,1.244100088E0,-3.310089485E0,3.603205051E0
4.137786333E0,3.533576207E-1,3.405594982E0,-2.458036144E0,4.214840504E0
4.147756333E0,1.152078289E0,4.741434082E-1,-2.294626347E0,2.611016359E0
4.157726333E0,1.323817956E0,-1.125528202E0,-1.754475183E0,2.469309799E0
4.167696333E0,-1.060100198E-1,-5.287455851E-1,8.651364863E-1,1.019446496E0
4.177666333E0,2.057459625E0,1.077334866E0,3.373085632E0,4.095301846E0
4.187636333E0,2.114034214E0,2.290301746E0,-7.147472692E-1,3.197731447E0
4.197606333E0,1.022528183E0,4.183405057E-1,-5.263774627E-1,1.223783435E0
4.207577333E0,-1.805022316E-1,-1.175922138E0,2.444083518E-1,1.214540807E0
4.217547333E0,-1.113295535E0,-1.397196273E0,1.556198439E0,2.369248394E0
4.227517333E0,-1.242559054E0,3.797143838E-1,-2.568097115E-1,1.324419587E0
4.237487333E0,-1.896106440E0,2.961512986E0,1.676473326E0,3.895682433E0
4.247457333E0,-1.766983547E0,1.147155299E0,-1.199123597E-1,2.110112582E0
4.257427333E0,-2.327391512E0,-1.534437441E0,-3.152347979E0,4.208152480E0
4.267397333E0,-2.443945524E0,-1.773116399E0,-1.953695083E-1,3.025719870E0
4.277367333E0,-5.224749579E-1,-2.146461118E0,8.213595521E-1,2.356885005E0
4.287337333E0,9.931641966E-2,4.042954937E-1,9.567775583E-1,1.043427953E0
4.297308333E0,4.270565846E-1,-1.274013273E0,1.094963636E0,1.733329891E0
4.307278333E0,1.429995206E0,-3.726463864E0,5.581974256E-1,4.030260983E0
4.317248333E0,2.649832419E-1,-1.145393240E0,2.610049717E0,2.862603941E0
4.327218333E0,4.948892563E-1,-1.523456663E0,2.364622196E0,2.856094135E0
4.337188333E0,1.852695542E0,-2.077799311E0,2.975974320E0,4.075064896E0
4.347158333E0,-4.288699523E-1,1.106778520E0,2.893155527E-1,1.221716669E0
4.357128333E0,-6.394127659E-2,-2.154956245E-1,-1.781266540E-1,2.868029915E-1
4.367098333E0,3.341817500E-1,-1.420306224E-1,-1.117554354E0,1.175065051E0
4.377068333E0,-2.891592128E-1,6.962308913E-2,-2.390655754E0,2.409086001E0
4.387039333E0,-1.100092741E0,-1.074746596E0,-6.131562241E0,6.321498225E0
4.397009333E0,-5.974699572E-2,-3.958867005E0,-4.660415647E0,6.115200052E0
4.406979333E0,8.782823427E-1,-3.120975913E0,1.467179258E0,3.558719643E0
4.416949333E0,-2.516917167E-1,-1.197819668E0,5.404512430E0,5.541378465E0
4.426919333E0,4.523215994E-2,3.238742637E0,2.718481654E0,4.228669095E0
4.436889333E0,1.756590998E0,2.804424030E0,5.700099707E-1,3.357873946E0
4.446859333E0,2.587835853E0,-4.295481563E-2,1.458887907E0,2.971042484E0
4.456829333E0,4.069101492E-1,-4.158776584E-1,3.866703485E0,3.910233488E0
4.466799333E0,3.699200052E-1,2.223887317E0,-5.238004779E0,5.702561676E0
4.476770333E0,1.749092821E0,5.238785967E0,-2.416578800E0,6.028603254E0
4.486740333E0,1.193540456E0,6.552631935E0,-4.242336220E0,7.896767737E0
4.496710333E0,2.686140704E0,8.800486404E-1,-2.158093277E0,3.556290776E0
4.506680333E0,2.972400502E0,-1.541458778E0,2.188934416E-1,3.355469303E0
4.516650333E0,2.556036063E0,3.376125307E0,2.494564285E0,4.914711936E0
4.526620333E0,3.637144722E0,2.609463242E0,5.015529333E0,6.722622600E0
4.536590333E0,3.582491089E0,6.153495732E-1,2.305087600E0,4.304221921E0
4.546560333E0,1.852707529E0,-1.510789547E0,-2.193440865E0,3.244409510E0
4.556531333E0,1.527068780E0,-3.499562953E0,-6.017539197E-1,3.865357384E0
4.566501333E0,5.745026788E-1,-1.667409849E0,-1.604988776E0,2.384595963E0
4.576471333E0,-1.853468690E0,-1.834115137E0,-3.137188488E0,4.079372026E0
4.586441333E0,-1.901487487E0,-4.857127091E0,-2.692496628E0,5.869997984E0
4.596411333E0,-1.104848647E0,-6.110727443E0,2.702042207E0,6.772201451E0
4.606381333E0,-2.814814824E0,-1.235195071E0,6.296708661E-1,3.137734016E0
4.616351333E0,-2.149869753E0,1.777319377E0,3.653034530E0,4.596244706E0
4.626321333E0,-2.389270256E0,-1.074711220E0,5.257026941E0,5.873665705E0
4.636291333E0,9.966573232E-1,-1.028617035E0,2.828432112E0,3.170395407E0
4.646262333E0,1.463112520E0,1.735840107E0,1.884137190E0,2.950222377E0
4.656232333E0,-1.044209878E0,8.691272110E-2,-4.151137197E-1,1.127052567E0
4.666202333E0,-1.250944254E0,1.387832834E0,-6.514849566E0,6.777477877E0
4.676172333E0,-3.755330033E-1,-3.617250740E0,-3.316792733E0,4.922056683E0
4.686142333E0,-2.121482836E0,-7.149694633E0,1.674898086E0,7.643566339E0
4.696112333E0,-8.316779874E-2,7.864756483E-1,4.177326876E-1,8.944056274E-1
4.706082333E0,1.645164264E0,4.556569389E0,2.098510149E0,5.279454034E0
4.716052333E0,7.098261063E-1,2.748847707E0,5.866466441E0,6.517318875E0
4.726022333E0,-1.309292449E0,-4.480654112E-1,3.003962018E0,3.307385241E0
4.735993333E0,5.565270223E-3,-8.247398275E-1,-9.209236014E-1,1.236255247E0
4.745963333E0,4.613133015E-1,2.622550772E0,-7.165515445E0,7.644291603E0
4.755933333E0,-3.430205839E-1,4.069410664E-1,-4.225794446E0,4.259178660E0
4.765903333E0,-8.062754168E-1,-5.094108310E0,4.989586991E-1,5.181600072E0
4.775873333E0,-1.032973868E-1,-3.647744554E0,4.961315119E0,6.158843917E0
4.785843333E0,-6.757935570E-1,1.337129289E0,1.608928630E0,2.198468331E0
4.795813333E0,1.818474420E0,6.650313765E0,-1.732473280E0,7.108796386E0
4.805783250E0,1.841777475E0,2.440896785E0,-2.216257285E0,3.776495430E0
4.815754250E0,-7.054645219E-1,-3.100997146E0,-3.263152716E0,4.556536968E0
4.825724250E0,-3.765487743E-1,1.405195849E0,-1.276364146E0,1.935321624E0
4.835694250E0,-2.047479305E0,2.881868062E0,3.770784005E0,5.168766492E0
4.845664250E0,-1.534185426E0,1.932223522E0,3.583950262E0,4.351081721E0
4.855634250E0,-9.180527647E-1,2.021970973E0,-4.916479838E0,5.394716072E0
4.865604250E0,6.460171960E-1,5.767673054E-1,-4.765562033E0,4.843612312E0
4.875574250E0,-7.545030731E-1,-1.579593441E0,-2.107126606E0,2.739411043E0
4.885544250E0,-3.301150116E-1,1.773801692E0,3.089490411E0,3.577750601E0
4.895515250E0,1.280035175E-1,2.537200719E0,6.898890013E-1,2.632435987E0
4.905485250E0,2.124641941E0,6.625196466E-1,-9.856668967E-1,2.434044964E0
4.915455250E0,2.677210252E0,-2.183587137E0,-1.283839227E0,3.685614016E0
4.925425250E0,6.251897062E-1,-4.707433400E0,1.262068289E0,4.913614531E0
4.935395250E0,-1.475097412E0,-2.409082377E0,2.571584394E0,3.820030965E0
4.945365250E0,1.406934372E-1,-1.841261896E0,1.332560567E0,2.277225873E0
4.955335250E0,-1.562354534E0,-1.550389815E0,2.764612677E0,3.533800153E0
4.965305250E0,-2.032952921E0,3.295929283E-1,3.692995571E0,4.228444793E0
4.975275250E0,-9.153507663E-1,1.829326852E0,5.356944162E-1,2.114538310E0
4.985246250E0,-1.406473319E0,2.004383133E0,-2.691817181E0,3.638900752E0
4.995216250E0,-1.576283917E0,-8.486789131E-1,-6.859883822E0,7.089635599E0
5.005186250E0,1.128091768E0,-5.693301149E0,-7.448486769E0,9.442786885E0
5.015156250E0,-1.483628646E0,-6.204462402E0,-5.902547269E0,8.691177822E0
5.025126250E0,2.988103346E-1,-2.495050481E0,-5.538116046E0,6.081553572E0
5.035096250E0,4.837070776E-1,-1.179175821E0,6.576948166E-3,1.274547531E0
5.045066250E0,-3.938893209E0,-3.671963429E0,2.039676752E1,2.109564695E1
5.055036250E0,6.268498404E-2,-2.119739343E0,1.934327233E1,1.945917287E1
5.065006250E0,-3.361446750E0,7.161774981E0,-1.010860210E0,7.975724638E0
5.074977250E0,-8.738793162E-1,2.703890804E0,8.755071080E-1,2.973416089E0
5.084947250E0,1.112897120E0,6.128373170E-1,-4.356028311E0,4.537520493E0
5.094917250E0,-3.137105750E0,-4.604734951E-1,-8.161832460E0,8.756082311E0
5.104887250E0,-2.058947742E0,-5.680516797E0,-4.602058681E0,7.595161682E0
5.114857250E0,-4.461037434E-1,-1.054913718E0,2.735804615E0,2.965885769E0
5.124827250E0,-1.969183480E0,2.664789889E0,-2.313341530E0,4.041081261E0
5.134797250E0,-1.766515477E0,4.697692816E0,-5.335286075E0,7.324900834E0
5.144767250E0,1.966816965E-2,-3.987195888E-1,6.744567958E0,6.756371888E0
5.154738250E0,-2.493668089E-1,-3.516239505E0,1.146445330E1,1.199415747E1
5.164708250E0,2.325717600E0,2.867647341E0,5.020632198E0,6.232103280E0
5.174678250E0,1.170540653E0,5.985198832E0,1.259038262E0,6.227194218E0
5.184648250E0,3.369860601E0,5.460036421E0,-1.333383270E0,6.553309784E0
5.194618250E0,1.763272173E0,-8.098203644E-1,-2.065724811E0,2.834105992E0
5.204588250E0,-5.836431194E-1,-2.698049144E0,-1.848114249E0,3.321992587E0
5.214558250E0,1.016446713E-1,3.037789915E0,-4.617224019E0,5.527861869E0
5.224528250E0,1.342082173E-1,6.266456922E0,-9.207677146E0,1.113857319E1
5.234498250E0,1.212628984E0,8.105012727E0,-1.318377326E1,1.552332367E1
5.244469250E0,-1.077334647E0,5.136382509E0,-6.925227626E0,8.689180220E0
5.254439250E0,-1.529282244E0,7.304645848E-1,4.608951963E0,4.910674179E0
5.264409250E0,1.284058973E-1,-3.197053159E0,1.581533138E1,1.613574738E1
5.274379250E0,2.476927913E0,-7.882991610E0,1.138073052E1,1.406405901E1
5.284349250E0,5.247836287E0,-4.021849119E0,-3.887787960E0,7.670068530E0
5.294319250E0,-3.517130913E-1,-1.657375735E-1,-1.503962455E1,1.504464947E1
5.304289250E0,9.475262399E-1,-2.899625471E0,-6.860661501E0,7.508282765E0
5.314259250E0,-1.574182574E0,-5.501474469E0,2.533912538E0,6.258193418E0
5.324230250E0,2.461840964E-1,-4.575566408E0,7.586662906E0,8.863062034E0
5.334200250E0,9.322962166E-1,-2.197630395E0,5.066059216E0,5.600331380E0
5.344170250E0,-5.778851103E-1,-1.120613033E0,8.377259088E-1,1.513773255E0
5.354140250E0,-1.206934015E0,9.904727232E-1,3.797685290E0,4.106110020E0
5.364110250E0,-1.612831061E0,1.361903357E0,5.426032523E0,5.822184618E0
5.374080250E0,-6.802114208E-1,-3.141739083E0,5.409933969E0,6.292900571E0
5.384050250E0,-1.006190551E0,-3.885154666E0,1.075244486E-1,4.014773681E0
5.394020250E0,-1.182817905E0,-1.259576498E0,5.210898256E-1,1.804750885E0
5.403991250E0,-9.187484372E-1,-1.205452916E0,-2.815713834E0,3.197727289E0
5.413961250E0,-2.817852160E0,-4.864203684E0,1.254195013E0,5.759667821E0
5.423931250E0,-1.204472484E0,-3.291248002E0,3.445573565E0,4.914778181E0
5.433901250E0,-7.003023807E-2,1.866431236E-1,-8.432415873E-1,8.664850053E-1
5.443871250E0,4.749996599E-1,6.645495075E-1,-6.486070740E-1,1.043044515E0
5.453841250E0,1.213660799E0,1.271698068E0,-1.362850313E0,2.224308766E0
5.463811250E0,1.106692712E0,8.945742935E-1,2.917003396E0,3.245603294E0
5.473781250E0,1.957433792E0,2.416278838E0,1.308776432E0,3.373847392E0
5.483751250E0,5.401589115E-1,3.008854676E0,-3.514465460E0,4.657944351E0
5.493722250E0,1.403391691E0,-1.398121595E0,-3.205061797E0,3.767847311E0
5.503692250E0,5.343186029E-1,-3.493763393E0,-5.965494300E0,6.933902311E0
5.513662250E0,-6.624987428E-1,-2.906593306E0,-3.255963564E-1,2.998866822E0
5.523632250E0,1.486688786E0,3.423565814E0,-2.001218913E0,4.235082475E0
5.533602250E0,-9.889547861E-1,7.471977373E0,-4.579008957E0,8.819058932E0
5.543572250E0,-1.361924699E0,3.978520082E0,-2.860878312E0,5.086067798E0
5.553542250E0,-1.116300857E0,-3.285462767E-2,1.367903477E-1,1.125130494E0
5.563512250E0,-2.180254078E0,6.259116912E-1,3.218942503E0,3.937875585E0
5.573483250E0,-3.426389435E-1,1.974021466E0,2.078755331E0,2.887106843E0
5.583453250E0,2.261717048E0,5.372518805E0,9.896278006E-1,5.912587040E0
5.593423250E0,-1.496007932E0,1.044555667E0,-3.849802108E0,4.260294889E0
5.603393250E0,-1.914257660E0,-7.157871965E-1,1.700760906E0,2.658819542E0
5.613363250E0,-2.503887378E0,3.195519726E0,-1.808257288E-1,4.063680138E0
5.623333250E0,1.630404868E0,2.524901394E0,-4.051381359E0,5.044505724E0
5.633303250E0,2.602300987E0,-6.362575207E0,-4.903896046E-1,6.891648254E0
5.643273250E0,1.080232161E0,-1.808790261E0,1.428923265E0,2.545671902E0
5.653243250E0,2.984797476E0,1.543464665E0,3.093295194E0,4.567250191E0
5.663214250E0,-7.161731127E-1,-3.156042250E0,1.605605657E0,3.612682679E0
5.673184250E0,-1.018624070E0,-3.534249221E0,-6.533210993E-2,3.678692817E0
5.683154250E0,-3.472968355E-1,-6.552097499E-1,-3.069425690E-1,8.025762575E-1
5.693124250E0,-1.919212883E0,-3.248484390E0,6.098048925E0,7.170929480E0
5.703094250E0,-5.698596607E-1,-3.926871626E0,5.647624454E0,6.902225929E0
5.713064250E0,-1.885620336E0,7.908417642E-1,-1.057270145E-1,2.047479658E0
5.723034250E0,3.668725826E-2,5.148947006E-1,-4.764081518E0,4.791965695E0
5.733004250E0,8.153660830E-1,-4.107257060E0,-9.939898235E-1,4.303765580E0
5.742975250E0,1.281744608E0,-4.119576266E0,2.189975220E0,4.838364322E0
5.752945250E0,-9.389138029E-1,-4.777765757E-1,1.435542313E0,1.780621049E0
5.762915250E0,-1.459228507E0,4.519491318E-1,2.653813203E0,3.062079419E0
5.772885250E0,-1.555869533E0,3.175580721E0,-9.032696879E-1,3.649786165E0
5.782855250E0,1.474971550E0,1.072980737E0,-6.896369863E-1,1.949981515E0
5.792825250E0,-5.624647967E-1,3.276124763E-1,-3.617706238E0,3.675798554E0
5.802795958E0,2.932021604E-1,-1.354864771E0,-3.204029764E0,3.491050384E0
5.812765958E0,-9.377280606E-1,-2.620750707E0,9.407713902E-1,2.938148906E0
5.822736958E0,-2.410043075E0,-1.291494694E0,1.689979810E-1,2.739493837E0
5.832706958E0,-1.847893808E0,3.407684192E-1,-2.666920906E0,3.262407357E0
5.842676958E0,-9.568336185E-1,1.983386659E0,-1.144854419E0,2.481943765E0
5.852646958E0,-2.734983227E-1,2.706644258E0,3.611853175E0,4.521748316E0
5.862616958E0,2.973579593E-2,-2.085075002E0,3.802422119E0,4.336684904E0
5.872586958E0,2.116636956E0,-1.132872013E0,9.011114806E-1,2.564284091E0
5.882556958E0,1.511395465E0,2.746788025E0,-1.605748914E0,3.522440955E0
5.892526958E0,5.923044172E-1,3.123725274E0,-1.524327021E0,3.525912219E0
5.902497958E0,4.368427771E-1,1.945008167E0,-2.526437457E0,3.218194308E0
5.912467958E0,1.076780842E-1,1.058201607E0,2.012712784E0,2.276488077E0
5.922437958E0,2.709140361E-1,2.353712461E0,-4.593718212E0,5.168713938E0
5.932407958E0,-6.155244780E-1,3.199565415E0,-8.069571583E0,8.702532664E0
5.942377958E0,-1.511590616E0,2.617114908E0,-2.395929943E0,3.856770271E0
5.952347958E0,-2.165665713E0,-3.129511678E0,6.018668295E0,7.120977416E0
5.962317958E0,-1.176077820E0,-2.595894193E0,1.075911069E1,1.113015222E1
5.972287958E0,-4.755715176E-1,2.239603463E0,6.229589642E0,6.637000757E0
5.982257958E0,-4.608388365E-1,2.465886323E0,-2.253820383E0,3.372339560E0
5.992228958E0,4.788170146E-1,-1.757825053E-1,-8.318447208E0,8.334070384E0
6.002198958E0,-1.372975937E-1,-2.105406648E0,-6.861758439E0,7.178810253E0
6.012168958E0,5.297990706E-1,-6.285253381E0,2.022246085E0,6.623788670E0
6.022138958E0,1.273566400E0,-1.697090901E0,7.011885701E0,7.325887658E0
6.032108958E0,1.655557543E0,3.963110622E0,4.540977497E0,6.250407443E0
6.042078958E0,1.161190736E0,-1.692656080E0,-6.485585421E-1,2.152690575E0
6.052048958E0,8.855897543E-1,-4.558905352E0,7.714816332E-2,4.644764694E0
6.062018958E0,-1.464691561E0,-2.321659487E0,1.855672944E0,3.313449293E0
6.071989958E0,-1.417932839E0,1.001116995E0,1.886616409E0,2.563608833E0
6.081959958E0,-3.486364691E-1,-1.912687097E0,8.606645358E-1,2.126185026E0
6.091929958E0,3.536024728E-1,-7.031118947E-1,-4.939992077E0,5.002291752E0
6.101899958E0,-6.914176096E-1,-3.347081895E0,-2.095096545E0,4.008795961E0
6.111869958E0,5.403295406E-1,-7.637872821E-1,-2.990142124E0,3.133093830E0
6.121839958E0,1.398213250E0,-2.778054256E0,-7.105711877E-2,3.110889721E0
6.131809958E0,8.823392871E-1,-3.523766333E0,4.642861721E0,5.895050190E0
6.141779958E0,2.956260433E0,-1.570388462E0,5.428508819E0,6.377640917E0
6.151750958E0,1.951109152E0,-1.901043829E-1,6.773777139E0,7.051739029E0
6.161720958E0,-4.965588191E-1,9.840276883E0,1.529293646E0,9.970775238E0
6.171690958E0,3.720844983E0,8.062413422E0,-4.552712858E0,9.978696906E0
6.181660958E0,2.922599766E0,-3.410028926E0,-4.808356635E0,6.579527354E0
6.191630958E0,3.259655788E0,-8.998861381E0,-7.912349895E0,1.241813766E1
6.201600958E0,-5.911290172E-1,-2.508415461E0,-3.419107897E0,4.281574530E0
6.211570958E0,3.111120138E0,1.414135657E0,2.584719579E0,4.284813120E0
6.221540958E0,-9.576278166E-1,6.025259861E0,5.655441597E0,8.318943868E0
6.231510958E0,8.893009090E-1,7.201519675E0,2.679398865E-1,7.261166127E0
6.241481958E0,2.050868205E0,1.211731364E0,-2.094387277E0,3.171878207E0
6.251451958E0,1.595681470E0,-1.217925319E0,-8.331323361E-1,2.173396174E0
6.261421958E0,1.888071197E0,3.987643200E-1,-1.870200936E0,2.687280664E0
6.271391958E0,7.095523104E-2,3.452294939E0,-1.149357945E0,3.639285462E0
6.281361958E0,-7.836716160E-2,-1.621009270E0,-1.986129003E0,2.564862741E0
6.291331958E0,-1.108703497E0,-2.533933880E0,6.623749280E-1,2.844078919E0
6.301301958E0,-6.243664914E-1,-5.110960570E-1,4.314077463E0,4.388885627E0
6.311271958E0,9.318495624E-2,-1.137772856E0,2.725412943E0,2.954841150E0
6.321242958E0,1.196617042E0,2.574012743E0,1.351421345E0,3.143846942E0
6.331212958E0,1.172652521E0,1.694969531E0,1.877213502E-1,2.069607439E0
6.341182958E0,2.182672048E-1,-1.135278142E0,-2.987640685E-1,1.194050669E0
6.351152958E0,9.531153741E-1,2.769062993E-1,-1.562159091E0,1.850796326E0
6.361122958E0,1.909828394E0,-1.197089643E0,-2.167252940E-1,2.264384676E0
6.371092958E0,1.086696843E0,-5.958437880E0,2.309306951E0,6.482035992E0
6.381062958E0,-1.275990802E0,-3.106679763E0,1.019157994E0,3.509742824E0
6.391032958E0,-1.380635789E-1,-4.137153581E-1,1.856586864E0,1.907127875E0
6.401003958E0,1.651088224E0,3.810505310E0,-2.855008292E-1,4.162637838E0
6.410973958E0,-1.574669062E-1,1.100014461E0,1.185359251E0,1.624778199E0
6.420943958E0,-1.586677781E-1,-1.951408821E0,-1.479822693E0,2.454189694E0
6.430913958E0,3.198690087E-2,-2.867964845E0,-1.064521862E0,3.059322198E0
6.440883958E0,-1.972699995E0,-3.538339933E0,2.088745884E0,4.557878248E0
6.450853958E0,-1.812700587E0,-1.452506256E0,-1.972371089E-1,2.331214344E0
6.460823958E0,-6.662084357E-1,8.918816507E-2,-1.402478648E0,1.555228140E0
6.470793958E0,-1.653919446E0,-9.251938230E-1,-4.197516727E0,4.605494525E0
6.480764958E0,-1.053791125E0,-1.029564868E0,2.213346541E-2,1.473421000E0
6.490734958E0,-1.539705198E0,-1.667821493E0,2.108818206E0,3.098295476E0
6.500704958E0,-4.109739641E-1,-4.595832565E-1,-1.670397484E-1,6.387633728E-1
6.510674958E0,-1.096075558E0,2.474137622E0,-2.474687260E0,3.666989996E0
6.520644958E0,-1.453804922E-1,9.672157153E-1,-6.120572984E-1,1.153800617E0
6.530614958E0,-1.002070968E-1,-6.967480776E-1,3.805646859E0,3.870199912E0
6.540584958E0,-8.547364824E-1,-5.147084668E-1,3.431233853E-1,1.055098535E0
6.550554958E0,3.504639798E-1,9.995923331E-1,-4.758413812E0,4.874885828E0
6.560525958E0,1.508395697E0,-5.903530186E-1,-2.113964925E0,2.663197696E0
6.570495958E0,7.115332009E-1,1.344611386E0,-2.842425084E-1,1.547595903E0
6.580465958E0,1.975169859E0,1.026865501E0,5.583986283E0,6.011376842E0
6.590435958E0,8.143501293E-2,3.811567749E0,4.061370158E0,5.570404647E0
6.600405958E0,2.874644704E-2,2.541771780E0,-3.434336386E0,4.272715360E0
6.610375958E0,5.704232957E-1,2.846837978E0,-2.394808447E0,3.763638759E0
6.620345958E0,2.837336837E0,2.835448186E0,1.328688540E0,4.225595814E0
6.630315958E0,1.872929539E0,-5.817783692E-1,5.910901771E0,6.227767728E0
6.640286958E0,-3.352026008E-2,4.678495530E0,-3.278157256E0,5.712771571E0
6.650256958E0,3.142345586E-1,3.879588409E0,-7.952627270E0,8.854051619E0
6.660226958E0,-1.754502665E0,-2.239663981E0,-4.540936566E0,5.358589296E0
6.670196958E0,-2.066768831E0,-7.686118197E0,7.697970504E-1,7.996282502E0
6.680166958E0,-1.490545902E0,-3.284946750E0,5.989855555E0,6.992207935E0
6.690136958E0,-7.602095170E-1,-7.591498554E-2,1.860476432E0,2.011231998E0
6.700106958E0,-6.542615508E-1,-1.181105402E-1,2.656222256E0,2.738160870E0
6.710076958E0,4.609860401E-1,-8.242837447E-1,-2.460248730E0,2.635294222E0
6.720046958E0,8.836158074E-1,-3.175233104E0,-1.257170076E0,3.527514530E0
6.730017958E0,6.464210194E-1,1.909843597E0,-2.471906324E0,3.189934729E0
6.739987958E0,9.397264928E-2,8.245003840E-1,-1.721434906E0,1.911012789E0
6.749957958E0,-8.784963508E-1,-4.132073812E0,-1.473141664E0,4.473917321E0
6.759927958E0,2.684352918E-1,-9.751664668E-1,-5.814995740E0,5.902303161E0
6.769897958E0,-2.272325505E0,-1.822238857E0,2.056035975E0,3.565291234E0
6.779867958E0,-2.733464852E0,-2.103644004E-1,1.122103605E1,1.155109230E1
6.789837958E0,1.228335556E0,2.415626581E0,4.527872717E0,5.276901681E0
6.799807958E0,-1.212417973E-1,-7.812102306E-1,-2.752931694E0,2.864196556E0
6.809778708E0,-9.643710449E-1,1.081983402E-1,-3.801211161E0,3.923126901E0
6.819748708E0,-3.316598825E-1,9.213276440E-1,-6.472150859E0,6.545806264E0
6.829718708E0,-2.332361134E-1,-2.743133223E0,-4.639865608E0,5.395139648E0
6.839688708E0,-7.756200001E-1,-8.930220916E0,-2.487970964E0,9.302710977E0
6.849658708E0,1.563463751E0,-4.353169608E0,-1.277107912E-1,4.627182142E0
6.859628708E0,-1.115626381E0,1.273994562E0,2.777675942E0,3.253178139E0
6.869598708E0,-4.095866757E-1,3.060551956E0,5.467498637E0,6.279194285E0
6.879568708E0,1.913009133E0,2.500995637E0,1.098339234E0,3.334806170E0
6.889539708E0,-5.836105943E-2,-5.099824548E0,5.804024025E0,7.726468230E0
6.899509708E0,2.466782409E0,1.271628194E0,4.257693931E0,5.082323419E0
6.909479708E0,-1.390658940E0,4.688972864E0,3.740986009E0,6.157546193E0
6.919449708E0,-1.157514518E0,2.618828727E0,4.645860758E0,5.457300243E0
6.929419708E0,-1.086430575E-1,1.680686830E0,-1.733066188E0,2.416615390E0
6.939389708E0,-1.737646312E0,1.568141962E0,-5.550510389E-1,2.405528127E0
6.949359708E0,-6.704120721E-1,3.894448815E0,8.258139610E-2,3.952594541E0
6.959329708E0,2.238620107E0,8.643178761E0,-7.355793782E0,1.156821772E1
6.969300708E0,2.858095330E0,5.399278003E0,-9.412730228E0,1.122142603E1
6.979270708E0,2.481214214E0,1.004717125E0,-5.378405197E0,6.007755233E0
6.989240708E0,-1.268627403E0,-2.477127888E0,3.495149183E0,4.467845775E0
6.999210708E0,-2.454523429E0,-2.060170833E0,7.741296033E0,8.378344311E0
7.009180708E0,-2.671328537E0,-2.866419718E0,-1.833505565E-1,3.922496091E0
7.019150708E0,9.456022136E-1,-2.065170787E0,-3.460362927E0,4.139227647E0
7.029120708E0,1.159934169E0,-9.009357718E-1,1.704334724E-1,1.478573674E0
7.039090708E0,9.770037351E-1,4.048310986E-1,3.467518165E0,3.625204372E0
7.049061708E0,1.927045666E-1,-1.428799304E-1,-1.335930902E-1,2.745848471E-1
7.059031708E0,-1.415415174E0,-8.062164330E-1,4.408560866E-1,1.687524560E0
7.069001708E0,-1.008018829E0,-4.122856846E0,1.594997638E0,4.534100572E0
7.078971708E0,1.793932706E-1,2.483132978E0,-3.756257767E0,4.506395871E0
7.088941708E0,-1.332961247E0,2.006670564E0,-5.604433411E-1,2.473380112E0
7.098911708E0,5.431353635E-1,2.674224079E-3,2.164167364E0,2.231282939E0
7.108881708E0,1.586215851E-1,-1.551986105E0,4.973507733E0,5.212446723E0
7.118851708E0,-6.946113588E-1,-2.596947861E0,7.211699678E0,7.696443034E0
7.128822708E0,-7.420444107E-1,1.376361474E0,1.444782668E0,2.128942877E0
7.138792708E0,-1.513211902E-2,-1.563657732E0,-1.944641839E0,2.495372991E0
7.148762708E0,-1.025369491E0,-4.770645602E0,1.780162001E0,5.194171619E0
7.158732708E0,6.528549300E-1,-2.003278010E0,9.452766699E-1,2.309305161E0
7.168702708E0,9.378050246E-1,7.984907994E-1,-7.847226530E-1,1.460429890E0
7.178672708E0,1.462274760E0,2.672744441E0,-4.714659097E0,5.613360911E0
7.188642708E0,3.511848246E0,3.302507401E-2,2.049974166E0,4.066517286E0
7.198612708E0,-2.174864261E0,-7.078563255E0,1.086610538E1,1.314946153E1
7.208583708E0,-2.720464737E0,2.572751498E-1,9.727771191E0,1.010428875E1
7.218553708E0,-1.687227233E0,5.673649827E0,-6.818490797E-1,5.958351807E0
7.228523708E0,4.401653843E-1,4.725933991E0,-6.410210134E0,7.976151428E0
7.238493708E0,1.794328051E0,-1.679957974E0,-9.945097579E0,1.024435639E1
7.248463708E0,2.859913741E-1,-2.584366992E0,-1.064237805E1,1.095540754E1
7.258433708E0,1.134050300E-1,2.266088426E0,-7.016492722E0,7.374224541E0
7.268403708E0,-3.006790316E-1,1.218267966E0,7.637826628E0,7.740218364E0
7.278373708E0,-9.673135100E-1,-4.021369940E-1,1.650538586E1,1.653859643E1
7.288344708E0,2.118446962E0,2.129998282E0,6.611975327E0,7.262432646E0
7.298314708E0,1.974936702E0,5.317748521E0,-3.670943967E0,6.756822768E0
7.308284708E0,2.284744260E0,4.664488525E0,-7.139555562E0,8.828972939E0
7.318254708E0,1.692189034E0,-6.781103700E-1,-1.939556515E0,2.661807070E0
7.328224708E0,-1.797724625E-1,-3.465963098E0,1.169296950E0,3.662304424E0
7.338194708E0,-2.062337080E-1,-1.858263845E0,1.624713188E0,2.476967865E0
7.348164708E0,-2.226509354E-1,2.860191849E-1,-1.827494043E0,1.863092829E0
7.358134708E0,-1.593155035E-1,1.149591833E-2,-7.406466923E0,7.408189108E0
7.368105708E0,-3.860023333E-1,-2.390793748E0,-5.089953863E0,5.636712063E0
7.378075708E0,2.124027398E-1,-3.677809183E0,-1.469166142E0,3.966086795E0
7.388045708E0,-2.051998618E0,-1.034682936E0,1.409284807E0,2.695802436E0
7.398015708E0,-1.168663075E-1,1.489630228E0,7.251213992E-1,1.660860317E0
7.407985708E0,-1.343971993E0,-1.048417753E0,3.345366907E0,3.754586561E0
7.417955708E0,1.300939153E-1,-5.966786535E0,3.395816098E0,6.866660976E0
7.427925708E0,-6.602143087E-1,-6.459523212E0,5.383306333E0,8.434530819E0
7.437896708E0,8.509750416E-1,1.562036884E-1,1.534521056E0,1.761622260E0
7.447866708E0,-5.288450243E-1,4.036058730E0,3.154128456E-1,4.082760390E0
7.457836708E0,-4.585613094E-1,1.137079961E0,-7.632399827E-1,1.444217637E0
7.467806708E0,-2.793769306E-1,-1.600002855E-2,-6.136086817E0,6.142464399E0
7.477776708E0,-1.640311659E0,-8.929955453E-1,-5.888451971E0,6.177534298E0
7.487746708E0,-3.236121403E-1,-3.729407060E0,-2.650535839E0,4.586779052E0
7.497716708E0,7.154343170E-1,-6.401894224E0,2.873266808E0,7.053492614E0
7.507686708E0,3.225364354E-1,-5.120261736E0,4.843061614E0,7.055236055E0
7.517657708E0,-1.681161185E0,-2.801262732E0,6.009805670E0,6.840404960E0
7.527627708E0,-1.788510692E-1,3.426930010E0,3.641398571E0,5.003560787E0
7.537597708E0,5.432244605E-1,2.178636007E0,3.258781922E0,3.957424324E0
7.547567708E0,1.114126132E0,-1.389631438E0,7.017664504E-1,1.914374238E0
7.557537708E0,1.366319028E0,-3.237515599E-2,-2.093675671E0,2.500270716E0
7.567507708E0,-2.423295935E-1,6.637756285E-1,-1.453718383E0,1.616359754E0
7.577477708E0,4.456360392E-2,2.880766154E0,-2.601101723E0,3.881562794E0
7.587447708E0,1.348400235E0,1.765468533E0,1.058085832E0,2.460611299E0
7.597418708E0,-1.137830890E0,2.387145086E0,-2.040972962E0,3.340462757E0
7.607388708E0,-1.192585752E0,4.004798054E0,-2.147667106E0,4.698206278E0
7.617358708E0,-2.946435722E-1,5.276889932E0,-2.529207868E0,5.859118930E0
7.627328708E0,1.960873636E-1,5.957531562E0,-5.376532334E0,8.027311661E0
7.637298708E0,-4.598528132E-1,4.485842931E0,-7.422731538E0,8.685113407E0
7.647268708E0,-6.051355107E-1,-6.597352025E-1,-2.409581437E0,2.570510110E0
7.657238708E0,-8.707055207E-1,-4.595446357E0,4.569196159E0,6.538639680E0
7.667208708E0,-1.500037687E0,-5.180124945E0,1.084078226E1,1.210811164E1
7.677179708E0,-3.700049543E-2,1.191178401E0,5.385573299E0,5.515856668E0
7.687149708E0,-2.897174757E-2,4.753360648E0,2.374436163E0,5.313494510E0
7.697119708E0,4.105884499E-1,3.074270985E0,-3.687329035E0,4.818310947E0
7.707089708E0,9.587401763E-1,1.966577376E0,-7.317341323E0,7.637414048E0
7.717059708E0,3.372428771E-1,-1.722057635E-1,-6.400282146E0,6.411474022E0
7.727029708E0,-3.510714325E-1,-5.865447271E0,-1.061329867E0,5.971025366E0
7.736999708E0,-2.354761598E0,-3.284091010E0,1.123153063E0,4.194237565E0
7.746970708E0,-3.319868661E0,-3.070498362E0,3.336844590E0,5.619966186E0
7.756940708E0,-2.399621582E0,-2.186724460E0,5.089169751E0,6.036521876E0
7.766910708E0,-3.088691973E0,-3.380834947E0,1.013924151E0,4.690213772E0
7.776880708E0,-1.133377139E0,-1.615072299E0,3.770272958E-1,2.008768740E0
7.786850708E0,-1.483824820E0,-9.396387845E-2,-9.992950022E-2,1.490151405E0
7.796820708E0,-4.466170010E-2,-3.300033151E0,3.058879652E0,4.499884242E0
7.806790458E0,-4.871703195E-2,-5.855812229E0,3.275014962E0,6.709592626E0
7.816760458E0,-7.384151170E-1,-3.787171412E0,2.718621987E0,4.720045518E0
7.826731458E0,-9.643858092E-1,4.200156745E0,-6.377294987E-1,4.356381019E0
7.836701458E0,9.818512961E-1,4.531435133E0,-9.418285668E-2,4.637543180E0
7.846671458E0,-3.574056773E0,2.129564711E0,-3.846003172E0,5.665745147E0
7.856641458E0,-2.448581927E0,1.779873149E0,-4.467898995E0,5.396816035E0
7.866611458E0,-1.054941638E0,-1.189831787E0,1.251722226E0,2.023711953E0
7.876581458E0,5.355794453E-1,-1.864124510E0,5.743920495E0,6.062543046E0
7.886551458E0,-8.095580437E-1,-1.876846882E0,1.424463594E0,2.491392176E0
7.896522458E0,2.844222737E-1,-8.351203895E-1,-1.057983506E-1,8.885467831E-1
7.906492458E0,1.346421976E0,-4.283998508E0,1.015612827E0,4.604016157E0
7.916462458E0,1.098869284E0,-4.448283926E-1,-8.456933248E-1,1.456222236E0
7.926432458E0,1.517502297E-1,4.550809297E0,2.986970594E0,5.445630057E0
7.936402458E0,1.247657680E0,4.499913086E0,3.251667615E0,5.690273257E0
7.946372458E0,-2.890515509E0,3.536441927E0,-2.832536273E0,5.374454684E0
7.956342458E0,-3.159086895E0,3.805134643E0,-7.280179929E0,8.801130578E0
7.966312458E0,-1.682384825E-1,2.127159167E0,-5.121437611E0,5.548173890E0
7.976283458E0,-1.477866653E0,3.693362192E0,-8.985468918E-1,4.078284032E0
7.986253458E0,6.624434866E-1,-1.531412092E-1,-5.750017387E-1,8.904552781E-1
7.996223458E0,1.459733122E0,1.980818562E0,-5.016796424E0,5.587728458E0
8.006193458E0,-2.095145661E0,2.327930041E0,-4.755845130E0,5.694467185E0
8.016163458E0,-1.649397355E0,-2.328731694E0,4.814248289E0,5.596471168E0
8.026133458E0,-8.118927638E-1,-3.925218033E0,6.574875328E0,7.700356618E0
8.036103458E0,-7.496266414E-1,-3.509488602E0,4.029298764E-1,3.611205178E0
8.046074458E0,-3.813660029E-1,-4.611155194E-1,-1.669382992E0,1.773388600E0
8.056044458E0,2.723154456E0,1.478927192E0,-4.709473202E0,5.637546777E0
8.066014458E0,1.702448705E0,-1.335789984E0,-3.076226002E-1,2.185703122E0
8.075984458E0,-3.137037629E0,-3.360053066E0,3.354514291E0,5.690670243E0
8.085954458E0,-2.204930936E0,-8.732056439E-1,2.596959556E0,3.516874673E0
8.095924458E0,-1.657244611E0,-1.413718166E0,-3.843924487E-1,2.211971136E0
8.105894458E0,-1.651642394E0,9.421080637E-1,3.016610130E0,3.565869723E0
8.115864458E0,-6.205016280E-1,-4.594028407E0,3.046523901E0,5.547199938E0
8.125835458E0,-1.604490447E0,-3.585235772E0,2.563735676E0,4.690527237E0
8.135805458E0,-1.387615026E0,1.073583877E0,2.686799685E0,3.208886154E0
8.145775458E0,-2.108670271E0,-2.366945295E0,7.683574659E-1,3.261792994E0
8.155745458E0,-1.962878135E0,-1.124405537E0,8.903338927E-1,2.431022999E0
8.165715458E0,-1.054313939E0,-3.293213544E0,4.755565048E0,5.879815665E0
8.175685458E0,-1.072124558E0,-8.362711215E-1,3.410672704E0,3.671714688E0
8.185655458E0,-7.384312700E-1,2.538084526E0,-2.032959938E-2,2.643400669E0
8.195626458E0,-1.159880302E0,-1.608354433E0,-2.255452926E0,3.003197329E0
8.205596458E0,-9.306020589E-1,-3.233491252E0,-1.860747743E0,3.844979588E0
8.215566458E0,-4.661349886E-1,1.060179720E0,-3.589623815E0,3.771824758E0
8.225536458E0,3.346540589E-2,5.278569252E0,-7.332590277E0,9.035003788E0
8.235506458E0,-8.153335579E-1,2.058059988E0,-4.269295977E0,4.809081811E0
8.245476458E0,-8.558752276E-1,-3.728204581E0,-3.929387391E-1,3.845313076E0
8.255446458E0,-1.421920201E0,-2.683374971E0,4.451582925E0,5.388779902E0
8.265416458E0,-1.761686846E0,3.033648039E0,2.252596561E0,4.169022936E0
8.275387458E0,-1.093680611E0,7.326565890E0,1.455145104E0,7.549314691E0
8.285357458E0,-3.728235863E-2,5.170844244E0,-8.830277967E-1,5.245832466E0
8.295327458E0,-9.061272953E-2,4.279052056E0,-3.031990646E0,5.245137219E0
8.305297458E0,-1.552926337E0,5.787196907E-1,-6.166924447E0,6.385722655E0
8.315267458E0,-2.047187822E0,1.864852488E0,-2.414844516E0,3.674251872E0
8.325237458E0,-2.010033005E0,7.561093032E-2,1.744140229E0,2.662325081E0
8.335207458E0,2.042706516E-2,-1.841721780E0,-9.763388336E-1,2.084608812E0
8.345178458E0,5.041132390E-1,1.810727152E0,-9.769788698E0,9.948951411E0
8.355148458E0,-3.512955270E-1,-3.410824147E0,-1.360146561E0,3.688784159E0
8.365118458E0,5.931799281E-2,-7.198725291E0,1.356012813E1,1.535259715E1
8.375088458E0,-1.119264153E0,-3.835208335E0,1.468554874E1,1.521929424E1
8.385058458E0,-8.465486994E-1,1.277138318E0,8.074599019E0,8.218690669E0
8.395028458E0,1.546595264E0,2.288376843E0,-3.477394697E0,4.440821925E0
8.404998458E0,1.893443911E0,-2.728589151E0,-1.395238041E0,3.602362806E0
8.414969458E0,-1.876304552E0,-3.326167574E0,3.686299925E0,5.307797720E0
8.424939458E0,-2.481184101E0,-7.728045657E-1,3.824967813E-1,2.626748033E0
8.434909458E0,-1.331941493E0,7.209783545E-1,-3.860421821E0,4.146894569E0
8.444879458E0,-3.845290689E0,4.043370381E0,-5.896491893E0,8.118110689E0
8.454849458E0,-3.537483609E0,6.103718385E-1,-5.571716486E0,6.627998843E0
8.464819458E0,-4.154953675E0,-4.460577697E0,-3.073068506E-1,6.103673560E0
8.474789458E0,-3.250267499E0,-6.577075635E0,5.993265066E0,9.473193172E0
8.484760458E0,-2.954372403E-1,-8.529997131E-1,6.631212081E0,6.692373670E0
8.494730458E0,-1.340542747E0,2.626559331E0,3.519674159E0,4.591728973E0
8.504700458E0,-1.450661751E0,-1.442136803E-1,-1.941334069E-1,1.470681775E0
8.514670458E0,-1.128508893E0,-9.200886190E-3,-3.268043327E0,3.457415822E0
8.524640458E0,-2.231776051E-1,1.788298109E0,-5.624791662E0,5.906445599E0
8.534610458E0,1.520953177E0,2.700700271E-1,-7.138125333E0,7.303360162E0
8.544580458E0,-1.400653293E0,-3.827082751E0,-4.331320902E0,5.947161742E0
8.554551458E0,-6.562970397E-1,-1.759403801E0,1.281754110E0,2.273570130E0
8.564521458E0,-2.515137421E-1,5.424794083E0,4.011382896E0,6.751506701E0
8.574491458E0,-1.886542552E-1,7.574815278E0,5.562683122E0,9.399833001E0
8.584461458E0,1.105726204E-1,2.383664238E-1,2.917985728E0,2.929792752E0
8.594431458E0,1.495160999E-1,-2.439431765E0,-3.350503685E0,4.147174622E0
8.604401458E0,1.872145428E0,2.940750985E0,-9.981211152E0,1.057248887E1
8.614371458E0,9.426407450E-1,3.177734835E0,-6.796389492E0,7.561579225E0
8.624341458E0,1.986246386E0,-2.649219923E0,7.153314060E-1,3.387512351E0
8.634312458E0,3.692900408E-3,-2.200898988E0,6.236322126E0,6.613295975E0
8.644282458E0,4.579172386E-1,-4.531798830E0,7.017768584E0,8.366359109E0
8.654252458E0,-1.068781778E0,2.631989932E0,-2.685708010E-1,2.853383214E0
8.664222458E0,-8.422915609E-1,4.824883790E0,-1.025775872E0,5.004115786E0
8.674192458E0,-2.373765341E0,1.042435759E-1,8.716818595E-1,2.530900607E0
8.684162458E0,-1.012149960E0,-4.682385975E0,2.536544369E0,5.420631264E0
8.694132458E0,1.956062109E-1,-2.324396568E0,-1.411383373E-1,2.336878522E0
8.704103458E0,-3.379247721E-1,-1.004391143E0,-2.017915637E0,2.279249490E0
8.714073458E0,9.250906927E-1,-7.170591413E0,2.198007540E0,7.556746069E0
8.724043458E0,5.089219160E-1,-5.343987901E0,7.050380845E0,8.861437709E0
8.734013458E0,2.935811842E0,4.703841164E0,1.580513501E0,5.765686064E0
8.743983458E0,-1.320913936E0,6.014248384E0,-1.379017280E0,6.310125665E0
8.753953458E0,-8.517217311E-1,2.080716780E0,-9.048320639E-1,2.423537350E0
8.763923458E0,-1.319843896E0,4.561173195E-1,-6.640274096E0,6.785519213E0
8.773894458E0,-3.182655267E0,-3.463004115E0,-2.788315535E0,5.467759648E0
8.783864458E0,-4.297005859E-1,-2.712129239E0,-1.558661871E0,3.157485460E0
8.793834458E0,-2.242663311E0,-1.407006147E0,5.572854939E0,6.169758276E0
8.803804458E0,-9.077227812E-1,1.577499846E-1,2.684116983E0,2.837838911E0
8.813775458E0,-1.959747389E0,1.043195897E-1,-1.024883587E0,2.214018693E0
8.823745458E0,-1.719774589E0,1.747084010E0,-4.767767018E-1,2.497447337E0
8.833715458E0,-6.363707520E-1,1.373440205E0,6.787018744E0,6.953770859E0
8.843686458E0,-8.204394197E-1,-5.026839602E-1,3.944401871E0,4.060063808E0
8.853656458E0,3.078889774E-1,4.909582463E-1,-4.390378364E0,4.428459981E0
8.863626458E0,-9.501634803E-1,-2.277364489E0,-6.008190669E0,6.495194744E0
8.873596458E0,-1.706405223E0,-1.960476976E0,-2.219608324E0,3.417886755E0
8.883566458E0,-1.759991008E0,-4.188409104E0,4.924904507E0,6.700374883E0
8.893536458E0,-1.224782787E0,-6.722017586E-1,5.833260688E0,5.998239603E0
8.903506458E0,-3.085806665E-1,4.531453259E0,4.274902287E0,6.237313543E0
8.913477458E0,-2.227748233E0,3.707153142E0,1.767929041E-1,4.328637469E0
8.923447458E0,-2.911345338E0,1.899080627E0,-4.723215328E0,5.864401243E0
8.933417458E0,-2.177264543E0,2.327671301E-1,-6.743007921E0,7.089627441E0
8.943387458E0,-2.010059464E0,-2.829565595E0,-7.681949717E0,8.429657880E0
8.953357458E0,3.862787604E-2,-1.703143646E0,-3.341279118E0,3.750511503E0
8.963327458E0,-7.328941760E-1,2.522978829E0,4.247853652E0,4.994678838E0
8.973297458E0,-8.569495073E-1,6.540827576E0,2.976279545E0,7.237059331E0
8.983268458E0,-1.950799249E0,2.736547211E0,-2.632379649E0,4.268926208E0
8.993238458E0,-9.236486962E-1,-1.120812715E0,-2.816304402E0,3.168740845E0
9.003208458E0,2.798883793E0,-3.229846098E0,-9.649309158E-2,4.274923066E0
9.013178458E0,6.765183925E-1,-5.066183762E0,6.084407371E0,7.946314120E0
9.023148458E0,6.324004926E-1,2.920186620E0,-6.533731395E-1,3.058482751E0
9.033118458E0,1.004829538E0,1.956288615E0,1.614176506E-1,2.205176456E0
9.043088458E0,-4.661598393E-1,-2.571391144E0,-3.298317286E0,4.208117670E0
9.053059458E0,-2.768519494E0,-5.097130736E0,-4.326623833E-1,5.816583075E0
9.063029458E0,-5.479945094E-1,-3.798233759E0,1.752906375E0,4.218952290E0
9.072999458E0,-1.638597950E-1,-5.494146153E-1,4.745907787E0,4.780412867E0
9.082969458E0,-6.892319935E-1,4.219114003E-1,4.983683057E0,5.048776761E0
9.092939458E0,-1.561280400E-1,-5.961435163E-1,3.056565909E0,3.118069629E0
9.102909458E0,-6.319406091E-1,-3.502963109E0,3.802341428E0,5.208445047E0
9.112879458E0,-9.001819926E-1,-1.410792804E0,1.896114042E0,2.529014119E0
9.122850458E0,-2.046159589E0,5.161170611E-1,-1.403655108E0,2.534441466E0
9.132820458E0,6.965622092E-1,-9.053632835E-1,3.428690314E-2,1.142828586E0
9.142790458E0,4.055155518E-1,-1.754195686E0,-2.245970496E0,2.878546306E0
9.152760458E0,-1.011968988E0,-1.021125582E0,-4.519384314E0,4.742532368E0
9.162730458E0,-1.726211058E0,1.752553203E0,-2.883662573E0,3.790350535E0
9.172700458E0,-1.435129208E0,-1.622932711E0,3.321892675E0,3.965914443E0
9.182670458E0,-3.540278285E0,-2.986368915E-1,5.672015530E-1,3.597842678E0
9.192641458E0,-3.675189923E0,1.114944449E0,-3.577231811E0,5.248495930E0
9.202611458E0,-2.583681114E0,2.391569382E0,-1.093191930E0,3.686472677E0
9.212581458E0,-2.338333699E-1,-9.719212621E-2,4.054617208E0,4.062517084E0
9.222551458E0,-8.926329448E-1,-6.272635674E-1,1.376142789E0,1.756138415E0
9.232521458E0,1.808276565E-2,2.877979956E0,-1.697891677E0,3.341546313E0
9.242491458E0,1.209855284E0,5.074540603E0,-5.647439098E0,7.688190977E0
9.252461458E0,1.964940594E0,1.732257225E0,-6.064506957E0,6.606054137E0
9.262432458E0,1.881173090E0,-1.209174961E0,-1.491855093E0,2.688223930E0
9.272402458E0,-9.054176626E-1,1.713597591E0,-1.653837585E0,2.547818008E0
9.282372458E0,1.655880310E0,3.168122305E0,1.403145815E0,3.840280812E0
9.292342458E0,2.534554562E0,3.697574526E0,8.691687262E-1,4.566341914E0
9.302312458E0,1.866181414E0,3.560682437E-1,8.341053128E-1,2.074885379E0
9.312282458E0,1.032683115E0,-4.178137885E0,2.930823290E0,5.207014093E0
9.322252458E0,-7.697457410E-2,1.271125918E0,6.358390939E-1,1.423368378E0
9.332223458E0,-1.279235714E0,3.591426512E0,-5.021384150E-1,3.845377926E0
9.342193458E0,2.897515357E-1,2.355063460E0,-2.349137599E0,3.338970996E0
9.352163458E0,-1.581236363E0,-1.345744576E0,-3.328866649E0,3.923351891E0
9.362133458E0,-1.403670457E0,-5.092269945E0,1.663166817E0,5.537836022E0
9.372103458E0,4.008190608E0,-2.658573714E0,5.672118441E0,7.436836273E0
9.382073458E0,-1.448187210E0,-1.161699078E0,7.614543600E0,7.837605832E0
9.392043458E0,3.446203822E-1,1.969879006E0,8.766122317E-1,2.183491587E0
9.402014458E0,-1.285648209E0,3.402449472E0,-1.278289518E1,1.329029581E1
9.411984458E0,-1.688588611E0,-8.034782989E0,-7.604164208E0,1.119072752E1
9.421954458E0,-4.143129435E-1,-1.099131298E1,1.663644652E1,1.994372004E1
9.431924458E0,5.651909879E-1,-2.604534624E0,2.054650301E1,2.071863479E1
9.441894458E0,-4.054096221E0,7.361191932E0,-1.167630494E-1,8.404550936E0
9.451864458E0,-2.062345851E0,6.834295236E0,-1.558849450E1,1.714532072E1
9.461834458E0,-2.318843760E0,-5.996113830E0,-6.709112781E0,9.292072522E0
9.471805458E0,-1.718016039E0,-6.349718349E0,1.736460496E0,6.803366613E0
9.481775458E0,-2.115163165E0,-2.570026696E0,-2.610394118E0,4.230024809E0
9.491745458E0,1.318966375E0,2.537501851E0,-4.961374176E0,5.726589007E0
9.501715458E0,-1.070130000E0,7.149238551E-1,-2.624159634E0,2.922756938E0
9.511685458E0,-5.673830725E-1,-4.830017353E0,1.264437464E1,1.354736879E1
9.521655458E0,-6.156431948E-2,-1.452348088E0,1.204782883E1,1.213520847E1
9.531625458E0,-1.382152228E-1,5.007464268E0,-2.612968647E0,5.649903273E0
9.541596458E0,-5.262507243E-1,3.194105870E-1,-3.804799013E0,3.854277945E0
9.551566458E0,-1.153977903E0,-2.324067370E0,-3.017479026E0,3.979715293E0
9.561536458E0,-1.318559263E0,4.429786259E-1,-5.537678089E0,5.709702900E0
9.571506458E0,-2.292090629E-1,5.053348539E0,-7.294074082E0,8.876507476E0
9.581476458E0,-3.798578781E-2,1.392125568E0,-1.520291272E0,2.061732783E0
9.591446458E0,-9.726803038E-2,-1.600368306E0,4.155574064E0,4.454148133E0
9.601416458E0,-2.281531946E0,-2.324640397E0,6.747445958E0,7.492487434E0
9.611387458E0,-4.462034238E0,6.680363776E0,1.342631811E-1,8.034614883E0
9.621357458E0,9.315239456E-1,1.210106539E1,-3.529966428E0,1.263978574E1
9.631327458E0,-5.225985169E-1,8.574804345E-1,-4.630813533E0,4.738440237E0
9.641297458E0,-4.734378594E-2,-5.213230126E0,-3.289600257E0,6.164534016E0
9.651267458E0,1.441128305E0,-3.400673380E0,-6.064983505E-1,3.742896002E0
9.661237458E0,-2.367094545E0,1.237311763E0,-2.257451504E0,3.497165177E0
9.671208458E0,-5.320187395E0,1.246245139E0,4.624693837E0,7.158583236E0
9.681178458E0,2.959716576E-1,-1.392254791E0,4.298089421E0,4.527642355E0
9.691148458E0,-1.091774711E0,-2.735434486E0,4.148950338E-1,2.974342236E0
9.701118458E0,5.914367270E-1,1.742738944E0,-2.751879196E0,3.310555170E0
9.711088458E0,4.397290943E0,-2.221992526E0,2.844064643E0,5.688771582E0
9.721058458E0,1.239756812E-1,-2.626102663E0,8.374066508E-1,2.759172895E0
9.731028458E0,-1.142676039E0,-3.736040727E0,-3.200295732E0,5.050307081E0
9.740999458E0,-2.328497951E0,-4.944683883E0,2.533510249E0,6.024157667E0
9.750969458E0,-2.484954970E0,2.671943665E-1,2.737302672E0,3.706645377E0
9.760939458E0,-3.337014744E0,-1.793948566E0,3.239766777E0,4.984978197E0
9.770909458E0,-1.306077065E0,4.635005987E-1,-2.338448889E0,2.718273958E0
9.780879458E0,-6.134604109E-1,6.748125404E-2,5.035762453E-1,7.965402879E-1
9.790849458E0,-2.662957956E0,-3.630144435E-1,5.010050492E0,5.685396247E0
9.800819458E0,8.724178047E-1,-7.318974450E-1,2.006500703E0,2.307126300E0
9.810790083E0,-1.328139633E0,1.014354506E-1,2.205539339E0,2.576557356E0
9.820760083E0,-1.349639553E0,-3.254680100E-1,-1.511232766E0,2.052140546E0
9.830730083E0,-4.501002422E-1,-4.156592649E0,1.795391074E0,4.550085910E0
9.840700083E0,-2.092617471E0,-1.223172318E0,-1.258453540E0,2.731099360E0
9.850670083E0,-8.614480627E-1,-9.662953636E-1,-3.241571227E0,3.490501900E0
9.860640083E0,-4.804925708E-2,3.519598730E0,-2.494393546E0,4.314149176E0
9.870610083E0,-1.677308747E0,1.829400527E0,2.807720105E0,3.747447546E0
9.880581083E0,-3.833620231E-1,-1.050993159E-1,2.460860934E0,2.492759283E0
9.890551083E0,-7.190022149E-1,2.063105258E-1,-2.618141679E0,2.722901774E0
9.900521083E0,-9.650182586E-1,-1.680808159E0,-1.937827494E0,2.740721019E0
9.910491083E0,2.256594594E0,-2.533692098E-1,1.501821088E0,2.722477126E0
9.920461083E0,4.641354236E-1,1.305513686E0,9.196296126E-1,1.662981148E0
9.930431083E0,2.663702306E0,3.821590462E0,-4.946284266E0,6.794526597E0
9.940402083E0,3.368961299E0,5.497712955E0,-6.576173995E0,9.209821517E0
9.950372083E0,4.334243340E0,1.194913017E0,-3.713388906E0,5.831186810E0
9.960342083E0,4.528537691E-1,-1.888784557E0,2.064869948E0,2.834831836E0
9.970312083E0,1.177762403E0,8.360021496E-1,-1.189292673E0,1.870946534E0
9.980282083E0,-9.773941829E-1,6.203777109E0,-2.617680334E0,6.803998834E0
9.990252083E0,-1.688067331E0,2.184274185E-1,2.909247649E0,3.370608808E0
1.000022208E1,9.669327832E-1,-1.052352345E0,9.213579326E0,9.323757207E0
1.001019308E1,-1.308795436E0,-6.933230710E-1,8.531748957E0,8.659352322E0
1.002016308E1,5.633132277E-1,1.055474173E0,-1.854035724E0,2.206534837E0
1.003013308E1,-9.403835736E-1,3.545154279E0,-7.024109305E0,7.924048943E0
1.004010308E1,-2.071627868E0,-5.207252517E0,-1.566226414E0,5.818950591E0
1.005007308E1,-2.646790112E0,-6.309305903E0,4.704690764E0,8.303430258E0
1.006004308E1,-1.136653919E0,2.468721638E0,-1.401355982E0,3.057837021E0
1.007001308E1,-5.963732388E-1,4.312198752E-1,-5.168196040E0,5.220331592E0
1.007998408E1,7.658953495E-1,-5.141868367E0,-2.561390358E-1,5.204902804E0
1.008995408E1,4.011332610E0,-4.506701411E0,8.642629707E0,1.054021798E1
1.009992408E1,7.732473461E-1,-2.684935301E0,1.166701956E1,1.199692187E1
1.010989408E1,-6.749383286E-1,3.322939034E0,3.436431443E0,4.827683361E0
1.011986408E1,9.874215730E-1,1.763907034E0,5.307786620E-1,2.089998894E0
1.012983408E1,8.994337682E-1,-2.370461226E-3,-8.964448178E0,9.009457134E0
1.013980408E1,-6.269169737E-1,-5.159331661E0,-8.615820224E0,1.006201204E1
1.014977508E1,-6.953063004E-1,-2.637934212E0,-7.650622090E0,8.122448284E0
1.015974508E1,-4.349423223E-1,-9.342561302E-1,-4.391978163E-1,1.120225005E0
1.016971508E1,-9.807200061E-1,-3.079237318E-1,1.479879411E0,1.801852332E0
1.017968508E1,1.287948212E0,-1.591732846E0,1.771991687E0,2.707836514E0
1.018965508E1,2.830999332E0,7.918433923E-1,2.004819628E0,3.558212321E0
1.019962508E1,1.136360023E0,3.177247470E0,6.578234553E-2,3.374987837E0
1.020959508E1,7.362996675E-1,1.603734548E0,1.933613990E0,2.617816793E0
1.021956608E1,6.975093850E-1,-5.208136032E0,4.737124684E0,7.074712047E0
1.022953608E1,-1.190155722E0,-5.171443584E0,-2.987547129E-1,5.315030928E0
1.023950608E1,1.281616846E0,3.518750592E0,-3.486589444E0,5.116683830E0
1.024947608E1,1.989999129E0,8.155774745E0,-4.673702860E0,9.608343075E0
1.025944608E1,-5.599470953E-1,2.436711056E0,-5.445135376E0,5.991711007E0
1.026941608E1,-1.308303393E0,-4.098247670E0,1.296076865E0,4.493006451E0
1.027938708E1,-4.394397740E0,-2.964664636E0,1.231932675E1,1.341140483E1
1.028935708E1,-1.600187627E0,7.084053206E0,8.006731557E0,1.080981778E1
1.029932708E1,5.767013488E0,1.052017709E1,-2.117329413E0,1.218259637E1
1.030929708E1,2.113019138E0,5.886387320E0,-5.582225102E0,8.383056879E0
1.031926708E1,1.690602830E0,-4.077013506E0,-6.981289560E0,8.259454037E0
1.032923708E1,1.261141359E0,-8.663097886E0,-2.644510868E0,9.145117836E0
1.033920708E1,-5.183528902E-1,-1.746843105E0,2.532168898E0,3.119620150E0
1.034917808E1,5.338825395E0,3.664105941E0,5.211784109E0,8.312125032E0
1.035914808E1,4.011061884E0,2.142286206E0,3.009221588E0,5.452836160E0
1.036911808E1,-1.049188562E-1,-1.823025308E0,-1.657281595E0,2.465970706E0
1.037908808E1,-2.112673567E-1,-3.127410481E0,8.819600952E-1,3.256253034E0
1.038905808E1,-3.632024315E0,-1.932762343E0,1.035303326E0,4.242525648E0
1.039902808E1,1.390262060E0,-2.148743579E-1,-2.076324643E0,2.508011884E0
1.040899808E1,-1.077201842E0,-1.012718163E0,-4.060975471E0,4.321745441E0
1.041896908E1,-1.755883631E0,-4.313796796E0,2.494292974E0,5.283319748E0
1.042893908E1,-2.017381494E0,-1.446169628E0,4.029695206E0,4.732829823E0
1.043890908E1,-3.056926097E0,1.298138008E0,2.373727480E0,4.082222630E0
1.044887908E1,-1.057288930E0,-1.688605129E0,2.171812599E0,2.947204969E0
1.045884908E1,-3.525814028E-1,1.601923665E-1,-4.604612160E-1,6.016641682E-1
1.046881908E1,-2.632093428E-1,3.484833525E0,-1.834249915E0,3.946874283E0
1.047879008E1,-4.659799643E-2,2.278191870E0,-2.099615858E0,3.098502270E0
1.048876008E1,-1.296126420E0,-2.301680428E0,1.952926759E0,3.285056988E0
1.049873008E1,-2.138994955E0,-5.314786906E0,1.855180609E0,6.021956025E0
1.050870008E1,-1.659229156E0,-3.569754684E0,-5.177925807E-1,3.970428070E0
1.051867008E1,-1.443886144E0,-3.074910378E-1,-3.268181906E0,3.586135929E0
1.052864008E1,9.791048589E-1,-8.611577484E-1,-1.583571010E0,2.051325458E0
1.053861008E1,-2.482300919E-1,-2.073952428E0,1.793206555E-1,2.096438110E0
1.054858108E1,-1.628208508E0,-1.408809428E0,-4.308351284E-1,2.195774546E0
1.055855108E1,-3.731427273E0,-7.304166377E-1,3.169226552E0,4.949854028E0
1.056852108E1,-2.011889496E0,3.142278781E0,1.408531101E0,3.988179428E0
1.057849108E1,9.713429725E-1,2.776644493E0,-4.001725634E0,4.966595399E0
1.058846108E1,1.619375265E0,2.407120344E-1,-3.105715265E0,3.510809855E0
1.059843108E1,-1.329735338E0,-1.021436654E0,-7.998575860E-1,1.857767764E0
1.060840208E1,-6.457637192E-1,9.398384669E-1,4.130381920E0,4.284899291E0
1.061837208E1,-4.455106895E-1,6.133080178E0,3.543817313E0,7.097308884E0
1.062834208E1,-9.753893188E-1,6.359463319E0,1.344538003E0,6.572818305E0
1.063831208E1,6.820554864E-1,3.532463482E0,-3.965870508E0,5.354589323E0
1.064828208E1,1.280113235E0,2.051583612E0,-8.065393748E0,8.420110541E0
1.065825208E1,-1.605384048E0,-1.443599192E0,-2.281039172E0,3.140760461E0
1.066822208E1,-6.959358993E-1,-1.947312262E0,1.225799180E0,2.403941649E0
1.067819308E1,1.191195211E0,1.214811969E0,1.084822226E0,2.017809062E0
1.068816308E1,8.795185903E-1,1.036233618E0,-2.769714957E0,3.085231597E0
1.069813308E1,-3.508539891E-1,-3.162061081E0,-3.789844759E0,4.948196853E0
1.070810308E1,-3.511022400E-1,-6.285676135E0,3.953822320E0,7.434090946E0
1.071807308E1,-3.745827211E-1,-5.053033959E0,6.887518932E0,8.550519367E0
1.072804308E1,7.321718987E-1,-1.171396101E-1,1.679330860E0,1.835742225E0
1.073801308E1,-1.393709432E0,2.521524042E-2,-8.600768906E-1,1.637923700E0
1.074798408E1,-2.675820076E0,-1.093124687E0,-6.013218105E-2,2.891115795E0
1.075795408E1,-4.055176348E-1,-3.759853512E0,4.287126476E0,5.716677043E0
1.076792408E1,-2.313043468E0,-1.956423101E0,3.303832964E0,4.482529832E0
1.077789408E1,-1.599267568E-1,6.971863264E-1,4.140179515E-2,7.164910675E-1
1.078786408E1,6.520646788E-1,2.429456123E0,-3.121130279E0,4.008603201E0
1.079783408E1,-2.235835225E0,2.120301845E0,-1.998917449E0,3.672915740E0
1.080780483E1,-1.411573224E-1,-1.048539960E0,-1.088829322E0,1.518193246E0
1.081777483E1,-6.912688711E-1,-2.786635922E0,-4.551870275E-1,2.906955047E0
1.082774483E1,-5.270120318E-1,-1.634712512E0,1.751981345E0,2.453459866E0
1.083771483E1,1.298629028E0,-1.489363010E0,4.108106952E0,4.558638202E0
1.084768483E1,6.716246384E-1,-2.669164191E0,2.670564891E0,3.835027245E0
1.085765483E1,-2.957720482E0,1.359360403E0,1.952963011E0,3.796055279E0
1.086762483E1,-8.616141236E-1,3.228755300E0,3.416797662E0,4.779303919E0
1.087759583E1,7.202962768E-1,2.527742556E-1,-3.947747648E-2,7.643821177E-1
1.088756583E1,1.486485157E0,-4.406362313E-1,-4.172722778E0,4.451450752E0
1.089753583E1,3.619592038E-1,5.159743890E-1,-6.138826822E0,6.171097049E0
1.090750583E1,8.419136115E-1,1.733394216E0,-3.488792090E0,3.985617177E0
1.091747583E1,3.941052586E-2,9.918044266E-1,1.490688574E0,1.790916423E0
1.092744583E1,-5.542484354E-1,-4.256039169E-1,2.995592898E-1,7.603063793E-1
1.093741683E1,3.011513112E0,-3.821453637E-1,1.856158848E0,3.558169750E0
1.094738683E1,1.282158591E0,3.284662868E0,4.686584276E-1,3.557046743E0
1.095735683E1,-2.400415342E0,3.708928942E0,-2.080163925E0,4.883157755E0
1.096732683E1,-1.862970123E0,5.175402734E-1,-7.666746372E-1,2.079974907E0
1.097729683E1,-3.025056141E0,2.887939811E-2,-2.759115710E0,4.094449679E0
1.098726683E1,-3.276805672E0,1.828924271E-1,-1.465449652E0,3.594224219E0
1.099723683E1,-1.366611242E0,1.009741930E0,-2.305584614E0,2.864074975E0
1.100720783E1,9.376753078E-2,-1.597211102E0,1.891873056E0,2.477712517E0
1.101717783E1,4.488775529E-1,1.157418332E-1,3.504296567E0,3.534824134E0
1.102714783E1,-3.148056488E-1,2.966824597E-1,2.808417678E-2,4.334879461E-1
1.103711783E1,5.950006780E-1,-1.026307092E0,-3.963330477E-1,1.250764542E0
1.104708783E1,-8.425353898E-1,-2.509314471E0,3.345992559E0,4.266402606E0
1.105705783E1,8.929978842E-1,-2.443759582E0,-2.762165033E0,3.794596393E0
1.106702783E1,9.343465975E-2,-7.883865184E-1,1.209198350E-1,8.030597390E-1
1.107699883E1,-2.911362295E-1,-2.104667267E0,3.646464014E0,4.220318047E0
1.108696883E1,-2.132311295E0,-3.011280101E0,5.907856541E0,6.965438121E0
1.109693883E1,-3.692113811E0,1.304032001E0,-1.402251191E0,4.159148021E0
1.110690883E1,-1.483445920E0,3.115223714E0,-3.843523952E0,5.165066017E0
1.111687883E1,-3.002886423E0,-1.026957302E0,-2.289541023E0,3.913306309E0
1.112684883E1,-2.918432748E0,-4.466596528E0,-1.861890873E0,5.651050511E0
1.113681983E1,-2.151616023E0,-4.900043023E0,5.496522462E0,7.671481755E0
1.114678983E1,-1.408398515E0,2.931253061E-1,6.520315543E0,6.677126898E0
1.115675983E1,-2.188925352E0,2.629358101E0,1.232848583E0,3.636596465E0
1.116672983E1,-1.142798831E0,-1.528528245E0,-9.612237811E-3,1.908528270E0
1.117669983E1,6.581291916E-1,-1.943503386E0,-7.113213855E-1,2.171708442E0
1.118666983E1,-1.141942871E0,-2.845018617E0,-1.509026611E0,3.416917582E0
1.119663983E1,-1.753770886E0,-4.661695603E-1,-2.123209957E0,2.793035428E0
1.120661083E1,-2.149076432E0,2.197864283E0,-1.053893378E0,3.249588923E0
1.121658083E1,-1.705596115E0,4.034365377E-1,-4.786133122E-1,1.816835119E0
1.122655083E1,-1.014834051E0,-6.182348818E-2,-9.226426828E-1,1.372945671E0
1.123652083E1,1.199995856E0,1.563677320E0,-6.812871623E0,7.092270198E0
1.124649083E1,7.975102213E-1,4.523943973E-1,-3.091223525E0,3.224336541E0
1.125646083E1,-1.157637383E0,-2.694815049E0,8.195048153E0,8.704077590E0
1.126643183E1,-2.244605463E0,5.504840711E-1,4.658864965E0,5.200606615E0
1.127640183E1,-6.011579788E-1,7.892628990E0,-1.366144050E0,8.032517218E0
1.128637183E1,5.388160984E-1,1.117110083E1,-4.945225920E0,1.222861709E1
1.129634183E1,1.515906153E0,-3.505034485E-1,-3.723120427E0,4.035151774E0
1.130631183E1,1.845408888E0,-3.430015001E0,-2.812520084E0,4.804248755E0
1.131628183E1,5.011576542E-1,2.528557658E0,1.412889615E0,2.939561173E0
1.132625183E1,-2.771789257E-1,7.632087001E0,-2.165223956E-1,7.640187308E0
1.133622283E1,3.519966812E-1,4.339318138E0,-1.223326392E0,4.522179898E0
1.134619283E1,5.013092067E-3,-3.247894699E0,-8.927721816E-1,3.368365668E0
1.135616283E1,-2.701571689E-1,-4.890674322E0,-1.981153607E-2,4.898170343E0
1.136613283E1,-3.309605920E0,-4.890324073E0,2.761050553E0,6.518601157E0
1.137610283E1,-1.797186754E0,-1.216393933E0,5.883504642E0,6.270974510E0
1.138607283E1,-3.276128564E0,-5.628138024E-1,4.096087416E0,5.275197614E0
1.139604283E1,3.968052835E-1,-3.672770637E-1,-1.656623783E0,1.742627107E0
1.140601383E1,1.423159226E0,-1.224191780E0,-2.045822058E0,2.776583439E0
1.141598383E1,-8.109162788E-1,-5.005920603E0,1.864594041E0,5.403104407E0
1.142595383E1,-2.632257698E-1,-2.690232878E0,1.787949908E-1,2.708986599E0
1.143592383E1,2.130069399E-2,2.065399706E0,-1.908109020E0,2.811976119E0
1.144589383E1,1.274284438E0,-1.049922827E0,-1.687007670E0,2.360536729E0
1.145586383E1,-3.471186416E-1,-1.269926070E0,1.854031631E0,2.273903442E0
1.146583483E1,-2.822705057E0,-2.517729491E0,5.164812841E0,6.401712061E0
1.147580483E1,-2.280546105E0,-5.280728045E0,4.119869796E0,7.075330830E0
1.148577483E1,-9.609852147E-1,-2.073292277E0,-1.332951161E0,2.645523057E0
1.149574483E1,-1.692662366E0,3.947260867E0,-1.206631422E0,4.461158328E0
1.150571483E1,-1.637203426E0,-1.187185629E0,2.071894208E0,2.895270348E0
1.151568483E1,-3.653688980E-1,-2.923431533E0,-4.207942897E-1,2.976073620E0
1.152565483E1,-1.177659053E0,-3.052428419E0,9.192290783E-1,3.398408774E0
1.153562583E1,8.102488191E-1,-1.587256217E0,-1.332723704E0,2.225317487E0
1.154559583E1,1.468458191E0,6.649813244E-1,5.113657306E0,5.361721800E0
1.155556583E1,3.791480079E-1,3.558864830E0,3.297188188E0,4.866284213E0
1.156553583E1,-4.741154878E-1,3.422296676E0,3.968943805E-1,3.477704011E0
1.157550583E1,-5.887563268E-1,4.748008399E0,-6.300988823E0,7.911553446E0
1.158547583E1,-1.009361057E0,5.387232739E-1,-5.569003962E0,5.685317726E0
1.159544683E1,-3.272649179E0,-1.959369805E0,1.760946881E0,4.201225607E0
1.160541683E1,-3.163091068E0,1.911226463E0,2.008565354E0,4.206217598E0
1.161538683E1,-1.133348780E0,5.293192554E0,-2.838395768E0,6.112189248E0
1.162535683E1,-2.404496954E-1,7.223685300E0,-6.858433127E0,9.963812038E0
1.163532683E1,-8.556637777E-1,1.575782811E0,-2.089085022E0,2.753094295E0
1.164529683E1,-1.899415526E0,-2.016912255E0,2.882527043E0,3.998084108E0
1.165526783E1,1.183500385E-1,1.981814635E0,3.617529652E0,4.126513875E0
1.166523783E1,1.821380779E0,4.498471455E0,-4.857796597E-1,4.877464018E0
1.167520783E1,4.773056921E-1,1.194208428E0,3.687772254E0,3.905588136E0
1.168517783E1,1.528938080E-1,-3.911745756E0,1.952277133E0,4.374530533E0
1.169514783E1,1.594903352E0,-2.847298154E0,-3.910386863E0,5.093323954E0
1.170511783E1,2.704785428E0,-1.223161793E0,-7.796843412E0,8.342826630E0
1.171508783E1,3.451675427E0,-3.181792218E0,-2.600726917E0,5.366716451E0
1.172505883E1,-1.029666975E0,-2.810645467E0,3.423478106E0,4.547542673E0
1.173502883E1,-1.652571809E0,-1.796699974E0,6.446769850E0,6.893472701E0
1.174499883E1,-2.689731187E0,-1.658044364E0,4.609140828E0,5.588196860E0
1.175496883E1,-2.229321280E0,-1.818982543E0,2.235064269E0,3.643361518E0
1.176493883E1,-2.476490541E0,-4.770347979E0,1.858701802E0,5.687178354E0
1.177490883E1,-2.484688922E0,-2.806009502E0,6.095242846E-1,3.797221118E0
1.178487883E1,-1.559309596E0,4.736501956E-1,1.546335356E0,2.246540442E0
1.179484983E1,1.204613402E0,1.627500556E0,-3.395298620E0,3.953214417E0
1.180481983E1,9.296790759E-1,3.356629229E-1,-2.005382715E0,2.235739836E0
1.181478887E1,-4.558046396E-1,-6.154590915E0,1.511182480E0,6.353772084E0
1.182475888E1,-2.570847060E0,-9.100299463E-1,-1.734963609E0,3.232260484E0
1.183472888E1,-3.005762083E0,1.097089684E0,-5.143834201E0,6.057824838E0
1.184469888E1,-2.358848363E0,1.097568279E0,3.522163904E-1,2.625429129E0
1.185466987E1,-3.377981798E-1,-2.049986445E0,7.091882043E0,7.389948778E0
1.186463988E1,3.883830272E-2,-3.659729592E0,8.391713405E0,9.155106934E0
1.187460988E1,-2.794176492E0,3.193389586E0,2.946169893E0,5.165759997E0
1.188457988E1,1.342936305E0,3.649790203E0,-2.437011310E0,4.589495677E0
1.189454987E1,-3.864695624E-1,-1.060941320E0,-4.124281520E0,4.276055807E0
1.190451988E1,-1.167435708E0,-1.584260396E0,-3.461354030E0,3.981677895E0
1.191448988E1,2.992556147E0,1.395642376E0,-1.602359868E0,3.670254361E0
1.192446088E1,1.050375986E0,7.160033680E0,-2.454272291E0,7.641519776E0
1.193443088E1,1.892596613E-1,3.383517650E0,-3.376778734E0,4.783998905E0
1.194440088E1,1.155842068E0,-7.729551315E-1,-2.007392403E0,2.441936687E0
1.195437088E1,3.642732760E-1,-2.148431337E0,-1.074920551E0,2.429795551E0
1.196434088E1,3.056612431E-1,1.113933173E0,-2.719481528E-2,1.155428695E0
1.197431087E1,1.842421838E0,3.485781651E0,3.954789450E0,5.584402523E0
1.198428188E1,1.162026851E-1,3.482117201E0,1.873544959E0,3.955858185E0
1.199425188E1,3.065987527E-1,-8.075624621E-1,-6.781718827E0,6.836510088E0
1.200422188E1,1.212827278E0,-1.149602943E0,-6.902062712E0,7.101479185E0
1.201419188E1,2.196085268E0,-1.803985897E-1,-3.169600189E-2,2.203710233E0
1.202416188E1,2.051544582E0,1.859263135E0,3.341161589E0,4.339245941E0
1.203413188E1,-1.182215423E0,-3.543430519E0,5.274619458E0,6.463369368E0
1.204410188E1,-1.745144781E0,-2.893657803E0,3.776194434E0,5.067388892E0
1.205407288E1,-1.093135066E0,4.467960683E0,-1.497095368E0,4.837242136E0
1.206404288E1,-7.648777878E-1,2.079018163E0,-2.317867860E0,3.206223007E0
1.207401288E1,-3.282159382E0,-5.455288482E0,7.752039707E-1,6.413554695E0
1.208398288E1,8.663728070E-3,-7.088365527E0,2.498854972E0,7.515934877E0
1.209395288E1,2.036848044E0,-2.245287541E0,2.156343205E0,3.720199204E0
1.210392288E1,-8.525016034E-1,8.464169177E-1,4.292873704E-1,1.275722630E0
1.211389288E1,8.587272070E-1,3.860363933E-1,2.372241703E0,2.552247482E0
1.212386387E1,-2.453950402E0,-9.502359858E-1,3.135312116E-1,2.650117511E0
1.213383388E1,1.159189015E0,-1.740474025E0,-2.737523696E0,3.444851955E0
1.214380388E1,7.735773118E-2,-4.586810019E0,1.702779949E0,4.893288253E0
1.215377388E1,-2.984308357E0,-1.743736187E-1,1.149239246E0,3.202694705E0
1.216374388E1,1.633734711E0,-8.207689834E-1,3.132635261E0,3.627141369E0
1.217371388E1,-1.615676755E0,-3.071717214E0,1.453529518E0,3.762792325E0
1.218368488E1,-1.932443377E0,-3.439992105E0,-1.448901447E0,4.203236669E0
1.219365488E1,2.347898282E0,-1.118675850E0,6.845844072E-1,2.689371267E0
1.220362487E1,2.291394993E-1,5.429481795E-1,2.232353500E0,2.308830826E0
1.221359488E1,8.645166814E-1,1.734000573E0,-3.553202094E0,4.047146179E0
1.222356488E1,6.290854868E-1,3.327058105E0,-3.597395350E0,4.940275041E0
1.223353488E1,-2.967706357E0,-6.293144783E-1,-1.404288361E0,3.342954313E0
1.224350487E1,1.684633408E0,-1.441714927E0,4.449121247E0,4.971037268E0
1.225347588E1,-3.458348854E-1,-1.886867840E0,4.121627469E0,4.546172567E0
1.226344588E1,-2.376875183E0,4.452797099E0,-4.539230933E0,6.788339643E0
1.227341588E1,-7.249708334E-1,6.767174463E0,-6.774878170E0,9.603083210E0
1.228338587E1,-1.099789270E0,2.872204076E0,-1.926148850E0,3.628931260E0
1.229335588E1,-2.956182665E0,3.741869816E0,8.013041872E-1,4.835565537E0
1.230332588E1,5.770574735E-1,3.684299008E0,-1.284387696E0,3.944199064E0
1.231329688E1,-1.463100533E0,1.791982148E0,1.239415591E0,2.624502657E0
1.232326687E1,-5.299181857E0,-5.040217447E0,3.885369551E0,8.281377712E0
1.233323688E1,-9.487430455E-1,-3.250973842E0,-2.135944024E0,4.003898246E0
1.234320688E1,-3.675453778E-1,7.161998345E0,-7.399524524E0,1.030447830E1
1.235317688E1,9.712473705E-1,4.556267673E0,-5.969615418E-1,4.696728611E0
1.236314687E1,-1.574049988E0,-3.573450125E0,2.778072383E0,4.792167080E0
1.237311688E1,-6.285745863E-1,-1.018341138E1,2.580793174E0,1.052413734E1
1.238308788E1,-5.121054326E-1,-1.896821847E0,-1.625036539E0,2.549691913E0
1.239305788E1,-1.633398643E0,2.200067514E0,1.365792632E-1,2.743527308E0
1.240302787E1,-1.026249205E0,-4.194398699E0,7.080933132E0,8.293719424E0
1.241299788E1,-1.122030836E0,-3.784221784E0,5.817333457E0,7.029982664E0
1.242296788E1,-2.012057604E0,7.552570716E-1,-7.516677582E-1,2.276794559E0
1.243293788E1,-1.972329867E0,5.326712887E0,-6.924235938E0,8.955947667E0
1.244290888E1,-2.076820634E0,-2.341957219E0,3.870821679E-1,3.154010172E0
1.245287888E1,-7.504436436E-1,-2.743175323E0,3.465542976E0,4.483097660E0
1.246284888E1,1.192919628E0,-5.455720591E0,2.051428953E0,5.949479402E0
1.247281888E1,-5.859911419E-1,-2.659363380E-1,-4.324549826E0,4.372166391E0
1.248278888E1,9.185500704E-1,1.815300259E-1,2.659595515E0,2.819598497E0
1.249275888E1,-2.450133924E-1,-3.357498125E0,3.460602078E0,4.827897261E0
1.250272888E1,-8.590341859E-1,-2.560804760E0,-1.770389550E0,3.229541749E0
1.251269987E1,2.204863693E-1,-2.493659136E-1,-3.771062332E-1,5.029977227E-1
1.252266988E1,-6.835004796E-1,-1.096984142E0,2.476968259E0,2.793907455E0
1.253263988E1,-1.193419931E0,-9.805771878E-1,5.466175413E0,5.680216228E0
1.254260988E1,-8.890498441E-1,-1.721767905E0,-1.737249286E0,2.602485240E0
1.255257988E1,-5.112248054E-1,4.945957991E-1,-5.964666334E0,6.006931021E0
1.256254988E1,2.271455732E0,2.908989495E0,-2.608648725E0,4.519599450E0
1.257251988E1,-4.758341672E-2,1.530067232E-1,7.234929496E-1,7.410244848E-1
1.258249088E1,-8.922097526E-1,8.951540449E-1,-3.951548338E0,4.148743578E0
1.259246087E1,2.754013429E0,1.278498380E0,-7.840481767E0,8.407871456E0
1.260243088E1,2.278696193E0,7.669620278E-1,-2.336152103E0,3.352356446E0
1.261240088E1,-1.089967044E-1,1.005044277E0,6.505305741E0,6.583387962E0
1.262237088E1,3.229392062E0,-3.893427014E-2,6.239291342E0,7.025613526E0
1.263234088E1,7.118227112E-1,3.920515118E0,6.046588165E-1,4.030228610E0
1.264231188E1,1.652554998E0,1.257465945E0,2.729918808E-1,2.094441022E0
1.265228188E1,3.332505956E0,7.029294616E0,-3.316940083E0,8.456871186E0
1.266225188E1,8.733972133E-1,7.041367362E0,-1.254589700E0,7.205391893E0
1.267222187E1,-7.185500789E-2,4.446918016E0,1.398998385E0,4.662342701E0
1.268219188E1,8.372590086E-1,-1.000112151E0,1.508068253E0,1.993864794E0
1.269216188E1,3.544678242E-1,-3.319663716E0,-1.086319113E0,3.510826661E0
1.270213188E1,-4.995113341E-1,1.526415061E0,-2.904911939E0,3.319332446E0
1.271210287E1,1.415381845E0,-3.346215338E-1,-4.084853745E0,4.336047446E0
1.272207288E1,2.903614003E-1,-2.681814642E0,-8.824050683E-1,2.838146969E0
1.273204288E1,-1.615890909E0,-6.575667626E0,8.469286661E0,1.084340005E1
1.274201288E1,-1.254035823E0,-5.540980597E0,3.027173710E0,6.437301646E0
1.275198287E1,-1.260394523E0,-3.651358134E-1,1.042703562E0,1.676051680E0
1.276195288E1,6.865074833E-1,-5.886251664E0,1.278208943E0,6.062430971E0
1.277192388E1,-3.030756226E-1,-5.909466280E0,-5.512801695E-1,5.942857593E0
1.278189388E1,-9.400409268E-1,9.053936890E-1,-1.185550455E0,1.763219940E0
1.279186387E1,3.481504193E-1,-1.437807232E0,6.671890576E0,6.833931680E0
1.280183388E1,1.908808384E-1,-3.549359304E-1,7.181673056E-1,8.235164163E-1
1.281180383E1,5.792881863E-1,4.540648591E0,-4.876337534E0,6.688178539E0
1.282177383E1,-1.146872330E-1,-1.624037543E0,9.060634875E-1,1.863223590E0
1.283174383E1,-2.923072221E0,-5.054067746E0,3.407244481E0,6.759975366E0
1.284171483E1,6.473575971E-1,-2.719231559E0,-1.915730281E0,3.388703977E0
1.285168483E1,-1.277743797E0,1.030983403E0,-7.349716187E-2,1.643459102E0
1.286165483E1,-2.232167412E0,-1.203749329E0,5.152616719E0,5.742912402E0
1.287162483E1,-1.260143678E0,1.571034872E0,5.051707810E-1,2.076369470E0
1.288159483E1,2.283739855E0,1.440123899E0,-6.542385859E0,7.077586968E0
1.289156483E1,-8.768659278E-1,3.725340030E0,-6.185454859E0,7.273713219E0
1.290153483E1,-4.038128352E0,-2.631358725E0,-2.152019774E0,5.278420070E0
1.291150583E1,-1.996600782E0,-4.631378374E0,5.815775174E-1,5.076840822E0
1.292147583E1,-1.441218206E0,2.308428115E-1,5.969426553E0,6.145278813E0
1.293144583E1,-1.427422285E0,5.772315159E0,1.716996869E0,6.189122306E0
1.294141583E1,-1.060083679E0,5.570614870E0,-3.498798430E-1,5.681368087E0
1.295138583E1,3.359654797E-1,1.615309696E0,4.037654436E-1,1.698565498E0
1.296135583E1,-6.412225523E-1,7.922907043E-1,1.871646368E0,2.131185362E0
1.297132683E1,2.725493635E0,4.066893730E0,1.909630466E-1,4.899429258E0
1.298129683E1,2.669388431E0,5.222364646E0,-6.603568200E0,8.832091489E0
1.299126683E1,-8.207493221E-1,1.814927499E0,-4.875000275E0,5.266233850E0
1.300123683E1,1.161381830E-1,-1.256274575E0,-4.532545227E-1,1.340579557E0
1.301120683E1,-2.084479609E0,-1.670991561E0,-3.154490399E0,4.133772818E0
1.302117683E1,-5.724571766E-1,1.338851586E0,1.003140716E0,1.768197411E0
1.303114683E1,-1.030536968E0,-1.802660041E0,3.165813532E0,3.786022317E0
1.304111783E1,4.888218930E-1,-1.806279759E0,2.516495436E-1,1.888099813E0
1.305108783E1,5.956964601E-1,-4.745150280E0,8.085705221E-1,4.850267183E0
1.306105783E1,5.161281708E-1,-3.459749847E0,3.192750485E0,4.736022904E0
1.307102783E1,8.530410091E-1,-1.837263570E0,4.803670092E0,5.213296725E0
1.308099783E1,-3.546980656E0,-3.484743185E0,-1.193340701E-1,4.973806135E0
1.309096783E1,-2.635029461E-1,-8.272912601E-1,3.201859277E-1,9.253991895E-1
1.310093883E1,6.235879346E-1,-1.349255244E0,-2.142775326E0,2.607841583E0
1.311090883E1,-3.558709002E0,-7.360387355E-1,-1.843021908E0,4.074664714E0
1.312087883E1,-5.712831653E-1,-2.782555443E-1,2.217143138E0,2.306407227E0
1.313084883E1,-3.960551004E0,-1.318091924E0,-1.791446543E-1,4.177968810E0
1.314081883E1,-3.187098274E0,-1.981467895E0,1.834276813E0,4.177126028E0
1.315078883E1,5.874481950E-1,2.310921075E0,-5.228615320E0,5.746639867E0
1.316075883E1,-1.177517587E-1,2.082129759E0,-5.552202573E0,5.930942861E0
1.317072983E1,-1.592978741E0,-4.296248425E0,1.177489835E1,1.263501337E1
1.318069983E1,-2.088896157E0,-6.471084327E0,1.466064896E1,1.616084922E1
1.319066983E1,2.854473181E-2,4.767310643E0,-1.290061249E0,4.938858531E0
1.320063983E1,1.764514998E-1,8.535882354E0,-1.017711860E1,1.328405683E1
1.321060983E1,-1.690870870E-2,4.595949510E-1,-6.345069228E0,6.361714936E0
1.322057983E1,-2.119740613E-2,-5.340062081E0,-3.400395638E-1,5.350919478E0
1.323054983E1,-2.665881271E0,-2.088802602E0,5.753997586E0,6.676713824E0
1.324052083E1,-1.766632421E0,5.225370700E0,4.322594517E0,7.007875029E0
1.325049083E1,-2.822653638E-1,4.819977391E0,7.234356469E-1,4.882132211E0
1.326046083E1,-2.089335137E0,1.911651263E0,-4.974569587E0,5.724165829E0
1.327043083E1,3.272973114E-1,5.601977581E-1,-4.928517501E0,4.971039109E0
1.328040083E1,-2.742043558E-1,2.112327120E0,-7.819489678E0,8.104414397E0
1.329037083E1,-1.259600033E0,1.286441823E0,-5.568350828E0,5.852183845E0
1.330034183E1,-1.342847281E0,4.109192196E-1,-3.698731690E0,3.956350533E0
1.331031183E1,-1.393241947E0,5.816459298E-1,1.834191443E0,2.375645883E0
1.332028183E1,-3.569836984E-1,1.200349466E0,2.514343076E0,2.808949502E0
1.333025183E1,-2.806870358E-1,3.404662351E0,-1.453953441E0,3.712747170E0
1.334022183E1,-3.127444980E0,-1.290512654E0,4.304105621E0,5.474637907E0
1.335019183E1,-2.181711935E0,-3.805381688E0,8.607902509E0,9.661096333E0
1.336016183E1,4.290674420E-1,6.182382731E0,-5.220090079E-1,6.219199990E0
1.337013283E1,-9.605957901E-1,7.349885756E0,-5.096141971E0,8.995233620E0
1.338010283E1,1.162110137E0,-2.491526949E0,-5.619112846E0,6.255608339E0
1.339007283E1,2.054983330E0,-1.429755792E1,2.078474080E0,1.459325781E1
1.340004283E1,4.487398509E-1,-4.664953379E0,3.787798818E0,6.025825866E0
1.341001283E1,-1.199362164E0,1.682278149E0,5.012508076E0,5.421601847E0
1.341998283E1,-2.177392195E-1,3.237566177E0,3.168354732E0,4.535164476E0
1.342995283E1,-4.979522179E0,-1.093666139E0,1.774869102E0,5.398324470E0
1.343992383E1,2.282719077E0,-4.618434393E0,-5.990501672E-1,5.186482790E0
1.344989383E1,-3.057488417E-1,-1.308839875E0,-4.187653059E-1,1.407802739E0
1.345986383E1,-2.607900866E0,1.475494584E0,-2.795209987E0,4.097734748E0
1.346983383E1,1.059079676E-1,1.356187703E0,-5.796375867E0,5.953858813E0
1.347980383E1,-1.565104918E0,-4.038455797E0,-4.983872507E0,6.602852701E0
1.348977383E1,-3.196644438E0,-5.964155288E0,4.151305012E0,7.938703752E0
1.349974483E1,3.650224505E-1,-1.198983264E0,1.193637155E1,1.200199017E1
1.350971483E1,-4.295329900E-1,4.333727323E0,2.968940704E0,5.270702041E0
1.351968483E1,7.425552381E-1,4.596863430E0,-1.981739498E0,5.060615883E0
1.352965483E1,8.812302896E-1,-2.061216900E0,3.074520954E0,3.804978453E0
1.353962483E1,-3.455145676E-1,-2.497393460E0,-2.592012227E-1,2.534470297E0
1.354959483E1,4.062681250E-1,-1.263550850E0,-1.940430674E0,2.350932951E0
1.355956483E1,9.156459045E-1,2.018579296E0,-4.159369492E0,4.713111962E0
1.356953583E1,3.070667493E-1,-6.952440568E0,1.859661915E0,7.203406296E0
1.357950583E1,1.671177064E0,-4.657580332E0,-2.709681594E0,5.641654161E0
1.358947583E1,1.585897178E-1,5.781753734E0,-6.732277111E0,8.875662344E0
1.359944583E1,3.166165534E0,9.446330084E0,2.313977122E-1,9.965505564E0
1.360941583E1,-3.224517969E-1,1.762312206E0,5.341715088E0,5.634149409E0
1.361938583E1,-1.833904345E0,-4.038368673E0,7.681403003E0,8.869925523E0
1.362935583E1,5.439721732E-1,1.617401538E0,-4.599408138E0,4.905756688E0
1.363932683E1,2.317586316E0,3.660349689E0,-5.612840538E0,7.090369884E0
1.364929683E1,1.004266451E0,3.226500321E0,-6.652297141E0,7.461361315E0
1.365926683E1,4.660005757E-1,-6.405592588E-1,-1.466376436E0,1.666653099E0
1.366923683E1,-7.855574892E-1,-2.012614551E0,1.964616512E0,2.920177382E0
1.367920683E1,-4.557208782E0,5.396297092E0,1.375710679E0,7.195884523E0
1.368917683E1,-1.271526160E0,4.294820827E0,2.780059851E0,5.271716750E0
1.369914683E1,2.214880850E0,-1.193959044E0,2.688540986E0,3.682321009E0
1.370911783E1,1.485395382E0,-3.353363851E0,5.814816231E-1,3.713430952E0
1.371908783E1,3.103565243E0,1.247890837E0,-3.622220873E0,4.930500260E0
1.372905783E1,2.597266827E0,-2.077357846E0,2.412590414E-1,3.334578912E0
1.373902783E1,4.182706680E-1,-3.243152899E0,1.855586990E0,3.759813048E0
1.374899783E1,-2.236159453E-1,-8.449787951E-1,-1.583060548E0,1.808334580E0
1.375896783E1,2.283281433E-1,-1.750577429E0,-3.577949849E0,3.989784480E0
1.376893883E1,-1.654319249E0,-2.753473147E0,2.109330422E0,3.842871501E0
1.377890883E1,-2.216747282E0,-2.626140670E0,5.990967110E0,6.906683013E0
1.378887883E1,-1.971777451E0,-5.690952322E0,7.298184090E0,9.462469850E0
1.379884883E1,5.106633996E-1,1.878134731E0,1.642629057E0,2.546840669E0
1.380881921E1,1.094635023E0,6.209307405E0,-1.023420614E-1,6.305885995E0
1.381878921E1,-1.175989965E0,-4.372301697E0,1.229328559E0,4.691612008E0
1.382875921E1,-2.609068555E0,-7.571775895E0,2.640742922E-1,8.013037137E0
1.383873021E1,-1.858247912E0,-3.403193530E0,6.835669917E-1,3.937267497E0
1.384870021E1,9.273663560E-1,4.384803337E0,-3.021704809E0,5.405294498E0
1.385867021E1,4.397298032E-1,2.565632806E0,-4.296304851E0,5.023352403E0
1.386864021E1,-1.868883412E0,-2.863974413E0,-4.840661917E0,5.926810478E0
1.387861021E1,-2.549576059E0,-4.428558928E0,2.162974532E0,5.548957658E0
1.388858021E1,-1.296043682E0,2.696706623E-2,-4.630579644E-1,1.376546086E0
1.389855021E1,-1.986396806E0,2.902249702E0,-6.836248791E-1,3.582759910E0
1.390852121E1,4.602581349E-1,-6.141286746E-1,2.005051762E0,2.146910373E0
1.391849121E1,3.833134912E-1,-9.043669179E-1,-2.945239016E0,3.104712807E0
1.392846121E1,-6.211440177E-1,-1.403858591E0,-1.144039902E0,1.914540710E0
1.393843121E1,2.592255178E0,3.990482900E0,-1.043007032E0,4.871509454E0
1.394840121E1,2.567487835E0,3.701079347E0,-3.916618826E0,5.969077411E0
1.395837121E1,2.099080691E0,1.996796956E0,-5.455868526E0,6.177365069E0
1.396834121E1,-9.465800142E-1,1.513854950E0,2.658110322E0,3.202080732E0
1.397831221E1,-1.339821639E0,5.531798129E0,1.102113846E1,1.240408825E1
1.398828221E1,-7.399044029E-1,7.432588774E0,4.913633414E0,8.940616742E0
1.399825221E1,-2.877358360E-1,5.041145400E0,-2.752528237E0,5.750856505E0
1.400822221E1,3.813407137E-1,3.118205794E0,-1.002634698E1,1.050696254E1
1.401819221E1,2.147715492E0,-4.062555388E0,-7.597270925E0,8.878939330E0
1.402816221E1,-2.792708768E-2,-4.930931232E0,4.263280946E-1,4.949405861E0
1.403813221E1,-2.627234977E0,-1.614857122E0,2.381025975E0,3.896076467E0
1.404810321E1,-1.287315835E0,-4.146826922E0,-1.904054561E0,4.741179110E0
1.405807321E1,4.408614587E-1,-5.043403594E0,-1.775897042E0,5.365080516E0
1.406804321E1,2.459055898E0,-7.494530668E0,6.986689464E0,1.053701929E1
1.407801321E1,-3.098903258E0,-4.354805658E0,1.206390283E1,1.319489618E1
1.408798321E1,1.902958500E0,2.671889870E0,6.108661621E0,6.933685408E0
1.409795321E1,3.085482144E0,1.574647281E0,-1.479981737E0,3.766969613E0
1.410792321E1,1.265340391E0,-2.267551984E0,-1.516980579E0,3.007342412E0
1.411789421E1,5.024569786E-1,-3.173278087E-1,-7.506374788E-1,9.574009495E-1
1.412786421E1,-2.779547343E0,2.835717743E0,-2.645503725E0,4.771359189E0
1.413783421E1,-3.144608458E-1,1.601679837E0,-2.782035041E0,3.225520561E0
1.414780421E1,-1.875765731E0,2.519395655E-1,-1.747541555E0,2.576018655E0
1.415777421E1,-2.148051268E0,1.138171344E0,5.303693569E-1,2.488141860E0
1.416774421E1,-2.191087360E0,2.255972451E0,7.470549483E0,8.105515720E0
1.417771421E1,-5.976434441E0,6.637800139E-1,9.237016720E0,1.102183517E1
1.418768521E1,-3.604777167E0,-1.275395848E0,2.317537492E0,4.471245131E0
1.419765521E1,-2.570900562E0,-3.352438237E0,-5.383925554E0,6.843612072E0
1.420762521E1,-3.279540707E0,-2.347618200E0,-5.486055361E0,6.809074966E0
1.421759521E1,-2.999386572E0,-1.044025033E0,-1.212899053E0,3.399622359E0
1.422756521E1,-2.178274064E0,9.004922605E-1,3.589360106E-1,2.384239768E0
1.423753521E1,3.227850517E-1,7.005113456E-1,1.131787062E-2,7.713847477E-1
1.424750521E1,-5.412361879E-1,1.915180350E0,4.602711815E-1,2.042719253E0
1.425747621E1,7.460500458E-1,4.072989160E0,-4.545645913E0,6.148880234E0
1.426744621E1,7.264938138E-1,6.045950818E0,-8.451371961E0,1.041666946E1
1.427741621E1,-2.876367988E-1,1.295093071E0,-7.949708925E0,8.059644718E0
1.428738621E1,-1.422123100E0,-6.222675310E0,4.258725965E-1,6.397303306E0
1.429735621E1,-2.070051312E0,-4.128086011E0,9.058483100E0,1.016770980E1
1.430732621E1,-2.124061458E0,1.313089046E0,6.996326845E0,7.428622298E0
1.431729621E1,1.064973304E-1,4.142595000E0,3.071036598E0,5.157877548E0
1.432726721E1,5.166486004E-2,5.388094034E0,-2.793268712E0,6.069314349E0
1.433723721E1,1.907760636E-1,1.758420884E0,-2.850539265E0,3.354700227E0
1.434720721E1,3.234257238E0,4.855901223E0,-5.963004556E0,8.342518798E0
1.435717721E1,2.305526068E-1,3.071661958E0,-5.717937807E0,6.494849841E0
1.436714721E1,-1.178575604E0,-3.229483571E0,-8.879698634E-2,3.438966341E0
1.437711721E1,-6.967659116E-1,-7.198096715E0,7.049237130E0,1.009900110E1
1.438708721E1,-1.627121364E0,-5.642379502E0,8.869873558E0,1.063760440E1
1.439705721E1,-2.564059320E0,-2.191340545E-1,3.095065731E0,4.025152396E0
1.440702821E1,-3.715852045E0,3.756719112E-1,-7.380338055E-1,3.807017166E0
1.441699821E1,-2.211267417E0,-2.298115965E0,-4.511185348E-1,3.220954596E0
1.442696821E1,1.682945024E0,-6.415810597E-1,3.158535503E0,3.635969848E0
1.443693821E1,-1.316157354E-1,4.652699661E-1,3.732295293E-1,6.108184057E-1
1.444690821E1,-7.817563605E-1,-2.511403096E0,2.341909856E0,3.521765224E0
1.445687821E1,-2.156494063E0,-5.930188812E0,-3.483445981E0,7.207773712E0
1.446684821E1,-2.250076411E0,-9.498237571E-1,-1.611387384E0,2.926017485E0
1.447681921E1,-3.609670410E-1,-2.862893263E-1,2.179579455E0,2.227739972E0
1.448678921E1,-1.502076319E0,9.222634909E-1,2.560760613E0,3.108745427E0
1.449675921E1,-2.340687934E0,5.535830954E-1,3.544611365E0,4.283636770E0
1.450672921E1,-5.399473519E-1,1.702841345E0,2.293701317E0,2.907280090E0
1.451669921E1,-1.606221369E0,1.848849244E0,1.140165537E0,2.701512181E0
1.452666921E1,-1.924116211E0,-2.129629031E-1,8.906016952E-1,2.130903042E0
1.453663921E1,-1.478070721E0,-5.606996831E0,-1.145395871E0,5.910586961E0
1.454661021E1,-1.836594649E0,-4.929335527E0,-5.632866082E0,7.707179052E0
1.455658021E1,-5.458428802E-1,-3.558952538E0,-6.110243878E0,7.092190625E0
1.456655021E1,-1.676245431E-1,3.275097115E0,-5.031511527E0,6.005869408E0
1.457652021E1,-6.044654929E-1,4.696002679E0,-3.043692094E-1,4.744518975E0
1.458649021E1,-1.579156618E-1,3.927018391E0,8.187552023E-1,4.014569825E0
1.459646021E1,1.269091380E0,1.524023843E0,3.152663729E0,3.724584566E0
1.460643021E1,1.315273511E-1,9.657097650E-1,5.571821151E0,5.656419869E0
1.461640021E1,6.424454243E-1,7.031721210E-1,-2.339630612E0,2.526075722E0
1.462637121E1,2.119695489E0,1.139665308E0,-8.508940138E0,8.842737599E0
1.463634121E1,2.306327941E0,4.773803684E0,-8.341770582E0,9.884001549E0
1.464631121E1,1.676340740E0,2.698949322E0,-1.022041256E0,3.337516150E0
1.465628121E1,1.973395814E0,2.467324153E0,2.894059507E0,4.284572318E0
1.466625121E1,8.957805741E-1,4.451557197E0,4.929758281E-1,4.567472986E0
1.467622121E1,2.007468855E0,2.052932273E0,-6.450531363E-1,2.942882204E0
1.468619121E1,3.984253862E0,3.031006560E0,-2.945016237E0,5.808132250E0
1.469616221E1,-1.281614836E-1,-2.347884249E0,4.643442349E0,5.204857603E0
1.470613221E1,1.251510703E0,-2.177399906E0,6.001207924E0,6.505524263E0
1.471610221E1,9.981613733E-1,-5.724523526E-1,3.655396221E0,3.832225118E0
1.472607221E1,-1.131014791E0,-3.223848901E0,4.281692659E0,5.477708300E0
1.473604221E1,-4.983394790E0,-5.838682226E0,3.517557467E0,8.443793241E0
1.474601221E1,2.358733173E0,-1.955285233E0,-2.928340563E0,4.238153014E0
1.475598221E1,1.333545530E0,-2.243880993E0,-3.820337403E0,4.626912952E0
1.476595321E1,-7.582387861E-2,-2.997367236E0,2.574873453E0,3.952206081E0
1.477592321E1,-1.522050700E-1,-1.588136516E0,5.955923578E0,6.165903797E0
1.478589321E1,-9.056726743E-1,-5.075886047E-1,5.812698369E0,5.904688943E0
1.479586321E1,3.528038017E0,2.254397795E0,2.047949275E0,4.660843046E0
1.480583321E1,2.177553103E0,6.883362731E-1,-6.173836441E0,6.582689476E0
1.481580363E1,-6.041017230E-1,-1.867201315E0,-4.238664753E0,4.670937650E0
1.482577362E1,1.110908043E0,-1.052691483E0,-2.345826321E0,2.800924342E0
1.483574363E1,-1.660459849E0,-1.457473173E0,-2.568266684E-1,2.224256032E0
1.484571463E1,-3.359745064E-1,-1.546183036E0,4.557234510E0,4.824100665E0
1.485568463E1,-8.975039678E-1,1.252936108E0,2.995667158E0,3.368884679E0
1.486565462E1,3.468045730E-1,4.364648277E-1,2.543397306E0,2.603775108E0
1.487562463E1,7.780830666E-1,-1.711173335E0,-1.345958292E0,2.311953971E0
1.488559463E1,-9.672334032E-1,7.320828018E-1,-4.256844331E0,4.426308772E0
1.489556463E1,-3.523933417E-1,2.077282417E0,-3.601895367E0,4.172880725E0
1.490553462E1,4.276258841E-1,1.630807741E0,-7.346661601E0,7.537627907E0
1.491550563E1,-1.973154616E-1,-1.248113324E0,-7.150961140E0,7.261746725E0
1.492547563E1,-1.189598994E0,-4.640507340E0,5.984964944E0,7.666111107E0
1.493544563E1,-1.976483582E0,1.022358467E0,9.608278077E0,9.862591535E0
1.494541562E1,2.345380471E0,5.591779452E0,2.543749309E0,6.575672402E0
1.495538563E1,5.210055088E0,3.438834356E0,-6.045325751E0,8.690006857E0
1.496535563E1,2.980933051E0,4.333617103E-1,-7.525096403E0,8.105605475E0
1.497532563E1,1.134754451E0,8.158128834E-1,-4.200702290E0,4.427089117E0
1.498529562E1,1.368130934E0,-1.156971020E0,-2.853014392E-1,1.814321113E0
1.499526663E1,4.845514521E-1,-2.073787537E0,4.056980068E0,4.581972515E0
1.500523663E1,7.545154984E-1,-1.545658833E-1,2.540302960E0,2.654491171E0
1.501520663E1,6.586755408E-1,-3.118536747E0,1.908966222E0,3.715276160E0
1.502517663E1,-6.097783461E-1,5.254398617E-1,7.729843676E-2,8.086357202E-1
1.503514663E1,1.868927120E0,2.226562418E0,-2.134350657E-2,2.907047355E0
1.504511663E1,2.139319914E0,-3.889405884E0,-7.902623051E-1,4.508734006E0
1.505508663E1,-2.225356722E-1,-6.997303914E0,2.181555229E-1,7.004239861E0
1.506505662E1,-4.652910453E0,-2.511354564E0,4.587851701E0,7.000347182E0
1.507502763E1,-1.715204698E0,-2.057673195E0,4.683298725E0,5.395297312E0
1.508499763E1,6.331990030E-1,-2.082029772E-1,1.750344125E0,1.872963965E0
1.509496763E1,1.473368975E0,-1.580508530E0,2.747366899E-1,2.178142236E0
1.510493763E1,8.331717318E-1,-2.342439614E0,1.602283269E0,2.957788051E0
1.511490763E1,8.700757024E-1,2.064271193E0,-7.892033744E-1,2.375097735E0
1.512487763E1,-1.540686507E-1,2.631450819E0,2.582574821E-1,2.648578390E0
1.513484763E1,-2.287956574E0,6.608131367E-1,2.821669223E0,3.692321287E0
1.514481863E1,-1.255834280E0,-4.492667216E-1,3.040178502E0,3.319886391E0
1.515478863E1,-7.201249534E-1,2.087223269E0,2.894847711E0,3.640772472E0
1.516475863E1,8.692755841E-1,2.756397631E0,-8.387012243E-2,2.891436000E0
1.517472863E1,-1.415224993E0,-1.576243864E0,-1.071805154E0,2.374062507E0
1.518469863E1,-1.280883752E0,-2.670314630E0,-1.698531362E0,3.414125393E0
1.519466863E1,-1.309505288E0,1.837310641E0,-5.097209088E0,5.574231335E0
1.520463863E1,-2.943394219E0,2.162652935E0,2.513035054E0,4.433506787E0
1.521460863E1,-7.445683613E-1,2.097874264E0,4.119275719E0,4.682295476E0
1.522457963E1,-1.912900813E0,-3.631919065E-1,-1.514516562E0,2.466750555E0
1.523454963E1,-1.074433185E-1,-1.692442657E0,-3.635251978E0,4.011354280E0
1.524451963E1,1.865493343E0,9.359053373E-2,-6.724443596E0,6.979037633E0
1.525448963E1,1.427201114E0,3.116253409E0,-4.884808395E0,5.967352125E0
1.526445963E1,4.020822933E0,1.385817299E0,-1.747438644E0,4.597939588E0
1.527442963E1,3.583697662E0,-2.833139706E0,4.566504101E0,6.459297890E0
1.528439963E1,2.277534789E0,-1.942111748E0,7.007923043E0,7.620364042E0
1.529436963E1,3.339671134E0,3.523045664E0,2.324256527E-1,4.859966637E0
1.530434063E1,4.358130970E0,7.059718848E0,-2.735496467E0,8.735895872E0
1.531431063E1,5.719378561E0,4.402789664E0,-4.062982235E0,8.282733401E0
1.532428063E1,4.874146290E0,1.068707299E-1,-1.621967336E0,5.138044516E0
1.533425063E1,2.651699142E0,9.081398338E-1,-2.844012018E0,3.993072834E0
1.534422063E1,-6.344818090E-1,-6.936250797E-1,-1.129230074E0,1.469300336E0
1.535419063E1,-1.855025511E-1,-1.686991882E0,5.295694578E-1,1.777862936E0
1.536416063E1,-3.107306877E0,-5.558438044E0,1.578332489E0,6.560695310E0
1.537413162E1,-2.314069508E0,-3.014062791E0,8.677542847E-1,3.897754442E0
1.538410163E1,-4.420196825E-1,2.302595517E-1,2.592374754E0,2.639849944E0
1.539407163E1,-8.471386103E-1,-3.789267054E0,4.258994352E0,5.763264832E0
1.540404163E1,-1.337411124E0,-6.885894576E0,6.269615588E0,9.408097164E0
1.541401162E1,-2.895304379E-1,-1.504994372E0,1.594990622E0,2.211974461E0
1.542398163E1,-1.324122888E0,-4.851370507E-1,6.288230199E-1,1.544045910E0
1.543395163E1,8.426859556E-1,-1.985668243E0,-3.675863814E-1,2.188176807E0
1.544392163E1,9.147670680E-1,-9.432587957E-1,-9.284700179E-1,1.608910351E0
1.545389262E1,1.850740818E0,-1.480292809E0,2.256739898E0,3.272519418E0
1.546386263E1,2.085170896E0,2.854195529E-1,2.218968639E0,3.058304074E0
1.547383263E1,5.637576161E-1,2.846661684E0,1.685619541E0,3.355982513E0
1.548380263E1,-5.375069068E-1,6.095307165E-1,1.222893698E0,1.468301865E0
1.549377262E1,-5.040064542E-1,-3.500116977E-1,-8.606545955E-1,1.057003797E0
1.550374263E1,1.410548683E0,-3.483764946E0,-6.472417492E-1,3.813815369E0
1.551371263E1,1.154409939E-1,-2.627888111E0,-1.561569107E-1,2.635053610E0
1.552368263E1,1.443515431E0,1.855888706E0,-2.790873692E0,3.649251383E0
1.553365362E1,6.633876657E-1,1.402967475E0,-5.401063158E0,5.619598221E0
1.554362363E1,-7.052647664E-1,-1.286647645E0,-3.936885275E0,4.201419549E0
1.555359363E1,8.127066962E-1,-2.015924368E0,-4.324454516E-1,2.216179663E0
1.556356363E1,2.499465421E-1,2.009434543E0,1.391654867E0,2.457031486E0
1.557353362E1,7.482389510E-2,4.163978852E0,1.660668302E0,4.483540755E0
1.558350363E1,6.207477227E-1,2.768006109E0,-1.391602242E0,3.159706055E0
1.559347363E1,-9.792260425E-1,-1.125295191E0,-2.269701421E0,2.716011312E0
1.560344363E1,-8.670991773E-1,-1.778777673E0,1.349929136E0,2.395458133E0
1.561341462E1,-1.101127625E0,2.152059242E0,1.280856562E0,2.735769464E0
1.562338463E1,-1.502674196E0,5.087010959E0,-1.527665781E0,5.519916030E0
1.563335463E1,9.640096870E-1,1.558962710E0,-2.375859960E0,3.000731570E0
1.564332463E1,-1.083612290E0,2.607779244E0,-1.924414566E0,3.417323455E0
1.565329462E1,7.008184706E-1,6.134475324E0,-5.504293996E0,8.271649559E0
1.566326463E1,1.340053481E0,4.701691142E0,-6.811408065E0,8.384326017E0
1.567323463E1,-2.245578952E-1,-1.708906662E0,7.653198373E-1,1.885869211E0
1.568320463E1,-3.637119067E-1,-5.580927020E0,1.530914260E1,1.629873860E1
1.569317562E1,-7.369792601E-1,-7.917457438E-1,1.051523034E1,1.057071752E1
1.570314563E1,-1.198869463E0,4.688001349E0,-4.042239237E0,6.305104494E0
1.571311563E1,-1.037926240E0,-1.852552870E-1,-1.420479769E1,1.424387194E1
1.572308563E1,-2.394134409E0,-4.323749342E0,-9.691692116E0,1.087913526E1
1.573305562E1,-1.050779224E0,-9.373900623E0,2.405559137E0,9.734519230E0
1.574302563E1,-1.701612991E0,-2.805491731E0,1.520405644E1,1.555408637E1
1.575299563E1,-1.855288636E0,3.126802371E0,1.139699046E1,1.196287510E1
1.576296563E1,-2.131428804E0,-4.704026520E-1,7.481605983E-1,2.307381997E0
1.577293662E1,-1.596552705E0,-2.907160486E0,-1.107395635E1,1.155997716E1
1.578290663E1,-9.147748887E-1,-2.139757285E0,-3.581520159E0,4.271142820E0
1.579287663E1,-4.973496915E-1,5.002292991E-3,4.221110827E-1,6.523492199E-1
1.580284663E1,-3.580555369E0,-2.983774506E0,5.289770179E0,7.050174153E0
1.581281633E1,-3.458190979E0,-2.011570238E0,6.134832589E0,7.324047417E0
1.582278633E1,-5.040560094E0,-4.210161915E-1,2.707618697E0,5.737220555E0
1.583275633E1,-1.135566702E0,8.152410257E-1,-5.906278378E-1,1.517554252E0
1.584272633E1,-1.062641763E0,1.203121046E0,-3.496050239E0,3.846956594E0
1.585269733E1,-1.587875437E0,-3.719038485E0,-3.302838353E0,5.221239014E0
1.586266733E1,-1.749063731E0,-3.665028631E0,-1.910316929E0,4.487869157E0
1.587263733E1,-1.778303756E0,4.581447245E0,-6.712609416E-1,4.960102253E0
1.588260733E1,-2.977476470E0,7.138391966E0,3.601645106E0,8.531931402E0
1.589257733E1,-3.522663841E0,-2.831831391E0,5.947632810E0,7.470124872E0
1.590254733E1,-3.127171915E0,-8.643678113E0,3.695703417E-1,9.199399858E0
1.591251733E1,-7.427037574E-1,-4.940937572E0,-4.347332332E0,6.622973001E0
1.592248733E1,-1.559695366E0,5.119720284E0,-9.584003361E0,1.097712648E1
1.593245833E1,-2.528573445E0,6.378232881E0,-2.812090899E0,7.415078797E0
1.594242833E1,-4.433256947E-1,3.738488371E0,3.243092088E0,4.968951526E0
1.595239833E1,-3.120405225E0,3.734485075E-1,4.713491993E0,5.665103646E0
1.596236833E1,-1.463338223E0,7.997292396E-1,-5.108969593E-1,1.744116198E0
1.597233833E1,-2.572272027E-1,2.631185648E-1,-3.509878904E-1,5.085171699E-1
1.598230833E1,8.443448838E-1,-4.167284283E-1,1.879826623E0,2.102457847E0
1.599227833E1,-2.027481462E-1,3.310157605E0,1.521942526E-1,3.319851393E0
1.600224833E1,-1.161786786E0,1.012774355E1,-2.848642429E0,1.058469185E1
1.601221933E1,5.101910542E-1,6.746343758E0,-5.251103711E0,8.564317789E0
1.602218933E1,2.099757068E-1,-2.320617220E0,1.310145265E0,2.673169411E0
1.603215933E1,2.517399708E0,-4.351124251E0,4.210122154E0,6.557035313E0
1.604212933E1,8.973785450E-1,4.195166731E-1,-2.467946005E-1,1.020877107E0
1.605209933E1,1.991635619E0,3.333504368E0,-4.063673961E0,5.620703681E0
1.606206933E1,4.098193291E0,-7.637674016E-1,-2.843286379E0,5.046068403E0
1.607203933E1,9.511033472E-1,-2.463169414E0,-3.859834760E-1,2.668479789E0
1.608200933E1,4.580931667E-1,-2.877782612E0,5.488387231E0,6.214006478E0
1.609198033E1,-6.827219228E-1,-1.647947685E0,1.199389061E1,1.212580936E1
1.610195033E1,1.228334240E0,2.235933750E0,3.796854401E0,4.574309574E0
1.611192033E1,7.389784232E-1,6.724569896E-1,-8.671878065E0,8.729247200E0
1.612189033E1,-1.741830287E0,-4.193468115E0,-7.167071974E0,8.484460398E0
1.613186033E1,1.793106860E0,-3.991624569E0,1.149451500E0,4.524327316E0
1.614183033E1,-1.290683539E0,9.813162759E-1,1.247119297E0,2.045520025E0
1.615180033E1,-1.756623888E0,-1.110864262E0,1.191118174E0,2.395518608E0
1.616177033E1,3.364154595E-1,-4.478920412E-1,3.027245046E0,3.078635284E0
1.617174133E1,-1.228944689E0,-3.120102046E0,2.547124321E0,4.211078738E0
1.618171133E1,-1.167618580E0,-1.601147448E0,9.558344024E-1,2.200142200E0
1.619168133E1,-1.540380990E0,-1.670239902E0,1.569032493E0,2.761220362E0
1.620165133E1,-1.913798653E0,-4.713063100E0,1.041318941E0,5.192295658E0
1.621162133E1,-1.149964374E0,-1.738585959E0,-3.245988214E-1,2.109612190E0
1.622159133E1,-1.873869625E0,-9.471319914E-3,7.103957713E-2,1.875239638E0
1.623156133E1,-2.011333719E0,-1.030762963E0,2.621364664E0,3.461139742E0
1.624153133E1,-1.534093771E0,-3.412415467E0,3.328357356E0,5.007592806E0
1.625150233E1,-1.446876995E0,2.458622620E-1,-2.595000154E0,2.981262667E0
1.626147233E1,-3.723416296E-1,2.313549398E0,-5.615315664E0,6.084646179E0
1.627144233E1,-8.792972001E-1,3.707653079E0,-3.619025370E0,5.255206899E0
1.628141233E1,-1.180085136E0,1.758149281E0,1.002609204E0,2.342843366E0
1.629138233E1,-8.266153950E-1,1.974152444E0,-1.428118104E-1,2.144986269E0
1.630135233E1,-8.990508487E-1,-4.148956186E-1,-3.226709944E-1,1.041416042E0
1.631132233E1,4.522008544E-1,1.636919251E-1,-5.650860304E-1,7.420261995E-1
1.632129233E1,1.027604735E0,3.023576210E0,-2.815226761E0,4.257168813E0
1.633126333E1,4.564945014E-1,5.602863434E0,-3.364242303E0,6.551228294E0
1.634123333E1,1.698832311E-1,5.016536808E0,-4.424116799E0,6.690837863E0
1.635120333E1,-1.279963839E0,2.019060229E0,-7.876151537E0,8.230958308E0
1.636117333E1,5.193553953E-1,-5.418831092E0,-7.906050689E0,9.598911289E0
1.637114333E1,2.223862027E-1,-5.851182404E0,9.835893810E0,1.144685975E1
1.638111333E1,-8.392579523E-1,-4.094116904E0,2.707611680E1,2.739675616E1
1.639108333E1,1.850671674E0,6.827323601E0,1.205380001E1,1.397610203E1
1.640105333E1,-6.820271274E-1,8.009393209E0,-8.326692951E0,1.157364921E1
1.641102433E1,-8.051627648E-1,-1.251770173E0,-1.298570468E1,1.307072078E1
1.642099433E1,6.868152662E-1,-8.918055784E0,-6.589049563E0,1.110941080E1
1.643096433E1,-1.017411065E0,-5.245878639E0,-5.205269142E0,7.459838793E0
