"Time (s)","Linear Acceleration x (m/s^2)","Linear Acceleration y (m/s^2)","Linear Acceleration z (m/s^2)","Absolute acceleration (m/s^2)"
3.700250003E-3,1.442759678E0,8.140435159E-1,6.665007234E-2,1.657909698E0
1.366925001E-2,7.786052229E-1,4.247165435E0,-2.788420785E0,5.140032179E0
2.363925002E-2,4.488475859E-1,6.088985156E0,-2.934678944E0,6.774182230E0
3.360825003E-2,-1.018178220E0,6.085118977E0,-2.214297298E0,6.555034125E0
4.357825004E-2,2.937016771E-1,4.388706061E0,-4.543343280E0,6.323683240E0
5.354725005E-2,1.670675081E0,2.409629969E0,-4.946029912E0,5.749842059E0
6.351725000E-2,3.990122712E0,3.129236859E0,-4.109674591E0,6.527068854E0
7.348625001E-2,4.678431503E0,6.058462690E0,-2.606715635E0,8.086263531E0
8.345625002E-2,5.715131729E0,9.059009349E0,-1.510095482E0,1.081705919E1
9.342525003E-2,6.697049391E0,7.809051229E0,-6.220841038E-1,1.030624763E1
1.033952500E-1,5.810077647E0,5.033498411E0,-9.076814121E-1,7.740606828E0
1.133642500E-1,6.027297031E0,2.615235613E0,-3.434783113E-1,6.579190236E0
1.233342500E-1,5.103867897E0,-5.888087690E-1,1.563926119E0,5.370477464E0
1.333032500E-1,3.338841999E0,-4.272743203E0,2.038455151E0,5.793056169E0
1.432732500E-1,2.277546191E0,8.456906936E-1,6.534959310E-1,2.515843066E0
1.532422500E-1,3.132824418E0,1.048036222E1,2.268070632E0,1.117124548E1
1.632122500E-1,3.237011861E0,1.522246347E1,2.956677339E0,1.584119885E1
1.731812501E-1,8.473888712E-1,8.830063959E0,2.716367301E0,9.277216648E0
1.831512500E-1,2.236669038E0,-5.029684857E0,2.674507084E0,6.119918814E0
1.931202500E-1,3.220159308E0,-1.174969685E1,9.086730999E-1,1.221681173E1
2.030902500E-1,-7.525167739E-1,-1.023022302E1,-8.179699212E-1,1.029042367E1
2.130592500E-1,-4.414451936E-1,-5.473845205E0,1.749165326E-1,5.494401786E0
2.230282500E-1,-6.471189576E-1,-7.186286509E-1,4.355281037E-1,1.060601156E0
2.329982501E-1,-1.905939703E0,3.154620499E0,3.481870741E-1,3.702090070E0
2.429672500E-1,-7.129967590E-1,3.603959434E0,1.822185940E0,4.100884000E0
2.529372500E-1,-1.104747490E0,7.052318028E-1,1.986317284E0,2.379763699E0
2.629062500E-1,-1.388942928E0,-4.255341889E0,-2.350756109E-1,4.482449954E0
2.728762500E-1,-1.258880972E0,-6.281007718E0,-1.920118616E0,6.687502879E0
2.828452500E-1,2.322568509E-1,-4.532552828E0,-5.898636067E-1,4.576671002E0
2.928152501E-1,2.155252407E0,-1.802979299E0,2.018505621E0,3.459799449E0
3.027842500E-1,3.694820195E0,-7.121800491E-1,3.650287508E0,5.242470371E0
3.127542500E-1,4.784682136E0,-5.796093446E-1,1.889854013E0,5.176937157E0
3.227232500E-1,4.684490388E0,-4.243248385E-1,4.785601026E-1,4.727951093E0
3.326932500E-1,4.452411183E0,-1.843269246E0,6.639080679E-1,4.864399323E0
3.426622500E-1,2.886360478E0,-3.936735294E0,6.418605566E-2,4.881913706E0
3.526322500E-1,2.229788034E0,-4.512577570E0,6.508535743E-2,5.033840195E0
3.626012500E-1,2.002769156E0,-2.074952302E0,-4.065036947E-1,2.912345550E0
3.725712500E-1,1.625500516E0,8.500810754E-1,-4.926419520E-1,1.899364592E0
3.825402500E-1,1.425504691E0,1.747900574E0,-9.782444412E-1,2.458491860E0
3.925102500E-1,9.810954704E-1,1.914469914E0,-1.570580251E0,2.663543823E0
4.024792500E-1,2.667831245E-1,1.426112801E0,-1.077060632E0,1.806939557E0
4.124492500E-1,-3.316471282E-1,5.105051959E-1,-9.950183487E-1,1.166476269E0
4.224182500E-1,-6.956976984E-1,4.399766654E-1,-1.579701322E0,1.781300374E0
4.323872500E-1,-8.499479051E-1,1.496868788E0,-2.649885044E0,3.159892143E0
4.423572500E-1,-1.115775485E0,2.393727297E0,-2.180099857E0,3.424575987E0
4.523262500E-1,-1.132384793E0,2.542483386E0,-4.253434235E-1,2.815569946E0
4.622962500E-1,-5.363580751E-1,3.099963066E0,8.161145997E-1,3.250152925E0
4.722652500E-1,-2.313754928E-1,2.532608316E0,9.716043431E-1,2.722435399E0
4.822352500E-1,1.282466885E-1,1.323511708E0,1.109276451E0,1.731653747E0
4.922042500E-1,1.869081487E-1,4.162062719E-1,1.401952398E0,1.474324538E0
5.021742500E-1,3.204884481E-2,-1.039614478E-1,7.529085374E-1,7.607275312E-1
5.121432500E-1,-1.518861043E-1,-3.131599134E-1,-7.816031635E-1,8.555945449E-1
5.221132500E-1,-5.732932553E-1,-4.001942566E-1,-1.020228034E0,1.236804690E0
5.320822501E-1,-1.140465645E0,-2.048539844E-1,-5.742790228E-1,1.293222115E0
5.420522500E-1,-1.573759966E0,-1.720651379E-1,-9.828935623E-2,1.586186509E0
5.520212500E-1,-1.931401842E0,-1.093172927E0,2.187513542E-1,2.230065532E0
5.619912500E-1,-2.303191933E0,-1.016854483E0,-4.541585022E-1,2.558309220E0
5.719602500E-1,-2.650851296E0,-1.697199074E0,-5.600580096E-1,3.197055249E0
5.819302500E-1,-2.871124388E0,-1.717382493E0,-1.498195229E0,3.665698682E0
5.918992501E-1,-2.581083488E0,-1.115302299E0,-1.524438118E0,3.198406285E0
6.018692500E-1,-2.434930871E0,-1.741371280E0,1.041991371E-1,2.995349686E0
6.118382500E-1,-2.767382503E0,-2.227981829E0,1.351459352E0,3.801151317E0
6.218082500E-1,-2.579764649E0,-2.089950995E0,1.635755070E0,3.701185682E0
6.317772500E-1,-2.134966369E0,-1.085120726E0,1.188098672E0,2.673414828E0
6.417460000E-1,-1.362666564E0,-6.284154689E-1,4.935962176E-1,1.579684587E0
6.517160001E-1,-5.598006590E-1,-1.250270947E0,1.403781407E0,1.961416952E0
6.616850000E-1,-6.044028180E-1,-1.320078223E0,1.654474931E0,2.201180724E0
6.716550000E-1,8.518903501E-2,-1.247943755E0,1.777577532E0,2.173569108E0
6.816240000E-1,4.487967516E-1,-1.360463772E0,1.471792712E0,2.053887530E0
6.915940000E-1,3.591148623E-1,-9.427799088E-1,1.246933941E0,1.603945664E0
7.015630000E-1,4.827499250E-1,-1.033904379E0,1.032869130E0,1.539098566E0
7.115330001E-1,-4.088677239E-1,-1.607246093E0,4.227191931E-1,1.711462631E0
7.215020000E-1,-2.074731168E-1,-1.110015247E0,-2.653472310E-1,1.159994868E0
7.314720000E-1,8.925645324E-1,-1.185086479E0,-4.183086383E-1,1.541455002E0
7.414410000E-1,-3.244435047E-1,-1.559309158E0,-2.299066722E-2,1.592870744E0
7.514110000E-1,-4.745608994E-1,-1.265956687E0,6.832582587E-1,1.514825478E0
7.613800000E-1,-7.937835715E-1,-5.226600954E-1,4.294967008E-1,1.042944557E0
7.713500001E-1,-5.718827973E-1,-8.957548463E-1,-3.851970255E-2,1.063442733E0
7.813190000E-1,-7.981361657E-1,-1.169492539E0,-7.730019093E-3,1.415907445E0
7.912890000E-1,-8.869442618E-1,-4.753014493E-1,-3.791182601E-1,1.075319602E0
8.012580000E-1,-9.285047358E-1,-6.381516677E-1,1.230383981E0,1.668293540E0
8.112270000E-1,-8.355345185E-1,-2.318868318E-1,2.014590325E0,2.193276912E0
8.211970000E-1,-3.416945451E-1,-4.000664949E-3,9.305130351E-1,9.912747731E-1
8.311660000E-1,-1.488324508E-1,1.612086126E-1,5.372070909E-2,2.258876486E-1
8.411360000E-1,-1.398769101E-2,1.272006217E0,-1.928024637E0,2.309864600E0
8.511050000E-1,3.445778802E-2,1.444497909E0,-2.437317705E0,2.833421808E0
8.610750000E-1,1.140239212E-1,1.177077255E0,-1.505049335E0,1.914075709E0
8.710440000E-1,-2.286302433E-1,1.052819537E0,-4.754423672E-1,1.177601890E0
8.810140000E-1,-7.043084543E-1,1.197722897E0,6.492374039E-1,1.533655679E0
8.909830000E-1,-4.148018438E-1,1.545279641E0,-8.790411651E-2,1.602397227E0
9.009530000E-1,-5.190213365E-1,1.543492147E0,-5.372947991E-1,1.714770205E0
9.109220000E-1,-8.909050195E-1,1.050936441E0,-5.644171089E-1,1.488874014E0
9.208920000E-1,-1.073888663E0,1.345252533E0,-8.098346901E-1,1.902307405E0
9.308610000E-1,-8.737946047E-1,9.506286263E-1,-7.233187026E-1,1.480000588E0
9.408310000E-1,-1.055784002E0,3.212849119E-1,-5.904114908E-1,1.251594816E0
9.508000000E-1,-5.862158212E-1,-3.396516010E-1,7.476489669E-1,1.008955488E0
9.607700000E-1,4.227171466E-4,-1.978382027E-1,1.335872430E-1,2.387167456E-1
9.707390000E-1,-2.217268561E-1,4.147517771E-2,-4.604237938E-1,5.127114773E-1
9.807090000E-1,-1.538273434E-1,4.217625886E-2,-8.137856537E-1,8.292700275E-1
9.906780000E-1,3.980788802E-1,-3.592903519E-1,-5.981023335E-1,8.032949354E-1
1.000648000E0,4.834244013E-1,-7.730361155E-1,-3.287333876E-1,9.692005095E-1
1.010617000E0,7.634092596E-1,-9.445931304E-1,-7.326613837E-1,1.418394368E0
1.020586000E0,9.885180721E-1,-7.930733541E-1,-6.817935312E-1,1.439088511E0
1.030556000E0,1.487863638E0,-6.304064459E-1,-2.234039837E-1,1.631275523E0
1.040525000E0,1.797979198E0,-4.362017030E-1,2.298037612E-1,1.864352674E0
1.050495000E0,1.772644967E0,-1.880990803E-1,6.196656954E-1,1.887229985E0
1.060464000E0,1.634313293E0,-9.047104418E-3,6.974950594E-1,1.776952770E0
1.070434000E0,1.184860338E0,-1.953420264E-1,1.241835169E0,1.727485778E0
1.080403000E0,1.282500068E0,-9.251923612E-1,9.661681867E-1,1.853177891E0
1.090373000E0,8.405407584E-1,-7.474618560E-1,9.863083363E-2,1.129130654E0
1.100342000E0,7.652926478E-1,-3.966210231E-1,3.767507225E-1,9.407030242E-1
1.110312000E0,5.489976358E-1,-6.392448047E-1,7.655543107E-1,1.138466393E0
1.120281000E0,-1.086487586E-2,1.612062737E-1,9.407801610E-1,9.545537280E-1
1.130251000E0,3.158683803E-1,-7.870603698E-1,6.013077772E-1,1.039619114E0
1.140220000E0,2.172785320E-1,-6.331192616E-1,-3.051018655E-1,7.356202201E-1
1.150190000E0,2.748450279E-1,-4.995647630E-1,-6.617872828E-1,8.735371483E-1
1.160159000E0,5.549957096E-1,-1.068537438E0,2.388792247E-1,1.227540540E0
1.170129000E0,3.427129108E-1,-7.729247260E-1,4.713282663E-1,9.679954059E-1
1.180098000E0,4.839730163E-1,2.832262623E-1,2.749360800E-1,6.245292981E-1
1.190067000E0,-7.327779992E-2,5.077265990E-1,2.219193757E-1,5.589312521E-1
1.200037000E0,-2.521538294E-1,-5.361633629E-1,1.008130145E0,1.169349860E0
1.210006000E0,-1.651160510E-1,-5.625562325E-1,1.743003531E0,1.838965506E0
1.219976000E0,-1.249330714E-1,-2.960568076E-1,1.274764933E0,1.314641982E0
1.229945000E0,-1.414103059E-1,-8.928698301E-2,5.570396769E-1,5.816031650E-1
1.239915000E0,5.507989436E-1,2.792177036E-1,4.497859544E-1,7.639695066E-1
1.249884000E0,1.275584566E0,-1.950803635E-1,4.290920734E-2,1.291128783E0
1.259854000E0,1.255275140E0,3.962000236E-1,-1.125331736E0,1.731779908E0
1.269823000E0,1.023339338E0,5.195818287E-1,-2.269528343E0,2.543215991E0
1.279793000E0,1.809612965E0,1.774001375E-1,-2.703707494E0,3.258251694E0
1.289762000E0,1.808215042E0,8.854964912E-2,-2.069402125E0,2.749528656E0
1.299732000E0,1.993824816E0,1.672052246E-1,-1.087309631E0,2.277177467E0
1.309701000E0,2.394061319E0,1.245670357E-1,2.750606257E-1,2.413028158E0
1.319671000E0,1.251959915E0,-1.225688375E0,8.302533426E0,8.485386079E0
1.329640000E0,7.206270830E-1,1.340137973E-1,1.240294310E1,1.242458292E1
1.339609000E0,3.616570489E-1,1.508524336E0,8.365704405E0,8.508316618E0
1.349579000E0,1.445350433E0,3.651762761E0,2.525556867E0,4.669351842E0
1.359548000E0,3.071006193E0,4.654045983E0,-5.836874267E0,8.072194513E0
1.369518000E0,2.096212778E0,8.556221893E-1,-6.563459224E0,6.942996063E0
1.379487000E0,1.374909318E0,-2.090233415E0,-8.488657317E0,8.849675384E0
1.389457000E0,1.662712635E0,-1.699558718E0,-7.086721290E0,7.474940253E0
1.399426000E0,1.187903667E0,9.251107925E-1,-3.010691578E0,3.366186103E0
1.409396000E0,7.755821393E-1,1.285057202E-1,-4.121111745E-1,8.876243547E-1
1.419365000E0,5.097544865E-1,-1.745885915E0,-1.235859314E0,2.198935086E0
1.429335000E0,5.552929674E-1,-2.021798773E0,-2.483662736E0,3.250323237E0
1.439304000E0,1.057530420E0,-1.370509289E0,-4.679000437E-1,1.793208507E0
1.449274000E0,1.607876131E0,-4.609436113E-1,3.095120695E0,3.518168100E0
1.459243000E0,1.215795325E0,-2.811224341E-1,4.120974335E0,4.305765619E0
1.469213000E0,1.597285946E0,-1.021343391E0,1.687146249E0,2.537898182E0
1.479182000E0,1.652193933E0,-1.155065997E0,1.034978220E0,2.266076381E0
1.489152000E0,1.283681937E0,-9.510034329E-1,2.387160873E0,2.872417776E0
1.499121000E0,1.297876345E0,-6.915759230E-1,2.823043903E0,3.183133227E0
1.509090000E0,1.172114577E0,1.997359166E-1,8.282803166E-1,1.449067045E0
1.519060000E0,8.360017110E-1,5.762553817E-1,-9.428641087E-1,1.385626881E0
1.529029000E0,3.947030633E-1,5.409162721E-1,-1.823219728E0,1.942295317E0
1.538999000E0,4.398578938E-1,8.334574413E-1,-1.903007324E0,2.123573203E0
1.548968000E0,7.082953783E-1,2.226534936E0,-2.365176512E0,3.324635333E0
1.558938000E0,1.071387590E0,4.775496745E0,-1.841703361E0,5.229255377E0
1.568907000E0,1.148684857E0,3.476245719E-1,5.590528733E-1,1.323956139E0
1.578877000E0,6.887183887E-1,-2.374076559E0,-5.138112116E-1,2.524791969E0
1.588846000E0,5.732200921E-2,-1.055035632E0,-1.785770066E0,2.074936318E0
1.598816000E0,-2.048974000E0,-6.284294438E0,-2.113964340E0,6.939704335E0
1.608785000E0,-1.457379033E0,-3.553320792E0,-1.988519930E0,4.324841478E0
1.618755000E0,-9.183313845E-1,2.552680930E-1,-2.790992975E-2,9.535582286E-1
1.628724000E0,-6.870546366E-1,5.439512694E-1,3.600180963E0,3.705297562E0
1.638693917E0,-7.625753005E-1,-2.469580302E-1,4.188100955E0,4.264117608E0
1.648663917E0,-1.014714475E0,-1.256043318E-1,7.421712953E-1,1.263423977E0
1.658632917E0,-1.307516942E0,7.248822480E-1,-3.483827219E0,3.791056175E0
1.668602917E0,-1.013510241E0,6.661864355E-1,-7.610760452E0,7.706794536E0
1.678571917E0,-9.692927194E-1,-5.454689142E-1,-9.141910588E0,9.209321034E0
1.688541917E0,-1.633260356E0,-3.870308878E0,-7.571913890E0,8.659140266E0
1.698510917E0,-1.393946975E0,-6.321344735E0,8.631013044E0,1.078873828E1
1.708480917E0,-1.896473353E0,1.161360524E0,2.527982876E1,2.537745282E1
1.718449917E0,-2.717185911E0,1.168624053E1,6.402001228E0,1.359915205E1
1.728419917E0,1.283489563E0,4.184536200E0,-3.286390720E0,5.473394983E0
1.738388917E0,-1.006117680E0,-3.005306585E0,-4.138017799E0,5.212229059E0
1.748358917E0,-4.707058302E-1,-8.156383440E-1,-7.242581162E0,7.303547890E0
1.758327917E0,1.670308314E-1,3.613427246E-1,-3.453986539E0,3.476850712E0
1.768297917E0,-9.297653224E-1,-9.426734895E-1,-4.278606498E-1,1.391460239E0
1.778266917E0,-1.593581735E0,-2.234766061E0,-6.761995000E-1,2.826822927E0
1.788236917E0,-2.131989990E0,-8.420335525E-1,1.021657094E0,2.509618505E0
1.798205917E0,-8.777311695E-1,1.093466457E0,4.307600502E0,4.530066554E0
1.808174917E0,3.850288085E-1,-5.413936973E-3,3.229498481E0,3.252374046E0
1.818144917E0,4.595730239E-1,-2.191573849E0,2.197559059E-2,2.239349509E0
1.828113917E0,4.426020652E-1,-2.016836826E0,-1.561970226E0,2.589069013E0
1.838083917E0,8.642015165E-1,8.462733686E-2,-9.337839675E-1,1.275130795E0
1.848052917E0,1.245057715E0,8.261209399E-1,3.354500842E-1,1.531395207E0
1.858022917E0,1.365984275E0,5.056224784E-1,9.726334530E-1,1.751451673E0
1.867991917E0,3.989363012E-1,1.736290927E0,-5.359791756E-2,1.782338097E0
1.877961917E0,7.234488031E-1,2.896810329E0,-3.981509471E-1,3.012210556E0
1.887930917E0,5.017549473E-1,1.686296648E0,-5.348594338E-1,1.838866234E0
1.897900917E0,3.537189786E-1,-1.439837678E0,-3.230432866E0,3.554426277E0
1.907869917E0,6.708093904E-2,-5.367696607E0,-5.471465389E0,7.665089707E0
1.917839917E0,5.146629316E-1,-5.509392768E0,-6.049331093E0,8.198334787E0
1.927808917E0,4.706620857E-1,3.774001143E0,-5.066204812E0,6.334906363E0
1.937777917E0,7.159658289E-1,1.291785359E1,1.390880696E0,1.301222877E1
1.947747917E0,1.039878151E-1,1.082274711E1,7.641372380E0,1.324889581E1
1.957716917E0,-5.895850600E-1,-3.633102542E0,8.351471697E0,9.126561462E0
1.967686917E0,6.499815352E-1,-1.262139976E1,1.943364222E0,1.278666776E1
1.977655917E0,1.697808354E0,-5.640256963E0,-5.829674590E0,8.287349253E0
1.987625917E0,-2.566982489E-1,3.342902013E0,-4.009548624E0,5.226601958E0
1.997594917E0,-1.945485446E0,1.780606390E0,4.069687822E0,4.849518708E0
2.007564917E0,-1.196653514E0,-2.868332050E0,5.992196780E0,6.750239302E0
2.017533917E0,4.354484354E-1,-1.568750072E0,2.032869891E0,2.604448526E0
2.027503917E0,4.941057294E-1,2.714838839E-1,6.063679576E-2,5.670280346E-1
2.037472917E0,-3.504136207E-1,9.434464914E-1,7.081065863E-1,1.230567318E0
2.047442917E0,8.359308318E-2,1.249487712E0,1.065111262E-1,1.256802278E0
2.057411917E0,8.166585369E-1,3.160230026E-1,-7.322643578E-2,8.787285218E-1
2.067380917E0,6.659928927E-1,4.073617736E-1,2.427898425E-1,8.175799993E-1
2.077350917E0,4.280299633E-1,1.477412471E0,-4.415209150E-1,1.600280593E0
2.087319917E0,6.143681180E-1,3.160285574E-1,4.207288009E-1,8.089097338E-1
2.097289917E0,-1.276549503E-1,-1.185032977E0,4.034011620E-1,1.258304987E0
2.107258917E0,-4.061706226E-1,6.873314291E-2,4.396731949E-1,6.025042223E-1
2.117228917E0,-3.333916085E-1,4.601986760E-1,2.919830525E-1,6.388950531E-1
2.127197917E0,1.520772169E-1,-2.974984387E-1,-5.600697041E-1,6.521586267E-1
2.137167917E0,1.900426765E-1,-1.075292726E0,-1.666381617E0,1.992284708E0
2.147136917E0,7.270082957E-1,-1.417679947E0,-1.585739742E0,2.247871887E0
2.157106917E0,5.509293731E-1,7.057779327E-1,-1.549463616E0,1.789548312E0
2.167075917E0,7.644377849E-1,2.111344495E0,-1.409530390E0,2.651210407E0
2.177045917E0,1.264815896E0,1.191302069E0,-4.167901164E-1,1.786805493E0
2.187014917E0,9.945744719E-1,-7.072414908E-1,1.785676510E0,2.162870663E0
2.196984917E0,4.412273848E-1,3.958711177E-1,1.804012794E0,1.898909610E0
2.206953917E0,-4.181852255E-1,2.147011926E0,6.053411865E-1,2.269576402E0
2.216922917E0,-2.852129269E-1,1.115064610E0,-7.893858075E-1,1.395652339E0
2.226892917E0,-6.559098809E-1,2.617196184E-1,-1.813254903E0,1.945920932E0
2.236861917E0,-2.235201606E-1,-2.400363886E-1,-8.674829739E-1,9.274186973E-1
2.246831917E0,-3.778180587E-1,3.419135964E-1,9.992540717E-1,1.121677357E0
2.256800917E0,-9.666320170E-1,9.563346317E-1,1.865631337E0,2.308578279E0
2.266770917E0,-2.708273146E-2,-1.095747748E-1,1.618917428E0,1.622847419E0
2.276739917E0,5.124924635E-2,-1.609975866E0,3.006743538E-1,1.638613390E0
2.286709917E0,2.467429988E-1,-1.407339731E0,-9.952896595E-1,1.741289387E0
2.296678917E0,2.389134857E-2,-1.476381022E0,-7.718020606E-1,1.666118285E0
2.306648917E0,2.089574873E-1,-2.027447768E0,2.550087690E-2,2.038346874E0
2.316617917E0,-1.577841908E-1,-1.559984219E0,6.671790004E-1,1.703987803E0
2.326587917E0,-1.692984182E-1,-1.014743054E0,8.576941502E-1,1.339404597E0
2.336556917E0,-2.026295391E-1,-1.117247083E0,1.888531957E0,2.203599947E0
2.346525917E0,-5.221171814E-1,-9.286042115E-1,2.616871079E0,2.825407294E0
2.356495917E0,-5.502965216E-1,-1.579074501E0,1.769566262E0,2.434680122E0
2.366464917E0,-4.314683088E-1,-4.601562837E-1,4.916777462E-1,7.997847917E-1
2.376434917E0,-8.586988846E-2,1.501784250E-1,1.051621735E-2,1.733141307E-1
2.386403917E0,-2.424871577E-1,3.443349284E-1,-2.910428202E-1,5.119301591E-1
2.396373917E0,8.257238774E-2,-3.612865913E-1,-7.145262444E-1,8.049186010E-1
2.406342917E0,5.272607212E-1,1.860850069E-1,-1.647493356E0,1.739789026E0
2.416312917E0,8.942393211E-1,1.175090371E0,-1.916151280E0,2.419119070E0
2.426281917E0,8.908094906E-1,2.985690638E-1,-1.187971203E0,1.514582653E0
2.436251917E0,8.993864789E-1,-1.846024454E-2,1.023438156E-2,8.996341265E-1
2.446220917E0,9.768757541E-1,-4.437364250E-1,-1.174465889E-1,1.079343298E0
2.456190917E0,5.068360680E-1,-5.829940054E-1,-1.282370406E-1,7.830769750E-1
2.466159917E0,8.821846282E-1,6.833132225E-1,4.678924423E-1,1.209995874E0
2.476128917E0,6.779302027E-1,1.163822202E0,5.723424250E-1,1.463436821E0
2.486098917E0,9.910340559E-1,1.266268929E0,6.279517847E-1,1.726241276E0
2.496067917E0,9.599847561E-1,9.499167278E-1,5.461884141E-3,1.350534100E0
2.506037917E0,5.173407371E-1,3.043399733E-1,-4.711902720E-1,7.630757040E-1
2.516006917E0,5.296002653E-1,4.757730272E-1,-8.823384100E-1,1.133736073E0
2.525976917E0,4.653230296E-1,9.495775893E-1,-7.820218241E-1,1.315211486E0
2.535945917E0,1.069271117E0,1.025786397E0,-4.934769344E-1,1.561761166E0
2.545915917E0,7.947449999E-1,9.180964726E-1,-5.465293068E-1,1.331621204E0
2.555884917E0,1.048781012E0,8.950862172E-1,-3.886509758E-1,1.432539887E0
2.565854917E0,1.149689409E0,1.031088653E0,-9.505707389E-1,1.813426115E0
2.575823917E0,1.318730001E0,5.081566617E-1,-7.838631123E-1,1.616079635E0
2.585793917E0,1.548605829E0,-6.916495979E-1,-1.140207052E-1,1.699870555E0
2.595762917E0,7.942020860E-1,-1.089166122E0,1.368772958E0,1.921088026E0
2.605731917E0,4.556250570E-1,-1.859745530E0,2.202721565E0,2.918600679E0
2.615701917E0,1.768711837E-1,-1.028049270E0,1.588136516E0,1.900091132E0
2.625670917E0,5.963459031E-1,-2.802775115E-1,1.180694343E0,1.352117987E0
2.635640917E0,4.290516546E-1,-7.562312177E-1,3.185609865E-1,9.259870836E-1
2.645608625E0,1.959564956E-1,-6.251202706E-1,2.989061558E-1,7.200827666E-1
2.655578625E0,-4.121592678E-2,-4.920051903E-1,-1.769689053E-1,5.244862756E-1
2.665547625E0,-3.117401364E-1,2.025843877E-1,-6.759246808E-1,7.714249937E-1
2.675517625E0,1.612882809E-1,4.572288752E-2,-8.008814335E-1,8.182393064E-1
2.685486625E0,-2.316554283E-1,-8.412088028E-1,-1.727290893E-1,8.894559155E-1
2.695456625E0,3.678585693E-2,-7.524556705E-1,7.706776410E-1,1.077722952E0
2.705425625E0,-9.945938408E-2,-8.268284529E-2,1.438430253E0,1.444233435E0
2.715395625E0,9.631117009E-2,-5.413720626E-1,1.441543896E0,1.542857205E0
2.725364625E0,1.125429676E-1,-1.234888384E0,9.882893729E-1,1.585664254E0
2.735333625E0,-3.622182720E-1,-1.485260019E0,5.122067356E-1,1.612313598E0
2.745303625E0,1.663211256E-1,-1.160194882E0,6.427487487E-1,1.336727659E0
2.755272625E0,1.065371097E-1,-4.457493290E-1,5.964405549E-1,7.521861176E-1
2.765242625E0,2.765562338E-1,-1.627413433E0,1.410106341E0,2.171026882E0
2.775211625E0,8.115629809E-1,-1.417013072E0,1.816669092E0,2.442713063E0
2.785181625E0,4.598829994E-1,-3.218570620E-2,8.649616545E-1,9.801463955E-1
2.795150625E0,-6.466797587E-2,1.853678459E-1,8.516738570E-1,8.740088924E-1
2.805120625E0,3.380910157E-1,-7.503047723E-1,-9.205856323E-3,8.230112599E-1
2.815089625E0,2.071292091E-2,-7.374332964E-2,-1.066292399E0,1.069040029E0
2.825059625E0,-1.233917088E-1,3.625647926E-1,-1.988074372E0,2.024627978E0
2.835028625E0,-8.401810815E-1,4.736770928E-1,-1.368128595E0,1.673932522E0
2.844997625E0,-1.408924618E0,3.832300222E-1,-5.026354283E-1,1.544207306E0
2.854967625E0,-1.466100740E0,3.980942291E-1,-8.389058769E-2,1.521501898E0
2.864936625E0,-1.240648915E0,5.680584624E-1,-1.484771776E-1,1.372568985E0
2.874906625E0,-7.597022711E-1,6.781989554E-1,4.386516863E-1,1.108835725E0
2.884875625E0,1.619259929E-1,3.859255886E-1,3.823734051E-1,5.668932951E-1
2.894845625E0,2.993522618E-1,-5.116021335E-3,-2.649373412E-3,2.994076978E-1
2.904814625E0,5.244278183E-1,-5.649278632E-1,-3.637780899E-1,8.523511752E-1
2.914784625E0,1.102839397E0,3.262796035E-1,-1.140442695E0,1.619667452E0
2.924753625E0,1.231785413E0,7.253210816E-1,-6.002792519E-1,1.550393871E0
2.934723625E0,1.454141868E0,-4.073000854E-1,-6.359431744E-2,1.511445060E0
2.944692625E0,7.751357775E-1,-8.152606139E-1,7.091994309E-1,1.329830506E0
2.954662625E0,5.187794445E-1,-2.473512554E-1,1.438514453E-1,5.924592762E-1
2.964631625E0,5.536936808E-1,1.273085028E-2,-7.223176593E-1,9.102096284E-1
2.974600625E0,4.985129220E-1,-8.797843462E-1,-8.699458212E-1,1.333919548E0
2.984570625E0,2.992149071E-2,-1.091564942E0,-8.993894756E-2,1.095672548E0
2.994539625E0,1.476253662E-1,-1.353250355E-2,1.328972715E-1,1.990930993E-1
3.004509625E0,-1.171322919E-2,5.974372128E-1,1.555710781E0,1.666524665E0
3.014478625E0,-5.791113811E-1,2.511200783E-1,2.061832904E0,2.156289918E0
3.024448625E0,-6.762315866E-1,3.447790244E-1,-1.127945441E0,1.359567083E0
3.034417625E0,-1.394915713E0,3.237544835E-1,-2.067123465E0,2.514678157E0
3.044387625E0,-8.436954043E-1,-1.086456522E-1,-7.420847565E-1,1.128855880E0
3.054356625E0,-1.141640643E0,-4.519874310E-1,2.078133772E0,2.413768003E0
3.064326625E0,-1.791802857E-1,3.123448116E-1,1.165137826E0,1.219512611E0
3.074295625E0,-1.234317805E-1,8.559019786E-1,7.960323375E-1,1.175359981E0
3.084265625E0,5.617471240E-2,4.604846048E-1,2.182806534E-1,5.126871495E-1
3.094234625E0,1.642902597E-1,-4.926124236E-1,9.476757824E-2,5.278628451E-1
3.104203625E0,2.936544243E-1,-3.633734626E-1,-5.528548247E-1,7.238243235E-1
3.114173625E0,2.910217520E-1,-1.695549282E-1,9.204289269E-1,9.801183313E-1
3.124142625E0,-4.812367386E-1,-1.923964915E-1,2.540659055E0,2.592981613E0
3.134112625E0,-6.878174058E-1,-3.123284394E-1,4.249937600E0,4.316550873E0
3.144081625E0,-1.685392376E0,9.025601283E-1,6.314045656E-1,2.013413513E0
3.154051625E0,-1.484791657E0,2.018778101E0,-4.373058327E0,5.040209362E0
3.164020625E0,-1.658655398E0,5.679988208E-1,-6.343810322E0,6.581617567E0
3.173990625E0,-1.239218247E0,-3.045616413E0,-3.946412728E0,5.136692965E0
3.183959625E0,-1.059998091E0,-4.088166777E0,7.330145556E-1,4.286492026E0
3.193929625E0,-1.519913104E0,-1.108819199E0,2.609559721E0,3.217051102E0
3.203898625E0,-1.464959655E0,1.197721727E0,3.182692105E0,3.702725099E0
3.213867625E0,-2.167551294E0,8.189537153E-1,2.512401801E0,3.417766319E0
3.223837625E0,-1.739112939E0,4.529545605E-2,1.350998007E0,2.202671358E0
3.233806625E0,-1.743500836E0,-5.610397571E-1,-5.142567694E-2,1.832267823E0
3.243776625E0,-9.688750090E-1,-4.687049130E-1,-6.019550639E-1,1.233188135E0
3.253745625E0,-8.872232471E-2,-3.158627889E-1,-7.152746880E-1,7.869300042E-1
3.263715625E0,5.189416317E-1,-6.455513191E-1,-1.480035532E-1,8.413928776E-1
3.273684625E0,1.178095694E0,-3.912524021E-1,-1.797510105E-1,1.254311896E0
3.283654625E0,1.010065062E0,1.033558224E0,8.921038449E-2,1.447906255E0
3.293623625E0,1.141798080E0,4.122977006E-1,6.413003933E-1,1.372937888E0
3.303593625E0,5.504447851E-1,-2.849953374E-1,1.062283548E0,1.229901679E0
3.313562625E0,9.795711013E-1,-5.977360055E-1,4.370349312E-1,1.227944382E0
3.323532625E0,7.802344034E-1,7.821001768E-1,-3.017496568E-1,1.145207084E0
3.333501625E0,5.344580955E-1,1.643666646E0,-6.764099997E-1,1.856021548E0
3.343470625E0,2.230109960E-1,-4.728678381E-1,1.377320418E0,1.473210586E0
3.353440625E0,2.627685541E-1,-4.621364433E-1,1.572268927E0,1.659712922E0
3.363409625E0,1.036455373E0,-1.002720886E0,4.373729002E-1,1.506978424E0
3.373379625E0,1.798865490E0,-2.200308419E0,-4.134636354E-1,2.871972557E0
3.383348625E0,1.186200958E0,-1.318818148E0,-1.702886369E0,2.458897315E0
3.393318625E0,8.563913175E-1,-8.916670579E-1,-7.324988312E-1,1.437021492E0
3.403287625E0,8.859714313E-1,1.250695162E0,-1.457301557E-1,1.539617174E0
3.413257625E0,9.299550645E-1,2.057001642E0,5.734107113E-1,2.329135467E0
3.423226625E0,7.570932434E-1,-3.986462063E-1,5.788550538E-1,1.033045086E0
3.433196625E0,-9.432385680E-2,-9.928662810E-1,-1.353961961E0,1.681634155E0
3.443165625E0,-3.226749413E-1,-1.621696025E-1,-2.295440279E0,2.323674713E0
3.453135625E0,-6.848347411E-1,2.114057896E-1,-2.840559822E0,2.929585489E0
3.463104625E0,-6.406494521E-1,1.022201470E-1,-4.297340977E0,4.346034992E0
3.473073625E0,-6.495250138E-1,-1.302552071E-1,-5.473082144E0,5.513027962E0
3.483043625E0,-4.829601689E-1,-1.055562174E0,-7.809599698E-1,1.399057004E0
3.493012625E0,-9.563667183E-1,-1.664904318E0,4.468603000E0,4.863636136E0
3.502982625E0,-1.071916397E0,7.384618217E-1,4.328718891E0,4.520192237E0
3.512951625E0,-1.521375785E0,1.646690533E0,3.523537415E0,4.176300983E0
3.522921625E0,-1.323214962E0,1.193144234E0,2.481394016E0,3.054800691E0
3.532890625E0,-5.713405777E-1,4.538839754E-1,7.645889354E-1,1.056899692E0
3.542860625E0,-7.460619595E-1,1.716611246E0,-1.952208136E0,2.704529390E0
3.552829625E0,-6.879157121E-1,1.322034409E0,-7.461380464E-1,1.666650830E0
3.562799625E0,-1.354888306E0,7.301652074E-2,-9.189133286E-2,1.359962408E0
3.572768625E0,-1.537139586E0,-1.504837081E0,-2.905937541E-1,2.170662912E0
3.582737625E0,-1.064985181E0,-2.087850090E0,2.697098386E-1,2.359248786E0
3.592707625E0,-8.283384964E-1,-7.330078313E-1,6.212929755E-1,1.268641047E0
3.602676625E0,-4.871784599E-1,-1.059282757E0,1.679225610E0,2.044314423E0
3.612646625E0,-1.091612159E0,-1.749990076E0,1.105026695E0,2.339907342E0
3.622615625E0,-6.219422358E-1,-1.063407675E0,1.413410602E0,1.874934015E0
3.632585625E0,-5.991722278E-1,4.165696764E-1,1.570106041E-1,7.464515950E-1
3.642554917E0,-2.077440438E-1,-6.072991267E-1,1.446307622E0,1.582332315E0
3.652524917E0,1.729714015E-1,-1.806472718E0,2.480967754E-1,1.831615351E0
3.662493917E0,4.853781388E-1,-1.455354727E0,-4.679444826E-1,1.603939324E0
3.672463917E0,-3.643208211E-1,-1.774991893E0,1.650239793E0,2.450840112E0
3.682432917E0,-1.474974328E0,-1.895575806E0,1.727342348E0,2.958457113E0
3.692402917E0,1.592464880E-1,-9.261238226E-1,-3.773512316E-1,1.012649362E0
3.702371917E0,6.258326807E-1,9.220307717E-1,-2.543676803E0,2.777066612E0
3.712340917E0,6.493913318E-1,2.478395856E0,-2.592118061E0,3.644616738E0
3.722310917E0,1.718694170E0,3.064665180E0,-2.807074572E0,4.497304745E0
3.732279917E0,1.236280752E0,9.700390434E-1,-1.851056567E0,2.428121962E0
3.742249917E0,-3.684482245E-2,-9.883533999E-1,9.373034066E-1,1.362621613E0
3.752218917E0,-1.253575062E0,-2.275435200E-1,3.841624192E0,4.047382231E0
3.762188917E0,-3.724475811E0,2.273631334E-2,3.609607260E0,5.186665748E0
3.772157917E0,-2.921967682E0,1.269164470E-1,1.140155012E0,3.139101204E0
3.782127917E0,-1.971106775E0,7.354692167E-1,-2.771648632E0,3.479685765E0
3.792096917E0,-3.736766951E-1,1.004223913E0,-3.610414760E0,3.766058242E0
3.802066917E0,-7.034853125E-1,-3.796126422E-1,-9.380822557E-1,1.232475420E0
3.812035917E0,-1.380161434E0,-1.413806459E0,1.993704071E0,2.806875524E0
3.822005917E0,-2.372031203E0,-5.145432830E-2,2.200863320E0,3.236198222E0
3.831974917E0,-2.691226320E0,8.019377330E-1,-3.656568003E-1,2.831873607E0
3.841943917E0,-2.357227369E0,5.597881606E-1,-1.708957533E0,2.964864162E0
3.851913917E0,-2.120875457E0,-1.500477105E0,-4.202990305E-1,2.631766616E0
3.861882917E0,-3.095312483E0,-1.413445393E0,2.893855439E0,4.466898986E0
3.871852917E0,-3.727624244E0,5.164795884E-1,2.046279895E0,4.283596046E0
3.881821917E0,-2.752895442E0,1.371007471E0,2.980214721E-1,3.089807696E0
3.891791917E0,-1.297897103E0,-1.657764575E-1,-1.986036617E0,2.378310360E0
3.901760917E0,-1.043837483E0,-2.034327309E0,-1.134836969E0,2.552633785E0
3.911730917E0,-1.979965453E0,-5.919691890E-1,-2.325209624E-1,2.079604942E0
3.921699917E0,-2.325481373E0,1.045167578E0,5.483928144E-1,2.607867627E0
3.931669917E0,-1.641372783E0,-3.125991654E-1,1.210664831E0,2.063378827E0
3.941638917E0,-8.666582242E-1,-4.068229526E-1,-4.724199414E-1,1.067605729E0
3.951607917E0,-1.176177807E0,1.663089049E0,-2.004883363E0,2.858114189E0
3.961577917E0,-7.333681659E-1,1.473054833E0,-1.785818013E0,2.428346224E0
3.971546917E0,3.861954742E-1,1.744716472E0,-8.633472383E-1,1.984578284E0
3.981516917E0,5.518563030E-1,4.654635090E-1,-2.728913087E-1,7.717974628E-1
3.991485917E0,6.305510183E-1,-1.456420382E0,1.590702274E0,2.247017721E0
4.001455917E0,4.158554390E-1,-9.091864854E-2,1.280514500E0,1.349414440E0
4.011424917E0,5.533793199E-1,1.377603131E0,1.003748242E0,1.792074103E0
4.021394917E0,1.764313269E0,2.552847576E-1,2.149956876E-1,1.795604290E0
4.031363917E0,2.129162423E0,7.598614615E-1,-8.370254123E-1,2.410670779E0
4.041333917E0,1.783777627E0,-2.027710015E0,-3.166664886E-1,2.719144754E0
4.051302917E0,1.360837994E0,-2.527450780E0,2.717569488E-1,2.883355567E0
4.061272917E0,8.857738685E-2,-2.008952732E0,9.440376449E-1,2.221473410E0
4.071241917E0,-3.453269085E-1,-1.932315323E0,5.131364429E-1,2.028891863E0
4.081210917E0,-4.279475541E-1,-2.176499727E0,1.861387428E0,2.895695655E0
4.091180917E0,1.946677510E-1,-2.169939443E0,1.612948591E0,2.710744524E0
4.101149917E0,-2.357496121E-1,-1.098540378E0,1.285996265E0,1.707675389E0
4.111119917E0,-4.811535346E-2,-1.194745787E0,5.058397025E-1,1.298309049E0
4.121088917E0,4.330689475E-1,-9.606288269E-1,2.970888412E-1,1.094814247E0
4.131058917E0,6.983947266E-1,-2.286218051E0,-2.874502909E-1,2.407732510E0
4.141027917E0,8.852854433E-2,-1.706026323E0,-4.839933354E-1,1.775559818E0
4.150997917E0,-1.337111857E-1,-1.231410753E0,1.635735190E-1,1.249402825E0
4.160966917E0,5.389025641E-1,-3.505391166E-1,4.346545297E-1,7.760271941E-1
4.170936917E0,-1.086135108E-1,-1.132380554E-1,4.191822124E-1,4.475862812E-1
4.180905917E0,3.405438861E-1,3.715662888E-1,-7.705308759E-1,9.207331188E-1
4.190875917E0,8.278943273E-1,8.866957551E-1,-1.847017311E0,2.209776307E0
4.200844917E0,1.811470771E0,5.717919096E-1,-8.778378081E-1,2.092599236E0
4.210813917E0,1.936756576E0,3.283536109E-1,-1.022320753E0,2.214493588E0
4.220783917E0,1.805975997E0,-4.706476504E-1,-1.452003980E-1,1.871935273E0
4.230752917E0,1.538600220E0,-6.849978054E-1,7.772756392E-1,1.854904324E0
4.240722917E0,1.014086850E0,1.016294028E0,9.300639689E-2,1.438706321E0
4.250691917E0,7.860526022E-1,1.969323228E0,-9.630867040E-1,2.328872833E0
4.260661917E0,8.197729833E-1,1.756003645E0,-1.284694090E0,2.325083966E0
4.270630917E0,1.142972639E0,2.427705467E-2,-2.846944982E-1,1.178145486E0
4.280600917E0,2.881483754E-1,-7.019152620E-1,-3.690727437E-1,8.437589771E-1
4.290569917E0,7.803645770E-1,-2.174813390E-2,-1.467547633E0,1.662268904E0
4.300539917E0,8.923003844E-1,1.289350812E0,-1.344316978E0,2.065384621E0
4.310508917E0,2.145253522E0,5.144394949E-1,-6.009674692E-1,2.286465081E0
4.320477917E0,1.319240609E0,-3.069115788E-2,1.149233984E0,1.749878991E0
4.330447917E0,8.107250749E-1,-6.164073345E-1,2.177820028E0,2.404190763E0
4.340416917E0,7.392671295E-1,2.112452835E-1,4.317782843E-1,8.818009669E-1
4.350386917E0,1.390116464E0,-1.004627663E-1,2.869906998E-1,1.422982858E0
4.360355917E0,2.318278919E0,3.888082659E-1,2.948597072E0,3.770916826E0
4.370325917E0,2.145905486E0,1.070167641E0,4.524567870E0,5.120730764E0
4.380294917E0,2.850740117E0,2.145913526E0,-2.530850351E-2,3.568235502E0
4.390264917E0,5.488896523E0,2.639148094E0,-5.374537264E0,8.122729745E0
4.400233917E0,6.805484251E0,5.305246004E-1,-7.732700041E0,1.031458783E1
4.410203917E0,5.934634450E0,-1.437082470E0,-4.455311109E0,7.558762410E0
4.420172917E0,4.478601154E0,-1.320686918E0,1.322904475E0,4.853056612E0
4.430142917E0,3.616688530E0,4.226993126E-1,5.323679352E0,6.449858330E0
4.440111917E0,2.695501804E0,1.534748221E0,3.258947983E0,4.499102581E0
4.450080917E0,1.780500994E0,9.043718880E-1,7.399850214E-1,2.129706584E0
4.460050917E0,7.467832866E-1,-1.440324166E0,9.819083065E-1,1.896407895E0
4.470019917E0,-1.457176719E0,-1.679111005E0,2.955460533E0,3.698313767E0
4.479989917E0,-2.248468134E0,-6.284321335E-1,3.423139552E0,4.143479250E0
4.489958917E0,-1.800960694E0,2.106821966E-1,2.156530901E0,2.817529402E0
4.499928917E0,-1.307357898E0,-9.900868070E-1,-1.472544664E0,2.204051802E0
4.509897917E0,-7.735563715E-1,-2.707040992E0,-3.560702317E0,4.539279831E0
4.519867917E0,-1.060577915E0,-3.875826603E0,1.822585890E0,4.412332342E0
4.529836917E0,-1.456732331E0,-2.781875120E0,4.715029226E0,5.665015346E0
4.539806917E0,-7.282142839E-1,5.914850396E-1,3.738820785E-1,1.009919999E0
4.549775917E0,9.925345977E-1,2.921799575E0,-7.018345120E0,7.666759805E0
4.559745917E0,2.146556866E0,4.192205116E-1,-1.015811048E1,1.039089316E1
4.569714917E0,5.925357842E-1,-4.975040288E0,-2.523206286E0,5.609696470E0
4.579683917E0,-1.027184540E0,-6.575816730E0,8.155579448E0,1.052663051E1
4.589653917E0,-3.256013265E0,-2.846992052E0,1.356815753E1,1.424085267E1
4.599622917E0,-4.909640935E0,-1.410766784E0,1.723840801E1,1.797936450E1
4.609592917E0,-2.681118531E0,-2.319978997E0,1.024158065E1,1.083792754E1
4.619561917E0,-3.050594732E0,-4.753844798E-1,3.020529519E0,4.319226458E0
4.629531917E0,1.751900654E0,4.494657901E0,-9.455788540E0,1.061522691E1
4.639500917E0,7.415590918E0,2.490801894E0,-1.177338158E1,1.413533150E1
4.649470750E0,3.508025044E0,-2.104142480E0,-9.506086289E0,1.034888070E1
4.659439750E0,2.501959258E0,-3.084082613E0,-5.373195913E0,6.681511806E0
4.669409750E0,2.153906378E0,1.654669936E0,-1.569861628E0,3.137150110E0
4.679378750E0,2.784621557E0,4.906748317E0,3.630220449E-1,5.653501682E0
4.689347750E0,3.231706682E0,3.642564798E0,-7.150074703E-1,4.921731613E0
4.699317750E0,7.225489166E-1,-1.718034750E-1,-2.364108226E0,2.478023623E0
4.709286750E0,-1.605297655E0,-2.084454904E0,-2.479406548E0,3.615161081E0
4.719256750E0,-4.110188561E0,-2.671284976E0,1.532864540E0,5.136057547E0
4.729225750E0,-4.949323649E0,-7.138976687E-1,8.918443455E0,1.022468034E1
4.739195750E0,-4.615990257E0,7.943746519E-1,1.431404473E1,1.506088555E1
4.749164750E0,-3.290566801E0,2.967046791E0,9.050808045E0,1.007711877E1
4.759134750E0,-1.075087196E0,2.219388761E0,-2.094757406E0,3.235661840E0
4.769103750E0,2.237638798E0,-7.228518024E-1,-1.202234433E1,1.225015532E1
4.779073750E0,3.877871667E0,1.575748312E0,-1.575175110E1,1.629842121E1
4.789042750E0,3.098391335E0,2.551415008E0,-1.147079402E1,1.215273067E1
4.799011750E0,1.482892481E0,-3.379795897E-1,-1.717607903E0,2.294205140E0
4.808981750E0,1.137879349E0,6.205044785E-1,6.413368800E0,6.543018767E0
4.818950750E0,9.422114132E-1,3.576692990E0,7.672701761E0,8.517678522E0
4.828920750E0,-1.449537039E0,4.168961849E0,3.956985079E0,5.927826874E0
4.838889750E0,-4.006611275E0,1.234976385E0,-1.255759728E-1,4.194504727E0
4.848859750E0,-3.867893685E0,-6.293668109E0,-1.069362772E0,7.464207699E0
4.858828750E0,-2.759706278E0,-4.349111640E0,-3.610680224E0,6.290291128E0
4.868798750E0,-2.266283285E0,3.388303303E0,-6.900296853E0,8.014408017E0
4.878767750E0,4.096701812E-2,5.118746138E0,-7.173182899E0,8.812365926E0
4.888737750E0,7.653429338E-1,-1.997555924E0,-7.047081846E-1,2.252241795E0
4.898706750E0,5.276456507E-1,-5.780360928E0,9.708128639E0,1.131100102E1
4.908676750E0,-1.612709293E0,-1.653059320E0,1.427331069E1,1.445893614E1
4.918645750E0,-2.339671250E0,4.648281797E0,9.995203539E0,1.126874789E1
4.928614750E0,-3.957081266E-1,4.973974925E0,2.330490829E0,5.507104410E0
4.938584750E0,3.203140402E0,2.321634636E0,-7.977789009E-1,4.035659425E0
4.948553750E0,3.542573318E0,8.546968675E-1,3.218073606E-2,3.644361130E0
4.958523750E0,1.733618165E0,-1.023225317E0,2.418658070E0,3.146796601E0
4.968492750E0,-3.428800680E-1,-4.803841415E0,3.634730991E0,6.033715974E0
4.978462750E0,-4.992198138E-1,-6.565559544E0,-5.116664529E-2,6.584710364E0
4.988431750E0,-8.638335805E-1,-3.459890472E0,-4.135698209E0,5.460865335E0
4.998401750E0,-3.127920505E-1,4.990519622E-1,-3.246223272E0,3.299220705E0
5.008370750E0,3.439428360E-1,-2.459835917E-2,7.412983060E-1,8.175725853E-1
5.018340750E0,1.404424016E0,-2.436357299E0,2.969052386E0,4.089439544E0
5.028309750E0,1.563510382E0,-1.809728447E0,2.404097918E0,3.391071891E0
5.038279750E0,2.357960317E0,7.758182207E-1,4.487328708E-2,2.482717137E0
5.048248750E0,3.943418369E0,9.904192212E-1,-3.239824664E0,5.198840498E0
5.058217750E0,5.331923341E0,-7.124925828E-1,-8.610826702E0,1.015299900E1
5.068187750E0,4.687617771E0,-2.042774490E0,-1.165940531E1,1.273139506E1
5.078156750E0,4.400561583E0,-3.141687335E0,-8.125490845E0,9.760058557E0
5.088126750E0,2.986141459E0,-3.646402911E0,-5.149679663E0,6.980866395E0
5.098095750E0,2.088476766E0,-5.168821692E-2,-7.300533502E0,7.593562819E0
5.108065750E0,1.199146840E0,4.011677011E0,-1.127465735E1,1.202702806E1
5.118034750E0,-2.416181774E0,-5.221487564E-1,2.144385181E1,2.158586005E1
5.128004750E0,-3.255671788E0,2.479046944E-1,4.170567261E1,4.183328798E1
5.137973750E0,-6.898348560E0,7.774310582E0,1.751002522E1,2.036241884E1
5.147943750E0,3.096613489E0,5.397412741E0,-1.466706686E1,1.593248034E1
5.157912750E0,2.448707057E0,-2.885529588E0,-1.848145122E1,1.886495392E1
5.167882750E0,1.521456842E-1,-3.388536023E0,-9.126794951E0,9.736719713E0
5.177851750E0,3.767098213E0,-7.210265940E-1,3.703290764E0,5.331535499E0
5.187820750E0,-1.040436158E0,-6.148554835E-1,9.602560084E0,9.678311570E0
5.197790750E0,-1.122359084E0,-1.351605825E0,6.742831335E0,6.967948237E0
5.207759750E0,-1.775935341E0,6.149627799E-1,2.670067293E0,3.265177623E0
5.217729750E0,-4.554932169E0,3.299021583E0,-1.903930600E0,5.937668077E0
5.227698750E0,-2.664299015E0,1.899952154E0,-2.757313013E0,4.279145064E0
5.237668750E0,-3.246947157E-1,1.312251433E0,-2.378401744E0,2.735731226E0
5.247637750E0,-1.676267358E-1,1.164323308E0,-1.922129474E0,2.253514855E0
5.257607750E0,2.985065717E-1,-2.646938047E-1,-1.382263654E0,1.438687524E0
5.267576750E0,-6.740676051E-1,-2.339312231E0,-3.055865997E-1,2.453595733E0
5.277546750E0,-1.496979008E0,-2.399763085E0,1.805573416E-1,2.834150661E0
5.287515750E0,-1.119143993E0,-5.713986844E-1,-7.266410905E-1,1.451546419E0
5.297485750E0,2.870228595E-1,5.454165816E-2,-3.464990999E0,3.477286231E0
5.307454750E0,1.371159060E0,-3.429549563E0,-5.533619537E0,6.653031831E0
5.317423750E0,2.504809776E0,-1.383398598E-1,-6.662843179E0,7.119458488E0
5.327393750E0,4.873760958E0,1.717068790E1,-7.343291266E0,1.930051801E1
5.337362750E0,7.668385931E0,2.332578051E1,-2.038348147E0,2.463840584E1
5.347332750E0,5.820297410E0,5.361093346E0,6.358914265E0,1.015150109E1
5.357301750E0,-2.295128915E0,-1.311093216E1,9.409777969E0,1.630055460E1
5.367271750E0,-8.943758390E0,-1.402449295E1,3.400247703E0,1.697759998E1
5.377240750E0,-5.510696697E0,-3.260196948E0,-5.561096773E0,8.480711028E0
5.387210750E0,7.524131320E-1,3.073038977E0,-6.160696578E0,6.925595744E0
5.397179750E0,2.801055741E0,1.650613430E-1,-3.535510173E0,4.513644946E0
5.407149750E0,5.080070899E0,-5.160157288E0,2.265851614E0,7.587386053E0
5.417118750E0,5.700152332E-1,-5.900094947E0,4.158768398E0,7.240952447E0
5.427088750E0,-8.248460276E-1,-2.754409578E0,5.241118421E0,5.977998444E0
5.437057750E0,-1.365984128E0,-2.559620114E0,4.288433329E0,5.177666287E0
5.447026750E0,2.642043927E-1,-5.196498903E0,4.589436881E0,6.938035435E0
5.456996750E0,1.923340432E0,-4.535756225E0,3.361455520E0,5.964202056E0
5.466965750E0,3.240309983E0,-1.696349766E0,1.987386739E0,4.162561395E0
5.476935750E0,3.383112145E0,-3.321650015E0,2.093131880E0,5.182664149E0
5.486904750E0,1.884434521E0,-5.917165893E0,2.299219335E0,6.621960074E0
5.496874750E0,2.306017600E-1,-3.158053400E0,2.084368658E-1,3.173314415E0
5.506843750E0,2.203920829E-1,-1.855764453E0,1.574187398E0,2.443460730E0
5.516813750E0,4.110121903E-1,-2.970379412E0,2.285670751E0,3.770460934E0
5.526782750E0,5.022447612E-1,-2.936972222E0,-4.701898134E-1,3.016477100E0
5.536752750E0,8.753646552E-1,-8.288036424E-1,-5.514204442E0,5.644433487E0
5.546721750E0,1.024960113E0,-1.460953143E0,-6.123730481E-1,1.886777165E0
5.556691750E0,-6.071014908E-1,-3.950516597E0,1.170651399E1,1.237002924E1
5.566660750E0,-1.220667005E0,-8.150635627E-1,1.126166484E1,1.135691206E1
5.576629750E0,7.042979293E-1,4.427153258E0,1.387658880E0,4.692687791E0
5.586599750E0,4.013100808E0,4.846668177E0,-8.417818884E0,1.050975001E1
5.596568750E0,7.061361331E0,1.977511084E0,-1.194485820E1,1.401616964E1
5.606538750E0,4.166701900E0,2.775126556E-1,-1.096036717E1,1.172894141E1
5.616507750E0,1.618548177E0,8.845366707E-1,-7.310376120E0,7.539476264E0
5.626477750E0,-1.108641224E0,2.267348501E-1,2.882626446E0,3.096777241E0
5.636446750E0,-4.980004574E0,1.988602960E-1,1.038055610E1,1.151503087E1
5.646417250E0,-3.513082593E0,5.204840541E-1,1.138280395E1,1.192396237E1
5.656386250E0,-1.684743628E0,2.453665935E0,6.526651002E0,7.173284527E0
5.666356250E0,3.192655760E-1,3.842570271E0,-1.023703619E0,3.989391670E0
5.676325250E0,2.826951013E0,3.088051119E0,-4.527069894E0,6.166204146E0
5.686295250E0,3.289011734E0,4.381456098E-1,-5.339231776E0,6.286252120E0
5.696264250E0,1.797298582E0,6.864654565E-1,-6.009991611E0,6.310429160E0
5.706234250E0,1.335533474E-1,8.353832218E-1,-3.065974663E0,3.180550622E0
5.716203250E0,-5.878399219E-1,1.273000243E-1,1.319127758E0,1.449778987E0
5.726172250E0,-1.976455370E0,-1.393005866E0,4.454928702E0,5.068849071E0
5.736142250E0,-1.916221886E0,2.519205621E-1,2.778451282E0,3.384547505E0
5.746111250E0,-1.747578246E0,2.259742735E0,-1.550371689E0,3.250249118E0
5.756081250E0,-2.359997779E0,2.790628109E0,-6.825413316E0,7.742316300E0
5.766050250E0,-3.667465751E0,4.260096845E0,-5.535613437E0,7.889343844E0
5.776020250E0,-3.916124444E0,6.442994303E-1,-7.399043298E-1,4.037153803E0
5.785989250E0,-4.378860811E0,-2.963529691E-1,2.437723501E0,5.020432547E0
5.795959250E0,-6.022471324E0,-8.781798702E-1,1.783590224E0,6.342125418E0
5.805928250E0,-4.556341933E0,-2.962231609E0,1.351110274E0,5.600050615E0
5.815898250E0,-2.563192470E0,-3.599369954E0,-4.203358680E-1,4.438704986E0
5.825867250E0,-1.263259074E0,-2.106664968E0,-4.535691029E-1,2.497916273E0
5.835837250E0,-2.551739529E-2,-8.767341462E-1,-1.374300331E-1,8.878068002E-1
5.845806250E0,1.343082047E-1,2.341385946E-1,-4.641660118E-1,5.369447475E-1
5.855775250E0,3.807155367E-1,-1.232738363E0,-3.658871806E-1,1.341067344E0
5.865745250E0,-1.085352422E0,-1.736609600E0,9.121182793E-1,2.241821255E0
5.875714250E0,-2.222790379E0,-7.775101125E-1,1.322598081E0,2.700848890E0
5.885684250E0,-3.460084892E0,-5.494874132E-1,1.378815551E0,3.765004144E0
5.895653250E0,-3.487705677E0,-1.561203948E0,1.992314188E0,4.309380986E0
5.905623250E0,-3.349021124E0,-1.016817061E0,1.064613079E0,3.658313878E0
5.915592250E0,-3.153793703E0,-4.097442216E-1,-7.245928109E-2,3.181124863E0
5.925562250E0,-3.647323847E0,8.824863446E-1,-9.108061641E-1,3.861518000E0
5.935531250E0,-2.964489219E0,-5.513234389E-1,1.535957717E0,3.383979902E0
5.945501250E0,-1.746751888E-1,-1.654188125E0,2.638630908E0,3.119170217E0
5.955470250E0,-4.428247710E-1,-1.662717167E0,2.037601458E0,2.666934918E0
5.965440250E0,4.649922234E-1,-1.177623970E0,1.887521558E0,2.272829430E0
5.975409250E0,1.438945393E0,-6.201553997E-1,7.923784125E-1,1.755853101E0
5.985379250E0,5.725316555E-1,8.915547913E-1,-5.121786690E-1,1.176855739E0
5.995348250E0,1.707835160E0,2.119268642E0,-1.459396614E0,3.088339196E0
6.005317250E0,1.481539143E0,1.742742160E-1,5.152624905E-1,1.578234827E0
6.015287250E0,1.099994069E0,-2.170743728E-1,2.731363070E-1,1.153998127E0
6.025256250E0,1.122570096E0,8.381255659E-1,-3.356895277E0,3.637494190E0
6.035226250E0,1.176465490E0,2.128626526E0,-1.009690650E1,1.038569414E1
6.045195250E0,4.834832754E-1,-1.783945150E0,-8.673148665E0,8.867904157E0
6.055165250E0,7.198901146E-1,-7.644310021E0,-3.568944553E0,8.467058680E0
6.065134250E0,-1.648695251E0,-9.022115757E0,2.287151266E1,2.464189238E1
6.075104250E0,2.405726953E0,4.315306255E0,2.062183854E1,2.120541476E1
6.085073250E0,-5.146744945E0,1.122463326E1,-4.977725329E0,1.331386964E1
6.095043250E0,-5.797888176E-1,4.913932791E-1,-7.493487525E0,7.531930544E0
6.105012250E0,4.480154175E-1,-3.626333805E0,-5.997991955E0,7.023312763E0
6.114982250E0,-8.390006018E-1,9.201742807E-1,-5.842954786E0,5.974174701E0
6.124951250E0,1.835696078E0,3.419283898E0,-3.968623377E0,5.550788591E0
6.134921250E0,1.983148093E0,-1.710959619E-1,-3.459405153E0,3.991194583E0
6.144890250E0,5.783439340E-1,-3.447222187E0,-4.749914299E0,5.897415397E0
6.154859250E0,3.642623855E-1,-1.741406364E0,-4.269843861E0,4.625662094E0
6.164829250E0,3.181931236E-1,-6.207035762E-1,1.921003885E0,2.043716154E0
6.174798250E0,1.848529620E-1,-2.326093723E0,1.788577197E1,1.803734242E1
6.184768250E0,-2.707138421E-1,3.766168213E-1,1.526560423E1,1.527264871E1
6.194737250E0,5.007368008E-1,5.981038538E0,5.593998470E0,8.204655887E0
6.204707250E0,1.678127321E-1,7.727001345E0,-6.370203484E0,1.001569785E1
6.214676250E0,-2.591836225E0,1.528544910E0,-8.098372629E0,8.639311535E0
6.224646250E0,-1.516445120E0,-2.849639086E0,-4.303952424E0,5.379967955E0
6.234615250E0,-1.174336300E0,-2.989374092E0,-6.435185931E0,7.192151359E0
6.244585250E0,-1.169009340E0,-4.291201401E0,-5.511580212E0,7.082267202E0
6.254554250E0,-1.977976377E-1,-4.392024940E-1,-4.913567340E0,4.937121301E0
6.264524250E0,6.835484633E-2,9.498116534E0,-2.437990134E0,9.806257490E0
6.274493250E0,7.066453671E-1,1.092497047E1,4.936284943E0,1.200921465E1
6.284463250E0,1.794131584E0,2.552768054E0,6.428269259E0,7.145500581E0
6.294432250E0,1.446648844E-1,-7.721755807E0,6.644202840E-1,7.751638213E0
6.304401250E0,-2.289195307E0,-1.158935684E1,-2.024133566E0,1.198543799E1
6.314371250E0,-6.144697865E-1,-5.902709237E0,3.993063569E-3,5.934607435E0
6.324340250E0,1.290251137E0,1.534276058E0,4.033374858E0,4.504094112E0
6.334310250E0,1.785097928E0,3.064477484E0,3.443155741E0,4.942966551E0
6.344279250E0,2.237601888E-1,3.475289699E-1,6.648360211E-1,7.828486073E-1
6.354249250E0,-3.546342871E-1,-1.483733311E0,-2.532827294E0,2.956762439E0
6.364218250E0,-3.219281057E-1,4.393270397E-1,-2.916394701E0,2.966817151E0
6.374188250E0,1.868178275E-1,5.061097269E0,-3.365227559E0,6.080654816E0
6.384157250E0,1.241483312E0,2.972579719E0,5.034341580E-1,3.260514829E0
6.394127250E0,1.248571307E0,-2.001251365E0,4.033147987E0,4.672282099E0
6.404096250E0,-1.275065772E0,-1.067829164E1,3.341069203E0,1.126119215E1
6.414066250E0,-4.507699677E-1,-1.067845069E1,8.800387001E-1,1.072413030E1
6.424035250E0,-1.108098018E0,-2.852287290E0,1.153448657E0,3.270147979E0
6.434005250E0,-5.490330845E-1,1.531848002E0,4.882049094E0,5.146105225E0
6.443974250E0,6.842006106E-2,2.531740882E0,4.580611678E0,5.234156718E0
6.453943250E0,-1.608656734E-1,-6.162456590E-1,1.410092307E0,1.547254598E0
6.463913250E0,1.215559682E0,-1.383303289E0,-3.660433012E-1,1.877525240E0
6.473882250E0,4.094993694E-1,8.996701419E-1,-1.038991165E0,1.434084634E0
6.483852250E0,1.139286481E-1,1.674770325E0,-1.098785377E0,2.006281306E0
6.493821250E0,-1.200076511E-1,8.000748101E-1,-2.558209473E-1,8.485080407E-1
6.503791250E0,-9.825396230E-2,1.747478405E0,-2.061756306E0,2.704472902E0
6.513760250E0,-8.493038708E-2,1.738139817E0,-4.253991475E0,4.596170869E0
6.523730250E0,1.422084325E-1,-2.176503235E-1,-1.426778507E0,1.450273012E0
6.533699250E0,-2.406769694E-1,-1.325592147E0,2.796658927E0,3.104258543E0
6.543669250E0,-5.477831325E-1,5.612587354E-1,1.291685606E0,1.511135147E0
6.553638250E0,-6.029137149E-1,2.643591685E0,4.411724210E-2,2.711831167E0
6.563608250E0,1.641802773E-1,2.350257341E0,-1.151385759E0,2.622280286E0
6.573577250E0,8.044559095E-1,1.148806552E0,-2.591566669E0,2.946714035E0
6.583547250E0,1.214068130E0,1.550114703E0,-3.642054044E0,4.140214328E0
6.593516250E0,1.194181969E0,1.512134114E0,-3.463447334E0,3.963342981E0
6.603486250E0,1.235577186E0,1.551277422E0,-4.166441115E0,4.614362815E0
6.613455250E0,1.310237505E0,-6.844458282E-3,-3.482595211E0,3.720919049E0
6.623424250E0,1.713857353E0,-9.545535699E-1,-1.519180301E0,2.481207031E0
6.633394250E0,1.942900392E0,7.141567004E-1,-5.089106601E-1,2.131635941E0
6.643362917E0,2.350078124E0,2.257910510E0,2.519097447E-2,3.259089082E0
6.653332917E0,2.268770105E0,1.033602078E0,1.133051814E0,2.738513732E0
6.663301917E0,2.384676099E0,-9.317505983E-1,9.289103132E-1,2.723547988E0
6.673271917E0,1.662550082E0,-1.797727914E0,1.260731031E0,2.754149807E0
6.683240917E0,1.502775499E0,-2.580995488E0,2.883226955E0,4.151249159E0
6.693210917E0,9.644251317E-1,-2.105106101E0,3.662063801E0,4.332701099E0
6.703179917E0,3.328333090E-1,-4.554553562E0,3.552036744E0,5.785473290E0
6.713149917E0,4.664827517E-1,-2.534563333E0,1.760573829E0,3.121095585E0
6.723118917E0,-4.705070979E-1,-1.434043380E0,1.064365157E0,1.846816323E0
6.733088917E0,-9.912993734E-1,-1.681033570E-1,3.350361013E-1,1.059802989E0
6.743057917E0,-1.272245660E0,-7.845542532E-1,4.059283286E-1,1.548842214E0
6.753027917E0,-1.285480394E0,-2.699360674E0,9.319368321E-1,3.131695092E0
6.762996917E0,-1.450634854E0,-3.318309208E0,9.319608057E-1,3.739527835E0
6.772966917E0,-2.479749194E0,-1.552729578E0,1.137580483E0,3.139142330E0
6.782935917E0,-2.349696155E0,-3.081988433E-1,2.159469711E0,3.206145346E0
6.792904917E0,-1.480676386E0,-7.358457774E-2,2.697542775E0,3.078076392E0
6.802874917E0,-1.542788581E0,-2.285501182E-1,1.491337030E0,2.157896638E0
6.812843917E0,-1.468268595E0,1.325187812E0,-9.758073217E-1,2.205478482E0
6.822813917E0,-1.490824375E0,2.050217118E0,-1.908015465E0,3.172770172E0
6.832782917E0,-1.308900686E0,2.302352858E0,-2.278968088E0,3.493958390E0
6.842752917E0,-1.335312120E0,1.377597283E0,-1.784482509E0,2.620154682E0
6.852721917E0,-1.041408477E0,7.335305724E-1,3.151473820E-1,1.312218194E0
6.862691917E0,-8.095320967E-1,1.242482455E0,1.034882911E0,1.808338327E0
6.872660917E0,-6.350365636E-1,2.156352561E0,1.219343269E-1,2.251220954E0
6.882630917E0,-4.601751775E-1,2.592249624E0,-2.040574767E0,3.330985543E0
6.892599917E0,6.985521629E-1,2.055491014E0,-4.813900380E0,5.280781694E0
6.902569917E0,1.257764775E-1,1.675902345E0,-6.546230988E0,6.758521180E0
6.912538917E0,1.404954816E-1,-8.325879604E-2,-6.395713717E0,6.397798446E0
6.922508917E0,3.392424421E-1,-1.936321836E0,-2.923388556E0,3.522872171E0
6.932477917E0,2.655385263E-1,-2.163843428E0,1.555961627E-1,2.185621023E0
6.942447917E0,3.308470099E-1,-1.178327098E0,2.485675347E0,2.770649098E0
6.952416917E0,-1.721214905E-1,-1.176409796E0,6.081630528E0,6.196756869E0
6.962385917E0,-1.069768057E0,-4.041162765E-1,7.096953333E0,7.188494994E0
6.972355917E0,-9.752193841E-1,1.525514590E0,3.458859023E0,3.904094435E0
6.982324917E0,-5.325094013E-1,2.624210504E0,-9.956141800E-1,2.856797968E0
6.992294917E0,-6.526491080E-1,1.491870881E0,-1.877329277E0,2.485154884E0
7.002263917E0,9.484348241E-2,-2.834203899E-1,-2.217030287E-2,2.996897160E-1
7.012233917E0,1.638258446E-1,-7.767751175E-1,1.130880743E0,1.381705376E0
7.022202917E0,-1.483734626E-1,6.032148466E-1,1.377867717E0,1.511423925E0
7.032172917E0,-1.523147418E-1,2.384109212E0,-1.016640183E0,2.596292313E0
7.042141917E0,-1.415070042E-1,2.337242316E0,-4.701940234E0,5.252710523E0
7.052111917E0,6.559649178E-1,8.066099507E-1,-6.175577742E0,6.262481140E0
7.062080917E0,1.203698970E0,-1.888227902E0,-1.810864561E0,2.879848309E0
7.072050917E0,4.297162637E-2,-3.653349403E0,6.051201618E0,7.068652590E0
7.082019917E0,-5.072012267E-1,-2.088302665E0,9.890833079E0,1.012160264E1
7.091989917E0,-1.554390334E0,-5.761983714E-1,6.739699566E0,6.940582405E0
7.101958917E0,-1.165616128E0,1.015929746E0,2.842464845E0,3.235796749E0
7.111928917E0,-7.022387592E-1,6.863710240E-1,2.358398420E-1,1.009883601E0
7.121897917E0,-1.061694149E0,2.877675024E-1,-5.524958056E-1,1.230957439E0
7.131867917E0,-2.594178985E-1,8.442952555E-1,-9.551882851E-1,1.300967634E0
7.141836917E0,3.246460377E-1,2.526759639E0,-2.302482081E0,3.433851053E0
7.151805917E0,-1.419926886E-2,3.314776028E0,-4.893232478E0,5.910301670E0
7.161775917E0,1.846473227E0,1.984038916E0,-6.477501061E0,7.021673148E0
7.171744917E0,2.116736213E0,-1.597323661E0,-5.165815054E0,5.806690989E0
7.181714917E0,2.005621135E0,-4.606549342E0,1.762192923E-1,5.027312027E0
7.191683917E0,2.035560633E0,-2.065714871E0,1.617360899E0,3.320623631E0
7.201653917E0,2.261002518E0,1.737028846E0,1.497227515E0,3.220417959E0
7.211622917E0,2.001800857E0,2.082453987E0,8.581940871E-1,3.013356662E0
7.221592917E0,1.094516982E0,-2.253682389E0,2.075099652E0,3.253166196E0
7.231561917E0,-3.127569672E-2,-4.856432442E0,6.876202816E-1,4.904970528E0
7.241531917E0,-2.360432885E-1,-3.714380886E0,2.336155611E-1,3.729198041E0
7.251500917E0,-1.120981261E0,-1.142358828E0,-2.619365501E-1,1.621787111E0
7.261470917E0,4.609732859E-2,5.675716817E-1,6.652704692E-1,8.756982213E-1
7.271439917E0,9.662961676E-1,1.419321260E0,1.469626318E0,2.260089077E0
7.281409917E0,1.697923252E0,1.141851874E0,1.968642905E0,2.839423174E0
7.291378917E0,1.838200441E0,-9.742320818E-1,3.172194014E0,3.793537118E0
7.301348917E0,1.275179062E0,-3.402319372E0,1.597869206E0,3.969262494E0
7.311317917E0,1.221093048E0,-2.677075766E0,-1.311963750E0,3.221653577E0
7.321287917E0,6.388765032E-1,-1.140057364E0,-9.746343702E-1,1.630277932E0
7.331256917E0,1.707450559E-1,-1.622126965E0,1.817163767E0,2.441830035E0
7.341225917E0,1.687010520E-1,-1.850863025E0,9.767159790E-1,2.099554258E0
7.351195917E0,-2.460165188E-1,-1.676397897E0,1.012943573E0,1.974053879E0
7.361164917E0,-3.738769988E-1,-1.417984879E0,2.297654035E0,2.725743787E0
7.371134917E0,-5.222818536E-1,1.324768567E-1,1.605032045E0,1.693061227E0
7.381103917E0,-6.884615497E-1,2.848353868E0,-3.907466179E-1,2.956312227E0
7.391073917E0,-5.907130975E-1,2.280790958E0,-1.137682809E0,2.616346982E0
7.401042917E0,-7.970358659E-1,4.623548368E-1,-2.699522057E0,2.852447634E0
7.411012917E0,-7.726210362E-1,-9.789461070E-1,-4.431269113E0,4.603414461E0
7.420981917E0,-4.543751781E-1,-3.234094977E-1,-3.939004891E0,3.978292352E0
7.430951917E0,-3.659308154E-1,1.351246221E0,-2.327876539E0,2.716391152E0
7.440920917E0,-3.877653054E-1,1.671380986E0,7.290922433E-1,1.864256375E0
7.450890917E0,-2.125543289E-2,9.071344051E-1,1.432085440E0,1.695350503E0
7.460859917E0,-4.297729086E-2,1.167025599E0,2.145144618E-1,1.187355149E0
7.470829917E0,7.714488157E-1,2.002137803E0,-1.737168009E0,2.760695881E0
7.480798917E0,9.814680111E-1,1.749462365E0,-2.467056643E0,3.179664527E0
7.490768917E0,1.474990846E0,6.490491235E-1,-2.620233228E0,3.076115234E0
7.500737917E0,1.192434967E0,1.496293715E-1,-2.935865929E0,3.172317584E0
7.510707917E0,1.254704013E0,-1.014813805E0,-2.097969282E0,2.646810217E0
7.520676917E0,5.928294241E-1,-1.625245285E0,-3.627267605E-1,1.767608459E0
7.530645917E0,7.649783599E-1,-2.029154278E0,2.120036674E0,3.032690962E0
7.540615917E0,4.482957184E-1,-2.589626563E-1,3.046382983E0,3.090061486E0
7.550584917E0,4.971229292E-1,1.353137796E0,3.163351269E0,3.476334902E0
7.560554917E0,7.022264801E-1,5.327149674E-1,2.055409738E0,2.236429399E0
7.570523917E0,1.068408068E0,6.824051499E-2,7.264861393E-1,1.293806275E0
7.580493917E0,3.983155828E-1,-9.982705700E-1,-1.001798195E0,1.469285220E0
7.590462917E0,9.149353217E-1,-1.433482339E0,-1.405936691E0,2.206498638E0
7.600432917E0,5.510684272E-1,-1.975277156E-2,-3.473481156E0,3.516978522E0
7.610401917E0,1.420714944E0,-1.116065068E0,-9.746161854E0,9.912199709E0
7.620371917E0,4.736420460E-1,-3.003239887E0,-1.537174757E1,1.566953764E1
7.630340917E0,-7.765618403E-1,-7.824796026E0,-6.999331729E0,1.052716134E1
7.640310917E0,-5.987356601E-1,-8.609495291E0,1.677255800E1,1.886267732E1
7.650279375E0,6.533116706E-1,3.598995148E0,1.951085821E1,1.985077254E1
7.660249375E0,7.508003969E-1,1.027642187E1,1.137192462E1,1.534565792E1
7.670218375E0,9.676207812E-1,2.310629591E-1,8.531158973E0,8.588966963E0
7.680188375E0,1.149553461E0,-6.027198797E0,9.346604651E-1,6.206624581E0
7.690157375E0,2.154182074E0,-2.414672315E0,-8.092811342E0,8.715775250E0
7.700127375E0,3.782105676E0,8.796378735E-1,-6.232124995E0,7.342851496E0
7.710096375E0,4.068608426E0,-9.696554661E-2,-2.016983006E0,4.542157779E0
7.720066375E0,2.957843274E0,3.009678841E-2,-6.402984145E0,7.053222569E0
7.730035375E0,2.073894248E0,-1.242290082E0,1.298391777E-1,2.420987446E0
7.740005375E0,-1.245751634E0,-7.624836454E-1,1.353212932E1,1.361072380E1
7.749974375E0,-6.401674953E-1,2.991607436E0,9.977829123E0,1.043631178E1
7.759943375E0,1.366254270E0,4.441454378E0,-2.031311023E-1,4.651282615E0
7.769913375E0,1.437067267E0,1.846401307E0,-5.900614180E0,6.347567079E0
7.779882375E0,-1.027016798E0,-1.630734943E0,-1.073675561E1,1.090834456E1
7.789852375E0,4.205088359E-1,-3.442526288E0,-1.040138505E1,1.096433427E1
7.799821375E0,9.119171351E-3,-5.765628283E0,-1.783501346E0,6.035182657E0
7.809791375E0,-2.210595280E0,-6.293974503E0,2.772654353E0,7.224157992E0
7.819760375E0,-2.414740143E0,-4.884912768E0,1.510265052E0,5.654577193E0
7.829730375E0,-2.507652692E0,5.721572437E0,2.798529451E0,6.845179345E0
7.839699375E0,-4.109822233E-1,2.192938121E1,8.717937167E0,2.360231122E1
7.849669375E0,3.113710674E-1,1.785075650E1,8.484799324E0,1.976710093E1
7.859638375E0,7.800935586E-1,4.430099085E-1,3.374115912E0,3.491340992E0
7.869608375E0,-1.504673944E0,-4.614760002E0,-5.018175783E0,6.981557258E0
7.879577375E0,-2.623112397E0,-2.697431970E0,-4.333791350E0,5.739216440E0
7.889547375E0,2.887212198E-1,3.583997917E0,-2.320870405E0,4.279584144E0
7.899516375E0,8.501512420E-1,7.787615336E0,-8.250204939E-1,7.877205632E0
7.909486375E0,1.652337811E-1,5.765028359E0,-8.297908278E0,1.010535185E1
7.919455375E0,4.141094239E-1,7.616647428E-1,-1.409571905E1,1.412235516E1
7.929425375E0,-2.561924501E0,-8.801876872E0,1.170545915E1,1.486789385E1
7.939394375E0,-3.166233947E0,-1.828954969E0,1.819205965E1,1.855589254E1
7.949364375E0,-6.972923364E0,4.694323066E-1,1.093578899E1,1.297819355E1
7.959333375E0,-5.054530261E0,-3.007853632E0,6.818683755E-1,5.921182662E0
7.969303375E0,-4.108162793E0,-6.148465372E0,-4.814340675E0,8.823746603E0
7.979272375E0,-3.634164981E0,-2.488720870E0,-7.831655980E0,8.985305897E0
7.989242375E0,-1.182751028E0,4.113516212E0,-5.835594311E0,7.236993615E0
7.999211375E0,-1.996362800E0,3.818796370E0,-2.259509139E0,4.865598801E0
8.009181375E0,-2.074300484E0,-8.874494612E-1,-5.424637377E-1,2.320464598E0
8.019150375E0,-1.768794575E0,-4.851836823E0,5.746906668E-1,5.196077768E0
8.029119375E0,-2.509346338E0,-1.562686217E0,1.936315404E0,3.533854072E0
8.039089375E0,-2.555294051E0,-2.522744648E0,4.546055219E0,5.793132684E0
8.049058375E0,-2.157232566E0,-3.702438532E0,3.509011177E0,5.538489223E0
8.059028375E0,-2.498754984E0,-4.438061531E0,7.056560183E-1,5.141800953E0
8.068997375E0,-1.589608552E0,-2.528530176E0,2.587825035E0,3.951855085E0
8.078967375E0,-4.781554387E-1,2.563331634E-2,1.704059905E-1,5.082596699E-1
8.088936375E0,-6.514354453E-1,-2.823091266E0,-2.001307206E0,3.521284278E0
8.098906375E0,6.871673416E-1,-8.104611023E0,-3.769083635E0,8.964536253E0
8.108875375E0,4.984505761E-1,-1.756611755E0,-6.841177994E0,7.080667637E0
8.118845375E0,-2.709765831E-1,6.553303195E0,-3.875243928E0,7.618183942E0
8.128814375E0,-1.848248150E0,9.850417124E0,1.182307005E-2,1.002231902E1
8.138784375E0,-8.550871691E-1,-1.840270501E0,9.772930992E-1,2.252303573E0
8.148753375E0,2.377443715E-1,-1.064164247E1,-4.044195131E0,1.138668481E1
8.158723375E0,1.153582777E0,-8.943631505E0,2.672719590E0,9.405462654E0
8.168692375E0,7.527610414E-1,5.321258605E-3,9.186367553E0,9.217159342E0
8.178662375E0,-1.309882141E0,6.461623532E0,1.157611173E1,1.332196429E1
8.188631375E0,-2.160090393E0,6.269219731E0,3.532121712E0,7.512988109E0
8.198601375E0,1.195634564E0,1.376059758E0,-2.789202558E0,3.332076436E0
8.208570375E0,1.215596739E0,-2.002671361E-2,-7.483523870E0,7.581636103E0
8.218540375E0,7.927635247E-1,1.025214832E0,-7.388086785E0,7.500891001E0
8.228509375E0,-2.367719978E-1,8.561674422E-1,-1.989922092E0,2.179191043E0
8.238479375E0,-1.831035262E0,3.454251418E-1,1.386543816E0,2.322608967E0
8.248448375E0,-1.016915806E0,2.503290669E0,1.165105666E0,2.942456991E0
8.258418375E0,-4.173082894E-2,5.086044999E0,7.437149602E-1,5.140302242E0
8.268387375E0,1.168734521E0,4.156512542E0,1.964255154E-2,4.317745097E0
8.278357375E0,1.628881961E0,1.233866583E0,-4.638633599E0,5.068787316E0
8.288326375E0,2.484672258E0,-2.117917935E0,-7.520629131E0,8.198721554E0
8.298296375E0,1.983237263E0,-3.951766439E0,-2.909079834E0,5.292677348E0
8.308265375E0,1.164932296E0,-2.177062229E0,-1.480313859E0,2.878888036E0
8.318234375E0,2.237483482E-1,-1.808620692E0,-1.745427786E0,2.523428281E0
8.328204375E0,-4.117604694E-3,-7.046081972E-1,-1.781260108E0,1.915561860E0
8.338173375E0,2.343108316E-1,3.639019631E0,-1.182616907E0,3.833529469E0
8.348143375E0,5.333517658E-1,6.324121578E0,8.934182405E0,1.095895036E1
8.358112375E0,1.749410617E0,5.988622377E0,2.142074595E1,2.231081336E1
8.368082375E0,3.230103522E-1,2.944434439E0,1.289395719E1,1.322982093E1
8.378051375E0,1.201323904E0,-1.233180705E0,2.354787764E0,2.917008602E0
8.388021375E0,3.035848639E0,-2.700140693E0,-9.419377928E0,1.025825605E1
8.397990375E0,2.711785715E0,-4.017773902E0,-1.265394068E1,1.355059053E1
8.407960375E0,1.215749058E0,-9.260089248E-1,-8.728521797E0,8.861299626E0
8.417929375E0,1.468140102E0,5.936461705E-1,-6.790394926E0,6.972611734E0
8.427899375E0,1.823149707E0,-1.171472114E0,-4.103367199E0,4.640457320E0
8.437868375E0,8.661843804E-1,-6.725601929E0,7.151899034E-1,6.818760393E0
8.447838375E0,-3.227473371E-1,-5.480595231E0,6.478862877E0,8.492158390E0
8.457807375E0,-1.790984759E0,-2.619591496E0,8.641976573E0,9.206174293E0
8.467777375E0,-1.304855728E0,-5.750005692E-2,6.458501703E0,6.589248741E0
8.477746375E0,-8.126260778E-1,9.146910542E-1,3.443891321E0,3.654778830E0
8.487716375E0,-2.656815090E-1,-2.062581933E-1,-1.252774140E0,1.297139989E0
8.497685375E0,8.428146674E-1,-1.012667584E-1,-5.437183163E0,5.503049361E0
8.507655375E0,1.810730514E0,-3.107103686E0,-5.429419815E0,6.512406455E0
8.517624375E0,2.032656906E0,-3.483343654E0,-5.226710297E0,6.601808664E0
8.527594375E0,1.457630317E0,-1.716799234E0,5.311400784E0,5.769147600E0
8.537563375E0,3.112585158E0,8.806866885E0,6.504722773E0,1.138246498E1
8.547533375E0,3.755767186E0,8.427911178E0,3.311235539E0,9.803048239E0
8.557502375E0,4.657766274E0,-7.164298055E-1,2.169961370E0,5.188139423E0
8.567472375E0,2.311041528E0,-1.107400664E1,-5.945355320E-1,1.132819529E1
8.577441375E0,1.675665826E-2,-9.712494755E0,-4.625317150E0,1.075762027E1
8.587410375E0,-1.962980461E-1,-1.690377713E0,-3.727525719E0,4.097603900E0
8.597380375E0,3.366512485E-2,1.636881537E0,9.802295709E-1,1.908235970E0
8.607349375E0,7.352356204E-1,4.334201825E-1,9.173737568E-1,1.252996042E0
8.617319375E0,8.932415669E-1,-1.537308132E0,-2.481006346E0,3.052308844E0
8.627288375E0,2.405989639E-1,-1.277038915E0,-4.239089845E0,4.433801864E0
8.637258375E0,3.274183488E-1,1.856176389E0,-2.804334567E0,3.378888268E0
8.647228042E0,1.152814088E0,4.111968161E0,-1.043238582E0,4.396090220E0
8.657198042E0,1.403005190E0,3.485026775E0,-1.727849302E0,4.135129792E0
8.667167042E0,9.155696715E-1,2.069972813E-2,-1.392801506E0,1.666911017E0
8.677137042E0,-7.770803422E-3,-2.061812147E0,3.082155079E0,3.708208414E0
8.687106042E0,-5.536211754E-1,-2.913915189E0,7.466179274E0,8.033755727E0
8.697076042E0,5.616420203E-1,-2.543416894E0,6.251749420E0,6.772649561E0
8.707045042E0,1.062024151E0,4.033445902E0,-7.815131164E-1,4.243506085E0
8.717015042E0,6.440912694E-1,1.274639452E1,-4.647562298E0,1.358253519E1
8.726984042E0,1.059616268E0,1.213875421E1,-4.369160573E0,1.294456274E1
8.736954042E0,6.449125839E-1,2.662523800E-1,-1.837594523E0,1.965593091E0
8.746923042E0,-2.119457068E0,-8.870092828E0,8.174132663E-1,9.156353504E0
8.756893042E0,-2.777126888E0,-8.043568431E0,1.599283648E0,8.658471865E0
8.766862042E0,-2.346935100E0,-4.509752780E-2,2.956743413E0,3.775244331E0
8.776832042E0,-1.416980327E0,3.666473771E0,7.809242433E0,8.742718715E0
8.786801042E0,-1.970544127E0,2.621934768E0,2.392408749E0,4.059705126E0
8.796771042E0,-1.712299801E0,2.470387217E-1,-2.955824230E0,3.424893519E0
8.806740042E0,-6.067077539E-1,-1.485919000E0,-3.516273419E0,3.865259154E0
8.816710042E0,-8.309962752E-1,-2.005781203E0,2.987281081E0,3.692906890E0
8.826679042E0,-4.510922223E-1,-2.986523867E-2,2.784587350E0,2.821046408E0
8.836649042E0,3.068499637E-1,8.918027133E-2,-3.697426007E0,3.711208576E0
8.846618042E0,1.985216399E0,-4.484136128E-1,-8.056062176E0,8.309169435E0
8.856588042E0,1.831130864E-1,-3.313931983E0,-4.830107692E0,5.860513280E0
8.866557042E0,-7.901498924E-1,-4.981761078E0,9.405898926E0,1.067301339E1
8.876527042E0,-9.022584850E-1,-1.328548500E0,1.573918075E1,1.582090144E1
8.886496042E0,-2.068441135E0,4.197573152E0,7.549861701E0,8.882481680E0
8.896466042E0,4.259660058E-1,-3.525987983E-1,-1.095018016E0,1.226718144E0
8.906435042E0,1.015650834E0,-7.848429887E0,1.795180575E0,8.114928934E0
8.916405042E0,2.325915675E-1,-3.669540635E0,3.549628276E0,5.110722865E0
8.926374042E0,-1.162897538E0,6.174304218E0,-1.523937011E0,6.465040393E0
8.936344042E0,-5.765494236E-1,9.243315341E0,-5.934750225E0,1.099966127E1
8.946313042E0,9.992324370E-1,3.512016061E-1,-7.931135244E0,8.001544494E0
8.956282042E0,1.660663186E0,-7.159417384E0,-8.403325390E0,1.116382269E1
8.966252042E0,6.228050655E-1,-6.712452711E0,-3.323501828E0,7.516021018E0
8.976221042E0,7.142964488E-1,-8.141505200E-1,4.004445174E0,4.148329982E0
8.986191042E0,6.660956575E-1,1.963211718E0,6.164422424E0,6.503690298E0
8.996160042E0,-7.550988313E-2,-1.936986664E-1,5.179540808E0,5.183711402E0
9.006130042E0,2.398721184E-1,6.873925325E-1,1.734471858E0,1.881074096E0
9.016099042E0,8.940338646E-1,2.182460378E0,-1.681461001E0,2.896504955E0
9.026069042E0,1.560031435E0,-3.131780398E-1,-5.027719608E0,5.273494384E0
9.036038042E0,1.822183017E0,-4.142856370E0,-4.990501496E0,6.737114741E0
9.046008042E0,1.231301848E0,-3.992955396E-1,1.445512986E0,1.940373408E0
9.055977042E0,3.634332138E-1,8.776213442E0,5.688933279E0,1.046508327E1
9.065947042E0,4.772783929E-1,1.171807511E1,4.174301527E0,1.244852891E1
9.075916042E0,1.867033499E0,1.326484725E0,-1.255198980E0,2.611685336E0
9.085886042E0,2.945045473E0,-7.555358083E0,-7.535944158E0,1.107010311E1
9.095855042E0,3.280034797E0,-2.164181398E0,-8.125759233E0,9.026088438E0
9.105825042E0,2.370011282E0,2.888842913E0,6.106007570E-1,3.786185434E0
9.115794042E0,1.753921013E0,2.385623056E0,6.809925211E0,7.425800810E0
9.125764042E0,3.049895990E-1,-6.058951517E0,5.038009538E0,7.885775311E0
9.135733042E0,1.263192708E0,-7.817547818E0,-3.567742950E-1,7.926979097E0
9.145703042E0,3.986694489E-1,-1.180880284E-1,-7.853255010E-1,8.886046671E-1
9.155672042E0,-7.501683860E-1,4.381229518E0,1.687288921E0,4.754457761E0
9.165642042E0,-5.590242219E-1,1.530849297E0,1.041927636E0,1.934326976E0
9.175611042E0,-9.845892549E-1,-2.780668547E0,-1.423496464E0,3.275343608E0
9.185581042E0,-1.875577378E-1,-1.376099227E0,-3.915627138E0,4.154631496E0
9.195550042E0,-2.228632624E-1,1.105204450E0,-1.910922700E0,2.218731727E0
9.205520042E0,-6.099858126E-1,-1.344211729E0,1.737130587E0,2.279607541E0
9.215489042E0,-9.845880123E-1,-4.679748004E0,1.583164043E0,5.037446111E0
9.225459042E0,-1.911644831E-1,-1.399067090E0,3.471690738E-1,1.454117928E0
9.235428042E0,-7.544304214E-2,4.463366818E0,3.151783723E0,5.464528858E0
9.245398042E0,2.246549590E-1,3.979814948E0,5.428143952E0,6.734548510E0
9.255367042E0,2.945746481E-1,-2.443735901E0,2.204140685E0,3.304066515E0
9.265337042E0,1.388161156E-1,-5.786342629E0,-2.846158531E0,6.449934056E0
9.275306042E0,7.643100232E-1,-2.415520162E0,-3.188410681E0,4.072452595E0
9.285276042E0,1.967154935E0,1.542345508E0,6.881354213E-1,2.592693302E0
9.295245042E0,2.076615835E0,6.789652330E-1,3.977015886E0,4.537618590E0
9.305214042E0,1.856337919E0,-1.660661870E0,4.332537707E0,4.997466488E0
9.315184042E0,1.809331714E0,1.548433337E-1,1.382547829E0,2.282344454E0
9.325153042E0,1.960890666E0,2.631362234E0,-1.066854317E0,3.450701022E0
9.335123042E0,1.858654293E0,6.081259230E-1,-2.518143182E0,3.188331539E0
9.345092042E0,1.217197487E0,-3.301360469E0,-4.526243098E0,5.733012057E0
9.355062042E0,9.578859711E-1,-2.525822915E0,-5.695162902E0,6.303348905E0
9.365031042E0,4.022903372E-1,-7.131196967E-1,-2.947273847E0,3.058888744E0
9.375001042E0,-2.299048084E-1,-3.267216530E-1,1.235158233E0,1.298159898E0
9.384970042E0,-1.235633465E0,-1.361731156E0,2.272117490E0,2.922947090E0
9.394940042E0,-1.599148284E0,-3.385707432E-1,5.692732215E-1,1.730889189E0
9.404909042E0,-9.696675991E-1,2.111199484E0,6.779027939E-1,2.420117913E0
9.414879042E0,-7.130187591E-1,2.662541049E0,2.863518330E0,3.974576432E0
9.424848042E0,-4.720960422E-1,1.251837416E0,4.589673693E0,4.780698296E0
9.434818042E0,-4.825925983E-1,8.961606431E-1,2.584075216E0,2.777308812E0
9.444787042E0,-3.832738398E-1,2.771070634E0,8.507581830E-2,2.798744217E0
9.454757042E0,-3.813552587E-1,3.567636530E0,-2.130235387E0,4.172692782E0
9.464726042E0,-5.922382341E-1,2.465653019E0,-4.217072155E0,4.920760967E0
9.474696042E0,-7.626581848E-1,1.581593189E0,-6.014959990E0,6.266005762E0
9.484665042E0,-2.758048300E-1,1.025806278E-2,-5.636019486E0,5.642773181E0
9.494635042E0,-2.333742538E-1,-1.235557598E0,-2.745585837E0,3.019819152E0
9.504604042E0,-4.857518489E-1,-4.394320849E0,1.681922346E0,4.730208596E0
9.514574042E0,-6.787439159E-1,-5.447612257E0,5.531058456E0,7.792931429E0
9.524543042E0,-1.194779043E0,-3.544290060E0,5.213948749E0,6.416755453E0
9.534513042E0,-8.395015620E-1,-4.049381027E-1,2.469153455E0,2.639215134E0
9.544482042E0,-7.280034918E-1,7.406346470E-2,9.223275179E-1,1.177354038E0
9.554452042E0,-1.609778230E0,-1.360163810E0,-8.772922629E-1,2.282777531E0
9.564421042E0,-1.991303935E0,-8.122908130E-1,-3.600050570E0,4.193503528E0
9.574391042E0,-1.386873453E0,1.238411039E-2,-4.408115893E0,4.621153218E0
9.584360042E0,-6.978533475E-1,-3.151672626E-1,-2.840435861E0,2.941837110E0
9.594330042E0,-3.261008980E-1,-1.173366027E0,-1.111774381E0,1.648991178E0
9.604299042E0,-3.600428885E-1,-8.899006140E-1,2.001794279E-2,9.601847231E-1
9.614269042E0,5.828788883E-1,1.236952159E-1,1.064965081E-1,6.053014217E-1
9.624238042E0,7.711990665E-1,-6.525562835E-1,-1.255759728E-1,1.018011310E0
9.634208042E0,5.882432701E-1,-4.397870402E0,5.849245221E0,7.341727581E0
9.644177042E0,-4.622980822E-1,-4.451862714E0,7.703655751E0,8.909495669E0
9.654146667E0,-1.113606753E0,3.189694145E-1,3.762566328E0,3.936847325E0
9.664115667E0,-1.607558371E-1,3.045127586E0,6.700833124E-1,3.122123652E0
9.674085667E0,1.059999553E0,5.220692343E-1,8.022835958E-1,1.428220678E0
9.684054667E0,4.197660568E-1,-1.427513209E0,-8.421189219E-1,1.709725646E0
9.694024667E0,1.330073271E-1,4.711668831E-1,-2.552295014E0,2.598826470E0
9.703993667E0,8.870056576E-1,2.475690057E0,-1.036852838E0,2.826815187E0
9.713963667E0,2.520043783E-1,1.451952817E0,1.578348861E0,2.159365258E0
9.723932667E0,2.472752051E-1,-1.924233010E0,1.858409441E0,2.686541150E0
9.733902667E0,-1.560245078E-1,-1.707758269E0,5.235918492E-1,1.793022693E0
9.743871667E0,-3.036099850E-1,-1.833295065E-1,-3.124892378E-1,4.726925583E-1
9.753840667E0,7.054420833E-1,4.695299551E-1,-1.095522630E0,1.385018680E0
9.763810667E0,1.695857431E0,-1.075075502E0,-2.008924373E0,2.840333941E0
9.773779667E0,1.278599391E0,-9.292023817E-1,-2.476116904E0,2.937582065E0
9.783749667E0,6.998892749E-1,1.164047028E0,-2.036378805E0,2.447792703E0
9.793718667E0,1.378429635E0,1.538122941E0,-1.004575623E0,2.296750448E0
9.803688667E0,1.753550738E0,-3.138510543E-1,1.437374246E-1,1.787205395E0
9.813657667E0,1.233212280E0,9.069794539E-1,-9.045782948E-1,1.778113086E0
9.823627667E0,4.503549250E-1,3.746490578E0,6.188570255E-1,3.823871759E0
9.833596667E0,3.491556653E-1,5.488955580E0,1.083125948E0,5.605685048E0
9.843566667E0,1.981864410E-2,1.332526360E0,9.714762890E-1,1.649177207E0
9.853535667E0,1.012783213E0,-3.647839279E0,-4.590064287E-4,3.785823748E0
9.863505667E0,1.006380804E0,-1.308207791E0,-7.224638397E-1,1.801711394E0
9.873474667E0,8.783052930E-1,1.587351235E0,9.542983389E-1,2.049826688E0
9.883444667E0,1.041918500E0,2.473384208E0,1.580911696E-1,2.688534251E0
9.893413667E0,-1.742291742E-1,-9.458780560E-1,1.535882288E-1,9.739766147E-1
9.903383667E0,6.480354904E-2,-4.198579751E0,1.041106102E0,4.326219289E0
9.913352667E0,-1.569653979E-1,-2.421286101E0,1.353989443E0,2.778588118E0
9.923322667E0,-5.990946060E-1,-5.273451769E-1,2.395365686E0,2.524833471E0
9.933291667E0,-2.931783330E-1,-2.085966702E0,2.522906324E0,3.286680230E0
9.943261667E0,2.041865978E-3,-2.267206998E0,-1.299765873E-1,2.270930571E0
9.953230667E0,-6.251910219E-1,-1.606835619E0,-1.474433899E-1,1.730469322E0
9.963200667E0,-9.934276137E-1,-1.262654765E0,-7.562087059E-2,1.608388633E0
9.973169667E0,-1.320011857E0,-8.946678489E-1,1.565036505E-1,1.602296869E0
9.983139667E0,-2.102234241E0,-2.238820813E0,1.018337629E0,3.235539980E0
9.993108667E0,-1.635218588E0,-1.798038401E0,1.303695202E0,2.757988960E0
1.000307867E1,-1.391108445E0,-1.714356852E-1,1.016631997E0,1.731506141E0
1.001304767E1,-6.210753860E-1,2.855233410E-1,2.477075263E0,2.569661470E0
1.002301767E1,-2.157746281E-1,-6.888227615E-1,4.139243960E-3,7.218397469E-1
1.003298667E1,4.368863205E-2,-5.006064445E-1,-4.085586986E0,4.116374197E0
1.004295667E1,4.937917339E-1,-7.755483717E-1,-2.955217874E0,3.094934286E0
1.005292567E1,1.256288462E0,5.784536424E-1,-3.399021542E-1,1.424220064E0
1.006289567E1,1.033996692E0,1.956165531E-1,-5.354587734E-2,1.053699272E0
1.007286467E1,5.558386588E-1,-4.012265825E-1,-8.047347486E-2,6.902284878E-1
1.008283467E1,8.310310661E-1,-6.105554411E-1,8.386252105E-2,1.034612730E0
1.009280367E1,1.122243821E0,5.385148206E-1,1.679934293E-1,1.256045858E0
1.010277367E1,1.267265733E0,1.756053054E0,2.005659288E-1,2.174835961E0
1.011274267E1,1.473178209E0,8.250950459E-1,-6.163181645E-1,1.797465981E0
1.012271267E1,1.065877685E0,-2.132684201E-1,-1.146210389E0,1.579676205E0
1.013268167E1,4.285413388E-1,-1.696130788E0,1.910069007E-1,1.759826970E0
1.014265167E1,5.903470252E-1,-8.388816109E-1,1.518660484E0,1.832637889E0
1.015262067E1,1.908120057E-2,1.650699384E0,-1.103626871E0,1.985740371E0
1.016259067E1,1.728412096E-1,9.465306053E-1,-2.042115508E0,2.257438819E0
1.017255967E1,7.581185527E-1,1.043486504E0,-1.236473272E0,1.786749556E0
1.018252867E1,-1.480030781E-1,2.520737591E-1,-3.721080333E-1,4.731918000E-1
1.019249867E1,-5.570425640E-1,7.910826695E-1,1.724980658E0,1.977793335E0
1.020246767E1,1.951970885E-1,1.247292667E0,1.385321748E0,1.874288464E0
1.021243767E1,-7.058261722E-1,9.067306548E-2,4.802832770E-1,8.585360892E-1
1.022240667E1,-1.292176479E0,1.127009887E-1,-5.636382598E-1,1.414252331E0
1.023237667E1,-6.170994987E-1,1.072396308E0,-1.744429082E-1,1.249510288E0
1.024234567E1,-7.744903911E-2,1.246273498E0,-8.541817278E-1,1.512885458E0
1.025231567E1,1.103143160E0,8.636065623E-1,-4.624966317E-1,1.475345472E0
1.026228467E1,1.663456547E0,2.099477863E-1,-8.878593510E-1,1.897224284E0
1.027225467E1,9.498592789E-1,-8.141470116E-1,-1.282080969E0,1.791312261E0
1.028222367E1,1.361776764E0,-1.318590399E0,1.620052958E0,2.493529262E0
1.029219367E1,6.724746774E-1,-2.030290099E0,2.788454114E0,3.514224869E0
1.030216267E1,-3.994893382E-1,-1.322267128E0,2.688808789E0,3.022858712E0
1.031213267E1,-9.359053373E-2,-1.387072989E0,-5.208863425E-1,1.484605418E0
1.032210167E1,-3.244125510E-1,-1.906738140E0,2.572178471E-1,1.951167563E0
1.033207167E1,-4.755781688E-2,-6.317548138E-1,6.503062749E-1,9.078954465E-1
1.034204067E1,-2.000741049E-1,-1.360616092E0,5.230796331E-1,1.471366066E0
1.035201067E1,-6.641751395E-1,-9.795460314E-1,-1.225687498E-1,1.189816012E0
1.036197967E1,-1.203309838E-1,-6.331774414E-2,-7.860856390E-1,7.977589324E-1
1.037194967E1,2.483446974E-1,-3.236989349E-2,-7.919661838E-1,8.306222577E-1
1.038191867E1,4.913073251E-1,-8.130860344E-1,1.920912668E0,2.142987929E0
1.039188867E1,1.978395549E-1,2.598648816E-2,7.868668270E-1,8.117728688E-1
1.040185767E1,1.422135306E-1,-1.861051798E-1,1.258844134E0,1.280448508E0
1.041182767E1,-7.389813468E-2,-7.360059911E-1,1.335045633E0,1.526274090E0
1.042179667E1,-5.411589316E-1,-4.592216063E-1,2.405263853E-1,7.493933646E-1
1.043176667E1,-4.863235970E-1,-7.421674946E-1,1.470194668E-1,8.994097813E-1
1.044173567E1,-1.413833721E-1,-6.825165394E-1,-1.746371527E0,1.880327523E0
1.045170567E1,-1.164201833E0,-1.684420277E0,-3.285948086E-1,2.073791726E0
1.046167467E1,-7.377268267E-1,-7.607610556E-1,2.448135638E-1,1.087626745E0
1.047164467E1,2.038463630E-2,2.263381165E-1,4.843798363E-1,5.350404678E-1
1.048161367E1,2.017983392E-1,7.241703495E-1,1.907230768E0,2.050042553E0
1.049158367E1,1.636035956E-1,-5.184995091E-1,1.310649295E0,1.418946600E0
1.050155267E1,-3.671856279E-1,-2.129786613E0,-2.529955727E-1,2.175964858E0
1.051152267E1,8.529931350E-1,-1.163570479E0,-8.367716432E-1,1.667837022E0
1.052149167E1,2.527621591E-1,-5.863807127E-1,-1.598371482E-1,6.582392903E-1
1.053146167E1,6.342218272E-1,-3.261679217E-1,1.294785215E0,1.478205531E0
1.054143067E1,1.684437965E0,-5.352824798E-1,8.107737529E-1,1.944534049E0
1.055140067E1,1.595592446E0,-2.270742810E-1,2.806663513E-2,1.611913683E0
1.056136967E1,1.952868286E0,4.568423742E-1,-7.917422354E-2,2.007154218E0
1.057133967E1,9.775366357E-1,9.749077275E-1,6.113345826E-1,1.509885070E0
1.058130867E1,7.280218374E-1,9.657805163E-1,1.582265911E0,1.991560497E0
1.059127867E1,7.790165745E-1,1.357038766E0,1.680169351E0,2.295950802E0
1.060124767E1,7.181067869E-1,1.656010410E0,4.826081300E-1,1.868410673E0
1.061121767E1,1.132255131E0,1.762515104E0,-1.353318182E0,2.493979005E0
1.062118667E1,1.261447899E0,9.952308950E-1,-1.632822107E0,2.290817184E0
1.063115667E1,1.220608899E0,1.458611333E0,-1.814368798E0,2.628567526E0
1.064112567E1,6.198476169E-1,1.353875714E0,-1.373959438E0,2.026068867E0
1.065109575E1,5.201778062E-1,8.739701673E-1,-8.352952212E-1,1.316102925E0
1.066106475E1,3.167704229E-1,-1.181956172E-2,6.774391097E-1,7.479351243E-1
1.067103475E1,-3.462187551E-2,-6.608572832E-1,-3.587904149E-1,7.527692773E-1
1.068100375E1,1.422549544E-1,-1.417958567E-1,-1.273514798E0,1.289256560E0
1.069097275E1,3.953152668E-1,-5.265119487E-1,-3.397776085E-1,7.409033780E-1
1.070094275E1,7.298971125E-1,-1.683800180E0,1.128393922E0,2.154345767E0
1.071091175E1,1.328501466E-1,-1.251067337E0,1.084395379E0,1.660943100E0
1.072088175E1,1.846336001E-1,-1.003011785E0,1.997834544E0,2.243092747E0
1.073085075E1,3.190397273E-1,-7.258049387E-1,2.155523425E0,2.296706423E0
1.074082075E1,-6.192583638E-1,-3.771945262E-1,1.074513000E0,1.296277292E0
1.075078975E1,-6.456966224E-1,-1.049246888E0,-9.857510966E-1,1.577830278E0
1.076075975E1,-1.167400260E-1,-3.120714542E-1,-1.636054448E0,1.669637980E0
1.077072875E1,-1.271090104E0,-7.718891841E-1,1.489584035E-1,1.494547280E0
1.078069875E1,-1.617826484E0,-1.591391368E0,-2.440965782E0,3.332897084E0
1.079066775E1,-1.949735787E0,-1.893941801E0,-2.810831993E0,3.910148549E0
1.080063775E1,-1.353343033E0,-1.721629618E0,-1.306890121E0,2.550197580E0
1.081060675E1,-2.815224385E-1,-2.237542319E0,2.047251703E0,3.045831586E0
1.082057675E1,-7.157825187E-2,-2.533687420E0,3.017815826E0,3.941054142E0
1.083054575E1,4.137424015E-1,-2.039613485E0,3.151741038E0,3.776860801E0
1.084051575E1,3.712458979E-1,-5.982988000E-1,1.778110213E0,1.912448928E0
1.085048475E1,1.399811733E-1,2.192466134E-1,1.347098499E0,1.371983299E0
1.086045475E1,-1.194193298E-1,4.631082505E-1,1.730320335E0,1.795198788E0
1.087042375E1,1.693762044E-1,-1.438005745E-2,-2.347733098E-1,2.898509819E-1
1.088039375E1,7.387042619E-1,2.608062834E-1,-6.919174004E0,6.963380845E0
1.089036275E1,1.515140798E-2,-6.181930742E-1,-4.433626125E0,4.476542512E0
1.090033275E1,-3.967025552E-1,-2.083928947E0,1.348043409E0,2.513434664E0
1.091030175E1,1.594062084E-1,-3.533168364E-1,3.456899621E0,3.478562651E0
1.092027175E1,8.653372102E-2,9.835689157E-1,2.281498763E0,2.485987229E0
1.093024075E1,3.367865384E-1,3.644052038E-1,1.677101317E0,1.748966882E0
1.094021075E1,2.401467685E-2,-1.170266126E0,1.064661611E0,1.582278059E0
1.095017975E1,-1.584252466E-1,-8.085006478E-1,1.475568259E-1,8.369855872E-1
1.096014975E1,1.558402291E-1,7.315144524E-1,4.044355345E-1,8.502750570E-1
1.097011875E1,-2.806946190E-1,1.752783583E0,2.166032041E0,2.800488272E0
1.098008875E1,-1.996734975E-1,2.291317115E0,1.684102188E0,2.850649717E0
1.099005775E1,-5.894715874E-1,1.160546884E0,-6.429586637E-1,1.451806346E0
1.100002775E1,-8.103989464E-1,2.879778267E0,-3.175695326E0,4.362901572E0
1.100999675E1,-5.372311010E-1,3.253384065E0,-3.046253175E0,4.489185175E0
1.101996675E1,-4.847593572E-1,1.528684366E0,-1.033621082E0,1.907941316E0
1.102993575E1,-4.566652401E-1,1.237477823E0,3.343905687E-2,1.319474394E0
1.103990575E1,1.456770831E-1,8.098993018E-1,5.148543549E-1,9.706872299E-1
1.104987475E1,3.955068727E-1,-1.117402034E0,2.229487780E0,2.525000743E0
1.105984475E1,-3.031047856E-1,-2.146902875E0,1.038165538E0,2.403924323E0
1.106981375E1,-2.632732054E-1,-8.049206901E-1,-1.371045771E0,1.611513761E0
1.107978375E1,-8.377313905E-1,-2.042537677E-1,-2.886304345E0,3.012352279E0
1.108975275E1,-9.924512018E-1,8.393523118E-1,-8.445437622E-1,1.550072856E0
1.109972275E1,-1.027113313E-1,3.850648785E-1,2.036614448E-1,4.475517426E-1
1.110969175E1,-8.826733824E-2,-1.540819969E0,-2.357275754E-1,1.561244629E0
1.111966175E1,-4.626243020E-2,-2.121247047E0,-8.926230776E-1,2.301869937E0
1.112963075E1,1.107110715E0,-7.209991121E-1,5.297530603E-1,1.423436743E0
1.113960075E1,4.008525069E-1,-6.927781105E-1,2.184733776E0,2.326732884E0
1.114956975E1,-2.693611070E-1,-1.057989645E0,3.231184233E0,3.410637630E0
1.115953875E1,4.973353385E-2,-9.791241547E-1,1.924246750E0,2.159602531E0
1.116950875E1,1.068816660E-1,-9.065356502E-1,1.328803146E0,1.612125422E0
1.117947775E1,-6.194057136E-1,-8.769642341E-1,2.295464838E-1,1.097916797E0
1.118944775E1,-7.016967224E-1,-2.584477212E0,-3.904080641E-1,2.706347946E0
1.119941675E1,-1.190777720E0,-2.542972506E0,-1.312173080E0,3.099428808E0
1.120938675E1,-1.363907782E0,-1.719211795E0,1.300198567E-1,2.198371851E0
1.121935575E1,1.773326387E-1,-1.069644023E0,1.236194360E0,1.644311922E0
1.122932575E1,-1.169461842E0,-6.768517569E-1,2.457403475E0,2.804389620E0
1.123929475E1,-1.312544086E0,-1.123891859E0,2.128046190E0,2.741256185E0
1.124926475E1,-8.668659465E-1,-1.541533622E-1,-9.917403996E-2,8.860334748E-1
1.125923375E1,-4.680077421E-1,-1.194121889E0,-9.111540735E-1,1.573264147E0
1.126920375E1,-5.498023588E-1,-5.776803482E-1,-1.671998452E0,1.852451360E0
1.127917275E1,-4.208056187E-1,3.975057068E-1,-1.080893481E0,1.226139826E0
1.128914275E1,-1.221986795E0,1.793645973E0,-1.417556278E0,2.592273791E0
1.129911175E1,-1.662893168E0,1.877242153E0,-1.570655680E0,2.959089565E0
1.130908175E1,-1.282489982E0,2.798307842E-1,-1.281258266E0,1.834314195E0
1.131905075E1,-9.082234490E-1,4.855343691E-1,-1.874966417E0,2.139185013E0
1.132902075E1,-7.431727771E-1,1.775558781E0,-2.632317084E0,3.260982673E0
1.133898975E1,-6.477031676E-1,1.498683472E0,-8.503085321E-1,1.840813989E0
1.134895975E1,-4.251729041E-1,2.010448158E-1,1.362053338E0,1.440965062E0
1.135892875E1,-4.351791711E-1,-2.049741447E-3,7.219907999E-1,8.430040496E-1
1.136889875E1,-8.550493084E-1,4.355017912E-1,-6.885447264E-2,9.620353779E-1
1.137886775E1,-2.781582247E-1,5.352699083E-1,-4.101903641E-1,7.294806423E-1
1.138883775E1,-1.141711248E0,3.707780841E-1,2.703062546E-1,1.230465942E0
1.139880675E1,-1.041771881E0,7.121160221E-1,4.426348096E-1,1.337282115E0
1.140877675E1,-1.321076635E0,9.700092226E-2,7.322175801E-1,1.513537327E0
1.141874575E1,-8.048253804E-1,6.116012156E-1,-8.082208586E-1,1.294225983E0
1.142871575E1,-4.546312862E-1,-4.187033254E-1,4.664189440E-1,7.743053095E-1
1.143868475E1,-2.322462894E-1,-7.915320280E-1,2.191827033E0,2.341915249E0
1.144865475E1,-4.695833475E-1,1.007045487E-1,1.747828653E0,1.812609976E0
1.145862375E1,-1.508015555E-1,-1.599552619E-1,1.323903179E-1,2.566203251E-1
1.146859375E1,-9.601157337E-2,-1.123503019E0,3.479929465E-1,1.180074721E0
1.147856275E1,-9.388589121E-2,-2.202519836E0,3.416919869E-1,2.230843250E0
1.148853275E1,6.463990923E-2,-1.533176489E0,-5.367053998E-1,1.625687901E0
1.149850175E1,-1.066403058E0,-1.188168254E0,3.266061705E-1,1.629610650E0
1.150847175E1,-1.580880998E0,-9.092192298E-1,1.821528713E0,2.577563033E0
1.151844075E1,-1.273261614E0,-5.378689957E-1,2.543024254E-1,1.405406673E0
1.152841075E1,-1.017167455E0,-6.693085563E-1,-3.655959892E-1,1.271323721E0
1.153837975E1,-1.754496964E0,-1.204435793E-1,-1.344216406E-2,1.758677612E0
1.154834975E1,-1.269014196E0,-2.121548179E-1,-3.118758649E-1,1.323885664E0
1.155831875E1,-1.386811911E0,-3.210349435E-1,-8.085383624E-1,1.637084296E0
1.156828875E1,-1.413022347E0,-1.646180071E0,-1.919839704E-1,2.177934532E0
1.157825775E1,-1.358051796E0,-1.245780870E0,1.371646864E0,2.297322306E0
1.158822775E1,-6.759517242E-1,-2.760856426E-1,9.440317976E-1,1.193452995E0
1.159819675E1,2.795014946E-1,-2.778567642E-2,9.283033723E-1,9.698661146E-1
1.160816575E1,4.358649033E-1,-2.565957034E-1,4.890020603E-1,7.035215590E-1
1.161813575E1,6.175965120E-1,-8.060527110E-1,3.130827302E-1,1.062622803E0
1.162810475E1,1.635547787E0,-1.420554730E-1,-8.024695373E-1,1.827335130E0
1.163807475E1,1.811372977E0,-1.713450533E-1,7.373876882E-1,1.963204470E0
1.164804350E1,2.005062434E0,-1.444613099E-2,6.871875876E-1,2.119601574E0
1.165801350E1,1.608010032E0,-7.224483445E-1,2.347657084E-2,1.763002843E0
1.166798250E1,7.693537583E-1,-5.200282636E-1,-4.327407360E-1,1.024499461E0
1.167795250E1,5.192104574E-1,-1.125333782E0,2.730930376E-1,1.269068725E0
1.168792150E1,1.143443121E-1,-1.935656422E-1,1.161675104E0,1.183229195E0
1.169789150E1,1.676845867E-1,5.595501789E-1,6.608926588E-1,8.820394718E-1
1.170786050E1,4.593309857E-1,2.867623660E-1,-2.681153029E-1,6.042378875E-1
1.171783050E1,1.035961503E0,2.988421288E-1,-8.640904194E-1,1.381729028E0
1.172779950E1,6.420108300E-1,-4.602007225E-1,-1.087786764E0,1.344337255E0
1.173776950E1,3.577988733E-1,-9.136613595E-1,-1.113717996E0,1.484306198E0
1.174773850E1,-4.913801960E-1,-4.195538029E-1,-1.230358838E0,1.389698803E0
1.175770850E1,-1.832627934E-1,-5.839488557E-1,-1.910402298E-2,6.123287362E-1
1.176767750E1,-3.596134471E-2,2.173491919E-1,3.127535319E-1,3.825554356E-1
1.177764750E1,-2.285051860E-1,1.044559760E0,6.900369358E-1,1.272584255E0
1.178761650E1,-2.302882396E-1,1.586012222E0,-4.282032967E-2,1.603215838E0
1.179758650E1,-1.023734171E-1,4.412241688E-1,1.602973241E-1,4.804730126E-1
1.180755550E1,-3.293428867E-1,1.026664357E0,-1.025231497E0,1.487819230E0
1.181752550E1,-4.833736036E-2,1.151448909E0,-3.383877254E-1,1.201115042E0
1.182749450E1,1.855519601E-1,1.042598604E0,9.787244976E-2,1.063494427E0
1.183746450E1,5.977709061E-1,1.185497831E0,-6.498384976E-1,1.478183086E0
1.184743350E1,3.163652840E-1,-1.110126051E-1,-1.794498789E-1,3.802802262E-1
1.185740350E1,1.493868582E-2,3.473275334E-1,-1.439378672E0,1.480766876E0
1.186737250E1,-2.115854087E-1,-2.373846763E-1,-1.081196952E-1,3.358716097E-1
1.187734250E1,5.911115121E-1,-3.675448662E-1,1.432309388E0,1.592486179E0
1.188731150E1,5.848101506E-1,-2.660196608E-1,-1.593728793E-1,6.619434166E-1
1.189728150E1,1.005662182E0,-1.140135716E0,5.256003678E-2,1.521193095E0
1.190725050E1,3.575572371E-3,-2.089221847E0,1.225959978E0,2.422362190E0
1.191722050E1,-1.748935823E-1,-1.161974190E0,1.629599122E0,2.009070701E0
1.192718950E1,-5.492277602E-1,-3.783110520E-1,1.916161805E-1,6.938927477E-1
1.193715950E1,-1.131542356E0,-3.981293124E-1,1.854730958E-1,1.213793772E0
1.194712850E1,-1.300537705E0,-9.070563447E-1,3.409341878E-1,1.621846373E0
1.195709850E1,-1.205708878E0,-7.772376323E-1,1.224722123E0,1.886206911E0
1.196706750E1,-8.495339222E-1,1.321792334E-1,6.759451461E-1,1.093654916E0
1.197703750E1,-3.771994232E-1,-1.004364538E-1,7.585785824E-1,8.531168454E-1
1.198700650E1,-4.869188435E-1,-5.461591780E-3,-1.670257151E-2,4.872358413E-1
1.199697650E1,-7.060336753E-1,-1.621584928E0,-5.856951267E-1,1.863078101E0
1.200694550E1,-8.347515763E-1,-2.033520101E0,-1.783342302E-2,2.198256634E0
1.201691550E1,-9.411018310E-1,-1.480846540E0,-3.452921176E-1,1.788240973E0
1.202688450E1,-5.101121899E-2,-1.018848091E0,-1.701721019E-1,1.034220538E0
1.203685350E1,5.327171601E-2,-3.115370187E-1,1.325188982E0,1.362357893E0
1.204682350E1,-2.118495567E-1,-2.021169028E-1,2.900287376E0,2.915029732E0
1.205679250E1,-3.888673959E-1,7.089222729E-1,1.390462035E-1,8.204404228E-1
1.206676250E1,2.719757078E-1,1.176738994E0,-1.221490366E0,1.717767202E0
1.207673150E1,-1.124436746E-1,-2.607323161E-1,-2.616377574E-1,3.861078045E-1
1.208670150E1,-1.230597332E-1,-1.195674032E0,-4.279688233E-1,1.275906502E0
1.209667050E1,-6.613521769E-1,-3.232256028E-1,-2.595604171E0,2.697966365E0
1.210664050E1,-1.033748478E0,8.009399056E-2,-7.222352135E-1,1.263595927E0
1.211660950E1,-4.672431821E-1,-4.464375463E-1,3.930147529E-2,6.474312936E-1
1.212657950E1,-6.378499514E-1,-1.453354686E-2,7.594246745E-1,9.918616944E-1
1.213654850E1,-7.598466242E-1,9.963328028E-1,-2.720066249E-1,1.282198717E0
1.214651850E1,7.433086518E-2,2.061157551E0,2.870164275E-2,2.062697096E0
1.215648750E1,2.674859050E-1,-1.270787072E-1,7.940489620E-1,8.474735755E-1
1.216645750E1,1.296687899E0,-2.990751404E-1,-5.058689386E-1,1.423639290E0
1.217642650E1,1.407473047E0,-2.247523516E-1,-3.285375059E-1,1.462679353E0
1.218639650E1,1.112952011E0,1.402438887E0,4.388639402E-1,1.843393221E0
1.219636550E1,5.836974985E-1,2.056825349E0,8.041389173E-1,2.284266334E0
1.220633550E1,-3.798771556E-3,2.464129527E0,-1.918894794E0,3.123156414E0
1.221630450E1,7.874339338E-1,3.542778847E0,-2.917783415E0,4.656693485E0
1.222627450E1,5.123437432E-1,2.887629908E-1,-1.338306625E0,1.461829265E0
1.223624350E1,2.705517646E-2,-9.322712928E-2,1.233891141E0,1.237703773E0
1.224621350E1,6.667035487E-1,-1.898789728E-1,3.475728241E0,3.544183185E0
1.225618250E1,5.094738932E-1,-2.351276511E-1,3.029537154E0,3.081062159E0
1.226615250E1,3.034404706E-1,3.343551931E-1,1.556773805E0,1.620930040E0
1.227612150E1,1.002077546E0,2.821708399E-1,4.958807248E-1,1.153116423E0
1.228609150E1,7.632032914E-1,-6.628605393E-1,-7.198039412E-2,1.013432058E0
1.229606050E1,9.632789312E-1,-8.391035128E-1,-1.088681973E0,1.678460438E0
1.230603050E1,6.932379209E-1,-1.105382498E0,-1.137088147E0,1.730727805E0
1.231599950E1,4.821250038E-1,-8.509490946E-1,-2.996113300E-2,9.784970876E-1
1.232596950E1,-2.945910203E-1,-2.093434474E0,4.489229053E-1,2.161199560E0
1.233593850E1,-1.230219236E0,-1.963730074E0,1.180526528E0,2.600638009E0
1.234590850E1,-8.804222044E-1,-6.296606335E-1,1.530845497E0,1.874860983E0
1.235587750E1,-5.778928214E-1,-3.279320267E-1,8.577736723E-1,1.085023133E0
1.236584750E1,-1.241158865E-1,-1.405967681E0,3.055472479E0,3.365718638E0
1.237581650E1,4.181126835E-1,-2.102812823E0,7.403453853E0,7.707643539E0
1.238578650E1,1.252852931E0,-1.169611238E0,4.273665016E0,4.604545970E0
1.239575550E1,1.434179327E0,8.074618900E-1,-1.109493967E0,1.984903502E0
1.240572550E1,1.373969525E0,7.934326655E-1,-3.838535693E0,4.153514646E0
1.241569450E1,1.725662297E0,-1.809415329E0,-5.303311746E0,5.863191082E0
1.242566450E1,1.343906796E0,-2.295597862E0,-4.947242040E0,5.617032920E0
1.243563350E1,1.157863889E0,-2.044850543E0,-2.044754357E0,3.114977193E0
1.244560350E1,7.930644371E-1,-9.872514921E-1,1.512283511E0,1.972464987E0
1.245557250E1,3.663700875E-1,-1.058203653E0,2.294195407E0,2.552911001E0
1.246554150E1,3.661223117E-2,-1.678215504E0,5.129429001E-1,1.755237349E0
1.247551150E1,5.003459876E-1,-7.436620429E-1,-2.932133067E-1,9.430553454E-1
1.248548050E1,7.321443437E-1,1.318462345E-1,-1.117880629E0,1.342786606E0
1.249545050E1,1.137853694E0,1.387044337E-1,-1.572262495E0,1.945754173E0
1.250541950E1,1.175744529E0,-5.854708859E-1,-2.072071379E0,2.453289863E0
1.251538950E1,1.208941365E0,-1.033763169E0,-6.037063050E-1,1.701372039E0
1.252535850E1,1.113608141E0,6.224586180E-1,1.031580403E0,1.640651076E0
1.253532850E1,4.599183385E-1,5.512790000E-1,1.586591097E0,1.741466256E0
1.254529750E1,2.105135410E-1,1.680990593E0,1.676873860E0,2.383684389E0
1.255526750E1,8.265543647E-2,2.718611170E0,1.013230671E0,2.902467055E0
1.256523650E1,1.822816855E-1,3.768191057E0,5.407008022E-1,3.811147834E0
1.257520650E1,3.526854102E-1,8.850658438E-1,3.140106833E-1,1.003160633E0
1.258517550E1,3.061903978E-1,-2.288045013E0,-7.600620210E-2,2.309692509E0
1.259514550E1,-2.407262139E-1,-1.527388915E0,-1.316319925E0,2.030656089E0
1.260511450E1,-7.390248355E-2,1.574122494E0,-1.042239293E0,1.889334789E0
1.261508450E1,1.359127537E-1,2.956506893E0,7.271334261E-1,3.047643073E0
1.262505350E1,3.584980541E-1,2.427478302E0,2.519132531E-1,2.466704695E0
1.263502350E1,7.680236629E-1,1.452515611E-1,-1.258902606E0,1.481821222E0
1.264499250E1,1.428981299E0,-9.184242091E-1,-9.384137928E-1,1.940647064E0
1.265496275E1,1.067395769E0,1.639489102E-1,-3.224335974E-1,1.127021028E0
1.266493175E1,4.912720956E-2,-1.259423009E-1,7.249851590E-1,7.374811365E-1
1.267490175E1,-5.559277558E-1,-9.715751070E-1,4.372191185E-1,1.201738081E0
1.268487075E1,-1.134777401E0,-9.145144683E-1,2.340523481E-1,1.476088400E0
1.269484075E1,-1.036385499E0,5.040589330E-1,-8.056574392E-1,1.406148719E0
1.270480975E1,-8.318051644E-1,8.603195500E-1,-5.130347013E-1,1.302019264E0
1.271477975E1,-4.592415964E-1,-3.438484401E-2,-7.602140486E-2,4.667594834E-1
1.272474875E1,-4.668820435E-1,-9.281981224E-1,-7.191461295E-1,1.263606645E0
1.273471875E1,-4.458666388E-2,-9.217506900E-1,-6.445561230E-1,1.125639774E0
1.274468775E1,3.963611875E-1,-1.338363051E0,-1.531888640E-1,1.404202505E0
1.275465775E1,-2.488417838E-2,-2.304100883E0,8.325558007E-1,2.450030461E0
1.276462675E1,-3.680284309E-1,-2.633534182E0,8.039278328E-1,2.777993372E0
1.277459675E1,-2.364485371E-1,-8.761766142E-1,6.343392831E-1,1.107239674E0
1.278456575E1,-5.523027744E-2,4.283079618E-1,1.366476172E0,1.433092886E0
1.279453575E1,-5.012655353E-1,-7.071371180E-1,1.693758865E0,1.902663694E0
1.280450475E1,-9.531188093E-1,-1.902058614E0,4.584263849E-1,2.176331129E0
1.281447475E1,-3.174261516E-1,-1.692827988E0,-4.402567470E-1,1.777709752E0
1.282444375E1,-1.369494651E-2,-1.269881631E0,3.684330583E-1,1.322319865E0
1.283441375E1,3.831898957E-1,-1.107840082E0,1.293912810E0,1.745953752E0
1.284438275E1,1.231357397E0,-1.425997319E0,8.240738297E-1,2.056406348E0
1.285435275E1,1.168342319E0,-1.231651365E0,7.511917949E-1,1.856415356E0
1.286432175E1,1.425013232E0,-8.914752692E-1,9.858809048E-1,1.948679560E0
1.287429175E1,6.734077469E-1,-1.012514095E0,3.843947875E-1,1.275312565E0
1.288426075E1,4.956837102E-1,-7.307551914E-1,-2.524938816E-1,9.184000493E-1
1.289423075E1,-1.005654946E-1,1.243369478E-1,-9.027715051E-1,9.168257663E-1
1.290419975E1,-8.125105952E-1,1.317268051E0,-4.307158452E-1,1.606513220E0
1.291416975E1,-7.874381000E-1,7.641679358E-1,-2.156955993E-1,1.118273664E0
1.292413875E1,-4.715828029E-1,6.465918311E-1,-1.981486899E-1,8.244599683E-1
1.293410875E1,-4.348208099E-1,3.317502585E-1,-6.847984153E-1,8.763995894E-1
1.294407775E1,-1.255061717E-1,1.312663077E0,-9.161394095E-1,1.605661100E0
1.295404775E1,-3.578660798E-1,1.497105016E0,-1.054779816E0,1.865998934E0
1.296401675E1,-1.049624545E-1,1.552119129E0,-9.478973919E-1,1.821702603E0
1.297398675E1,3.632728904E-1,1.424288470E0,-8.551178670E-1,1.700526802E0
1.298395575E1,8.587511075E-1,1.305133032E0,-3.342473119E-1,1.597669228E0
1.299392575E1,9.887510106E-1,1.289426826E0,-2.123176628E-1,1.638697315E0
1.300389475E1,7.840891803E-1,2.812747541E-1,-5.014659852E-1,9.723062605E-1
1.301386475E1,4.347775039E-1,-2.994417608E-2,-2.852798045E-1,5.208768554E-1
1.302383375E1,1.018605797E-1,-2.503298271E-1,6.481919217E-1,7.022772724E-1
1.303380275E1,1.143887874E-1,1.827097017E-1,9.498404217E-1,9.739940741E-1
1.304377275E1,1.419212977E-1,3.325808555E-2,4.032427025E-1,4.287801676E-1
1.305374275E1,1.066483018E0,-2.510358784E-1,-8.305180460E-1,1.374832814E0
1.306371175E1,1.157869883E0,-2.142399350E-1,-5.748128736E-1,1.310332498E0
1.307368075E1,1.484209713E0,-6.982274231E-1,3.454143244E-1,1.676219276E0
1.308365075E1,9.457993378E-1,-4.702757674E-1,1.349759567E0,1.713927237E0
1.309361975E1,5.045925645E-1,-3.302861157E-1,8.989977121E-1,1.082543053E0
1.310358975E1,-1.066428895E-1,-6.745856684E-1,8.762690002E-1,1.110984199E0
1.311355875E1,-1.119815070E-1,-6.477264833E-1,1.259447567E0,1.420668022E0
1.312352875E1,-4.000348469E-1,-9.538264686E-1,9.574616826E-1,1.409448717E0
1.313349775E1,-2.920304880E-1,-9.174409997E-1,7.541136485E-1,1.222974729E0
1.314346775E1,-8.885385051E-1,-8.423115876E-1,-4.186460227E-1,1.293929665E0
1.315343675E1,-6.366682291E-1,-1.036845821E0,-1.751720560E0,2.132819873E0
1.316340675E1,-4.469319284E-3,-1.001541502E0,-8.144066280E-1,1.290877032E0
1.317337575E1,6.341933951E-1,-1.126015860E0,1.034190601E0,1.655192792E0
1.318334575E1,1.143410157E0,-1.291073695E0,1.626093131E-1,1.732252828E0
1.319331475E1,1.058359116E0,-1.270257314E0,-6.362092227E-1,1.771564235E0
1.320328475E1,1.250078427E0,-1.256545301E0,-9.227204508E-1,1.998253037E0
1.321325375E1,1.154641489E0,-4.827829617E-1,-6.948158652E-1,1.431448721E0
1.322322375E1,1.260278310E0,-1.017427218E-1,6.597109365E-1,1.426138675E0
1.323319275E1,8.644381095E-1,1.244369352E-1,8.094440961E-1,1.190771826E0
1.324316275E1,3.333665751E-1,-1.596459442E-1,-1.067751864E0,1.129917760E0
1.325313175E1,8.985264631E-2,-8.685454130E-2,-9.846395409E-1,9.925382788E-1
1.326310175E1,4.766881165E-1,3.211697218E-1,4.937248564E-1,7.577240820E-1
1.327307075E1,1.750104535E-1,1.971774673E-1,1.388761665E0,1.413565200E0
1.328304075E1,1.921409681E-2,8.341678780E-1,7.192227280E-1,1.101583661E0
1.329300975E1,-7.732029073E-4,1.113094098E0,-1.429527283E-1,1.122236406E0
1.330297975E1,-2.225531225E-1,1.299656530E0,-9.037023818E-1,1.598535262E0
1.331294875E1,8.001655150E-2,1.266970595E0,-1.018386746E0,1.627491536E0
1.332291875E1,2.507820727E-1,4.334654984E-1,-7.848828667E-1,9.310344251E-1
1.333288775E1,-1.151316579E-1,7.968722901E-1,-4.837594467E-1,9.392997113E-1
1.334285775E1,-6.308756849E-1,8.059027299E-1,3.107046676E-1,1.069589047E0
1.335282675E1,-8.950963037E-1,1.647895644E0,1.930665824E0,2.691510351E0
1.336279675E1,-1.092212375E0,2.406989659E0,1.053056642E0,2.845251374E0
1.337276575E1,-7.571167054E-1,2.652518922E0,-1.681434104E0,3.230526734E0
1.338273575E1,-4.776672328E-1,1.793903250E0,-2.263747786E0,2.927594387E0
1.339270475E1,1.277104989E-2,5.956541044E-1,-1.246847987E0,1.381881621E0
1.340267475E1,4.608715078E-2,4.293519822E-1,-8.524141145E-1,9.555506123E-1
1.341264375E1,-1.131635217E-1,1.531695682E-1,-1.102341068E0,1.118670072E0
1.342261375E1,-1.134867631E-1,-5.518049571E-1,-3.046106994E-1,6.404339422E-1
1.343258275E1,-1.162373993E0,-2.171501527E0,3.399103403E-1,2.486377127E0
1.344255275E1,-1.291458587E0,-1.580096594E0,8.008504432E-1,2.192243591E0
1.345252175E1,-1.239176440E0,-3.403918585E-1,1.123248373E0,1.706784044E0
1.346249175E1,-1.576402762E0,-4.734934902E-1,1.256078401E0,2.070501075E0
1.347246075E1,-1.517997702E0,-1.635036740E0,9.349417162E-1,2.419044889E0
1.348243075E1,-1.495611491E0,-2.325192374E0,2.737403244E-1,2.778184132E0
1.349239975E1,-1.070279177E0,-2.155245975E0,6.485953796E-1,2.492239695E0
1.350236975E1,-6.107631634E-1,-5.964007938E-1,6.782571352E-1,1.090301926E0
1.351233875E1,-9.634279987E-2,-5.453411525E-1,4.349042058E-1,7.041452804E-1
1.352230875E1,4.926083671E-2,-6.539794958E-1,-8.948801029E-1,1.109471140E0
1.353227775E1,-3.219981991E-1,-1.274897372E0,7.859207475E-1,1.531899988E0
1.354224775E1,-3.034035600E-1,-1.286597943E0,2.450584452E0,2.784376437E0
1.355221675E1,-2.310706519E-1,-5.388805640E-1,2.767747954E0,2.829172078E0
1.356218675E1,-6.408404367E-1,3.928507385E-1,6.509915686E-1,9.943833217E-1
1.357215575E1,-8.596686818E-1,8.152310854E-1,-1.385562068E0,1.823023371E0
1.358212575E1,-8.563025860E-1,4.466193947E-1,-1.620676271E0,1.886614581E0
1.359209475E1,-6.767641948E-1,-4.513781512E-1,-1.248952984E0,1.490515202E0
1.360206475E1,-1.056242351E0,-1.007831645E0,-1.296847528E0,1.952738087E0
1.361203375E1,-1.004082410E0,-9.146264425E-1,-6.032864749E-1,1.486162032E0
1.362200375E1,-5.610226175E-1,2.986728519E-2,2.441615993E-1,6.125792346E-1
1.363197275E1,-6.893683798E-1,4.228873006E-1,3.427170038E-1,8.783606188E-1
1.364194275E1,-4.845848543E-1,-5.820122579E-1,3.200713223E-1,8.221960841E-1
1.365191137E1,-5.928251118E-1,-6.213903317E-1,4.170555800E-1,9.547266176E-1
1.366188138E1,-9.131543329E-1,-3.541874868E-1,4.204726928E-1,1.065878463E0
1.367185038E1,-1.241787221E0,-4.054088035E-1,2.212393445E-1,1.324891939E0
1.368182038E1,-1.528510119E0,-8.157500258E-1,7.341834140E-1,1.881705762E0
1.369178938E1,-1.435384877E0,-8.404998279E-1,3.971732926E-1,1.710121730E0
1.370175938E1,-1.042164595E0,-5.579471648E-2,-6.047319067E-1,1.206200967E0
1.371172837E1,-6.453347529E-1,5.325258100E-1,-3.524192888E-1,9.078766638E-1
1.372169838E1,2.779030668E-1,1.389459822E0,6.890703911E-1,1.575641684E0
1.373166738E1,7.155870755E-1,1.932261529E0,8.991859925E-1,2.248162567E0
1.374163738E1,8.926494632E-1,1.710349170E0,9.672873437E-2,1.931702305E0
1.375160638E1,1.274561888E0,8.765034735E-1,-6.242224306E-1,1.668058749E0
1.376157638E1,1.550426652E0,2.907712170E-1,-6.594758785E-1,1.709759965E0
1.377154537E1,1.219355987E0,1.481226609E0,-5.276591724E-1,1.989795339E0
1.378151538E1,6.928727623E-1,3.109689617E0,-1.725677061E-1,3.190614642E0
1.379148438E1,6.982303467E-1,2.182052827E0,-5.957453209E-1,2.367233120E0
1.380145438E1,5.346460835E-1,7.257795033E-1,-1.516352003E0,1.764065112E0
1.381142338E1,2.556899331E-1,-1.695151672E-1,-1.828552973E0,1.854108602E0
1.382139338E1,2.609199386E-1,-9.643406394E-1,-9.157979321E-1,1.355255672E0
1.383136238E1,4.417333517E-1,-3.961830667E-1,3.076313710E-1,6.683759696E-1
1.384133238E1,5.871107010E-3,-1.774866178E0,1.903973284E0,2.602940393E0
1.385130138E1,3.446105515E-1,-1.281156524E0,1.331036198E0,1.879301953E0
1.386127138E1,6.147780810E-1,-1.309513766E0,1.349377744E0,1.978281751E0
1.387124038E1,2.881513538E-1,-6.801855469E-1,8.146884638E-1,1.099727636E0
1.388121038E1,4.834646009E-2,-1.137196906E0,-2.030258524E-1,1.156189292E0
1.389117938E1,-4.565329103E-1,-1.565973229E0,-1.390350938E-2,1.631222781E0
1.390114838E1,-4.780784382E-1,-1.193390695E0,-8.915483594E-2,1.288677201E0
1.391111838E1,-9.844767690E-1,-1.028513246E0,1.281914324E-1,1.429498881E0
1.392108738E1,-1.667663911E-1,-1.780275145E0,9.298335886E-1,2.015386098E0
1.393105738E1,1.406260481E-1,-2.008298429E0,1.885328268E0,2.758169854E0
1.394102737E1,5.282853361E-1,-9.796474805E-1,1.571680112E0,1.925869403E0
1.395099638E1,6.101307870E-1,6.037688702E-2,1.265504113E0,1.406202548E0
1.396096538E1,1.026051423E0,2.042610767E-1,1.328614866E0,1.691071131E0
1.397093538E1,8.893883979E-1,-5.745833704E-1,9.229338741E-1,1.404622621E0
1.398090438E1,1.228878470E0,-5.976506361E-1,-2.545561945E-1,1.390009868E0
1.399087438E1,1.205716260E0,2.621511430E-2,-8.612521809E-1,1.481956224E0
1.400084338E1,7.473598221E-1,6.810503501E-1,-7.279350793E-1,1.245899580E0
1.401081338E1,8.138403252E-1,-3.818962723E-2,1.249199152E-2,8.148316221E-1
1.402078238E1,1.137408356E0,3.998212042E-1,-1.006200564E0,1.570348476E0
1.403075238E1,1.369217054E0,1.042372902E0,-1.505639319E0,2.286535888E0
1.404072138E1,1.250897330E0,1.125861493E0,-1.316988847E0,2.136999732E0
1.405069138E1,1.774912371E0,-1.977966875E-2,-2.097079920E0,2.747444149E0
1.406066038E1,1.250769422E0,-9.332702896E-1,-1.512473545E0,2.173244994E0
1.407063038E1,6.412226254E-1,-1.481508445E0,4.515883001E0,4.795751558E0
1.408059938E1,1.210956169E0,4.946384838E-1,5.427589636E0,5.582993044E0
1.409056938E1,1.183643752E0,3.206081552E0,8.149673760E-1,3.513423298E0
1.410053838E1,4.435498989E-1,2.457889086E0,-2.086401150E0,3.254385508E0
1.411050838E1,3.723197391E-1,1.404460269E0,-5.547051761E0,5.734188161E0
1.412047738E1,2.993435276E-1,3.260965857E-1,-8.039975901E0,8.052152385E0
1.413044738E1,4.033382314E-1,-2.047463956E-1,-3.883916518E0,3.910167558E0
1.414041638E1,-2.917727720E-1,-6.522867268E-1,4.136419755E0,4.197687187E0
1.415038638E1,4.480063543E-2,9.859130645E-1,6.860068594E0,6.930697856E0
1.416035538E1,1.167941273E0,2.885919305E0,3.043380437E0,4.353708941E0
1.417032538E1,9.539210473E-1,1.191357910E0,2.670931512E0,3.076227263E0
1.418029438E1,8.436147127E-1,-1.021530502E0,3.747329069E0,3.974630234E0
1.419026438E1,7.963025520E-1,-7.770014048E-2,2.801463000E0,2.913473872E0
1.420023338E1,1.003166298E0,1.869074762E0,-1.524155697E0,2.612055451E0
1.421020338E1,1.285738403E0,1.587755862E0,-4.184762195E0,4.656858012E0
1.422017238E1,-4.684295091E-1,-1.697516286E0,-3.744922355E0,4.138288437E0
1.423014238E1,-1.831632263E0,-3.295395432E0,-2.044659632E0,4.288955678E0
1.424011138E1,-1.964344617E0,-6.200285152E-1,-9.754453790E-1,2.279161868E0
1.425008138E1,-2.696752231E0,1.336170345E0,-4.458572102E-1,3.042468149E0
1.426005038E1,-2.429331285E0,-2.917705062E-1,-1.219177208E0,2.733710589E0
1.427002038E1,-3.202271799E0,-3.950317499E0,-2.728723052E0,5.771090236E0
1.427998938E1,-2.343949804E0,-5.865267177E0,-1.331006961E0,6.455001105E0
1.428995938E1,-1.424673217E0,-3.939007522E0,2.929701794E0,5.111616832E0
1.429992838E1,-9.455497348E-1,-1.217081273E0,7.681533396E0,7.834622291E0
1.430989838E1,-2.338662605E-1,1.344342414E0,1.010420616E1,1.019592723E1
1.431986738E1,5.095946382E-1,3.738572863E0,6.225654466E0,7.279793080E0
1.432983738E1,2.943284803E-1,4.641358986E0,3.232948923E-1,4.661905413E0
1.433980638E1,-3.984654542E-1,1.982766562E0,-5.118769526E0,5.503811354E0
1.434977638E1,-1.637251373E0,-1.966569774E0,-8.916409208E0,9.276332352E0
1.435974537E1,-1.654559862E0,-4.696725979E0,-8.612335868E0,9.948323093E0
1.436971538E1,-1.192861887E0,-2.912872338E0,-6.630374760E0,7.339592237E0
1.437968438E1,-1.043506896E0,-2.085265621E0,-3.814433470E0,4.470698161E0
1.438965438E1,-2.100405378E-1,-5.669043975E0,9.991018102E0,1.148923928E1
1.439962338E1,2.935716313E-1,-4.646305439E0,1.584362255E1,1.651347068E1
1.440959338E1,-4.712627774E-1,5.071273178E0,5.822165011E0,7.735470617E0
1.441956237E1,-7.179122208E-1,5.614317545E0,3.090928826E0,6.449015464E0
1.442953238E1,3.516034560E-1,-1.319114310E-1,4.978336948E-1,6.235896115E-1
1.443950138E1,1.288904304E-1,-2.581214758E0,-7.178760558E0,7.629802456E0
1.444947138E1,-1.082049476E0,1.820989600E-1,-9.890750048E0,9.951428421E0
1.445944038E1,-3.251612139E-1,3.762135096E0,-5.110088165E0,6.353927239E0
1.446941038E1,-8.570365577E-1,3.325005732E0,-1.189669819E0,3.633935753E0
1.447937937E1,-1.044575658E-1,2.235480883E0,-4.873554844E-1,2.290371483E0
1.448934938E1,7.440523446E-1,2.918346794E0,-5.811547637E-3,3.011709759E0
1.449931838E1,3.835646291E-1,2.587436196E0,1.433745464E0,2.982880143E0
1.450928838E1,7.828827535E-1,-9.965304387E-1,1.954672152E0,2.329532473E0
1.451925738E1,1.267776487E0,-4.674066264E0,-8.087324899E-1,4.910010275E0
1.452922638E1,7.039158138E-1,-1.913418877E0,-2.044955501E0,2.887648225E0
1.453919638E1,3.404292807E-1,2.843529331E0,-7.024248469E-1,2.948720369E0
1.454916638E1,-1.716745805E-1,3.202637250E0,1.184872178E0,3.419105087E0
1.455913538E1,1.329739431E-1,1.053760062E0,4.199002504E-2,1.062946612E0
1.456910538E1,-7.865470574E-1,2.464827100E0,-1.731971589E0,3.113479483E0
1.457907438E1,-4.965661646E-1,3.244547460E0,4.623562986E-1,3.314730686E0
1.458904338E1,-2.665954654E-1,1.235643844E0,3.437303263E0,3.662368438E0
1.459901338E1,4.122118928E-1,-5.518851224E0,3.001564075E0,6.295794181E0
1.460898238E1,1.559171894E0,-4.444641110E0,-4.232466120E-1,4.729163699E0
1.461895238E1,7.864579605E-1,-9.868682072E-1,1.342789686E-1,1.269037361E0
1.462892138E1,-1.314731182E-1,7.646634874E-1,3.425234025E0,3.512011326E0
1.463889138E1,-6.831261847E-1,-2.470176718E-1,2.525559790E0,2.627951934E0
1.464886038E1,-1.404492429E0,-1.787798465E0,-5.287075782E-1,2.334170953E0
1.465883104E1,-1.942161742E0,-8.267337281E-1,-5.089047545E0,5.509436069E0
1.466880004E1,-2.430128261E0,-1.807780740E-1,-3.432223787E0,4.209318733E0
1.467877004E1,-1.568728584E0,-3.140042806E0,2.239525110E0,4.163682374E0
1.468873904E1,-9.875059191E-1,-3.767096751E0,2.502312430E0,4.629012137E0
1.469870904E1,4.422409265E-1,-9.545430449E-1,9.194629669E-2,1.056022530E0
1.470867804E1,1.193537898E0,5.826741627E-1,1.838966864E0,2.268444626E0
1.471864804E1,1.070701784E0,-7.624242961E-2,2.756820678E0,2.958424491E0
1.472861704E1,1.915983465E0,-1.161842043E0,-9.565191114E-1,2.436349396E0
1.473858704E1,2.474241117E0,-1.452058651E0,-2.553365055E0,3.840575027E0
1.474855604E1,1.532155273E0,-7.397645813E-1,-1.937376089E0,2.578406005E0
1.475852604E1,2.176422251E0,-1.979952005E-1,-1.997114752E0,2.960486995E0
1.476849504E1,1.706613822E0,-7.837292111E-1,-1.178112797E0,2.216914969E0
1.477846504E1,1.340861128E0,-7.359948814E-1,1.874149561E-1,1.541013107E0
1.478843404E1,1.443102325E0,1.942883581E-1,1.671245915E0,2.216608941E0
1.479840404E1,5.119239496E-1,7.685203108E-1,2.172983796E0,2.361048110E0
1.480837304E1,1.807219407E-1,7.618272954E-1,-2.989769071E-1,8.381100399E-1
1.481834304E1,-5.086981869E-1,-5.719261032E-1,2.431693268E-1,8.031218055E-1
1.482831204E1,-5.467087067E-1,-6.895320287E-1,1.294936073E-1,8.894455705E-1
1.483828204E1,-2.586905415E-1,-3.301101145E-1,-2.911901700E-1,5.105734022E-1
1.484825104E1,-6.753460258E-1,1.328559025E0,-1.774595452E0,2.317401639E0
1.485822104E1,-1.373501894E0,1.796612558E0,1.272319043E-1,2.265063375E0
1.486819004E1,-1.175854091E0,3.641335714E0,1.389435264E0,4.070932200E0
1.487816004E1,-2.036666634E0,4.132798282E0,7.963802469E-1,4.675708943E0
1.488812904E1,-2.099030697E0,2.765163777E0,-3.229528302E-1,3.486597068E0
1.489809904E1,-2.672061486E0,7.540619007E-1,-6.352251363E-1,2.848163076E0
1.490806804E1,-2.470281383E0,6.532936174E-1,-1.851288117E0,3.155368497E0
1.491803804E1,-1.724787261E0,1.237733347E0,-1.883636084E0,2.838126112E0
1.492800704E1,-1.859037578E0,1.313346031E0,-6.864087385E-1,2.377405197E0
1.493797704E1,-1.286505119E0,1.025523857E0,-6.923536026E-1,1.784978463E0
1.494794604E1,-1.082087337E0,-3.632056475E-2,-4.613084775E-1,1.176876246E0
1.495791604E1,-1.038679143E0,4.798999920E-1,-8.450331742E-1,1.422406211E0
1.496788504E1,-5.504810378E-1,-3.043771031E-1,9.977273637E-1,1.179463728E0
1.497785504E1,-4.127221354E-1,-1.204592206E0,1.881932205E0,2.272234752E0
1.498782404E1,-6.302728370E-1,-3.925145236E-1,5.326047474E-1,9.137720269E-1
1.499779404E1,-6.173186231E-1,7.740222484E-1,5.803303063E-2,9.917462155E-1
1.500776304E1,-6.310386030E-1,-2.193851924E-1,1.981527829E-1,6.968530020E-1
1.501773304E1,-1.956266396E-1,-6.556111613E-1,-2.954662389E-1,7.452490022E-1
1.502770204E1,1.658609498E-1,-1.582439866E0,-8.949134320E-1,1.825512485E0
1.503767204E1,5.990441738E-1,-1.259711276E0,-1.337486261E-1,1.401290518E0
1.504764104E1,9.113697626E-1,-1.286835048E0,7.610583866E-1,1.750928083E0
1.505761004E1,9.293389872E-1,-1.858760859E0,6.024982703E-1,2.163716028E0
1.506758004E1,7.901320584E-1,-3.575520916E0,7.611390781E-1,3.740052297E0
1.507755004E1,9.682725996E-1,-2.700637998E0,9.856885314E-1,3.033575334E0
1.508751904E1,8.784788091E-1,-1.906621488E0,1.878110465E0,2.816776426E0
1.509748904E1,5.031668671E-1,-9.324034399E-1,2.815642498E0,3.008387566E0
1.510745804E1,3.702554161E-1,-1.017040132E0,1.885258686E0,2.173858325E0
1.511742704E1,1.405307567E-1,-7.318559298E-1,6.552764082E-1,9.923452860E-1
1.512739704E1,2.841764349E-1,3.932471797E-1,5.102543503E-1,7.041016208E-1
1.513736604E1,1.092724007E0,5.456095397E-2,-1.411312621E0,1.785728414E0
1.514733604E1,1.448799998E0,-3.497260612E-1,-3.223689857E0,3.551549809E0
1.515730504E1,1.645952176E0,-1.364786911E0,-1.275512792E0,2.489725840E0
1.516727504E1,1.283812184E0,-9.527160823E-1,-1.611982630E0,2.270314881E0
1.517724404E1,2.003027164E0,-6.644658923E-2,-1.746548113E0,2.658376060E0
1.518721404E1,1.942305584E0,2.066376776E-2,2.400936913E-1,1.957197729E0
1.519718304E1,1.440934616E0,-4.894905952E-1,1.567952512E0,2.185032881E0
1.520715304E1,7.023459095E-1,1.159544964E0,-2.047519505E-1,1.371042545E0
1.521712204E1,-1.430668952E-1,2.366572242E0,-1.359505706E0,2.733018126E0
1.522709204E1,-8.837631572E-1,1.057987599E0,1.732448137E-1,1.389384339E0
1.523706104E1,-7.364392698E-1,3.321309122E-1,8.922938794E-1,1.203678573E0
1.524703104E1,-8.044757900E-1,1.155539621E0,-3.253209525E-1,1.445090597E0
1.525700004E1,-4.377447832E-1,3.674939954E0,-1.322246078E0,3.930030388E0
1.526697004E1,-1.282490128E0,3.932142014E0,-6.894440281E-1,4.193072241E0
1.527693904E1,-1.572414376E0,2.022927578E0,-1.475661229E0,2.956737902E0
1.528690904E1,-8.927392910E-1,1.044987777E0,-2.258846065E0,2.644119596E0
1.529687804E1,-1.042806180E0,-2.454055944E-1,-1.209787164E0,1.615937381E0
1.530684804E1,-1.158413235E0,-7.165756935E-1,1.730592815E0,2.202351798E0
1.531681704E1,-4.599332489E-1,-5.716381279E-1,7.113494521E-1,1.021923082E0
1.532678704E1,5.320974466E-2,-1.499724861E0,8.337077022E-2,1.502982575E0
1.533675604E1,-4.752858811E-1,-1.813456924E0,2.685932543E0,3.275478028E0
1.534672604E1,1.166408974E-2,-1.262446019E0,2.784874449E0,3.057684041E0
1.535669504E1,1.295067050E0,-2.815627295E-1,-7.178240740E-1,1.507231779E0
1.536666504E1,7.196983259E-1,-1.014562082E-1,-9.944102383E-1,1.231710504E0
1.537663404E1,1.297730896E0,-1.768690641E0,1.391070145E-1,2.198118019E0
1.538660404E1,7.243798260E-1,-1.885711553E0,9.524704993E-2,2.022302201E0
1.539657304E1,8.536766014E-1,-5.796143147E-1,-7.253330684E-1,1.261278936E0
1.540654304E1,1.687950278E-1,2.049773607E-1,3.101433349E-1,4.082846653E-1
1.541651204E1,-5.343434535E-1,-1.323240105E0,1.420530172E0,2.013552401E0
1.542648204E1,-8.331443229E-1,-1.984172232E0,2.047683812E0,2.970534952E0
1.543645104E1,-1.070251257E0,-9.251894376E-1,1.084080214E0,1.782313990E0
1.544642104E1,-8.735609353E-1,-5.932049981E-1,3.116390526E-2,1.056395791E0
1.545639004E1,-2.918124052E-1,7.390091211E-2,-1.082870425E0,1.123932463E0
1.546636004E1,-7.119654746E-2,-6.240163162E-1,-9.970327145E-1,1.178363079E0
1.547632904E1,6.017709863E-1,-9.166592270E-1,-9.434692955E-1,1.446556867E0
1.548629904E1,8.651098815E-1,-1.853099585E-2,2.207733214E-1,8.930281990E-1
1.549626804E1,5.437750124E-1,-2.750334361E-1,4.395118117E-2,6.109552859E-1
1.550623804E1,4.221498570E-1,4.535240793E-1,2.114937901E-3,6.195958887E-1
1.551620704E1,1.410884167E0,2.485183597E-1,-5.185299146E-1,1.523557934E0
1.552617704E1,1.032959762E0,4.628451258E-2,-1.590122230E0,1.896743744E0
1.553614604E1,8.759055957E-1,-1.628270927E0,-1.555891460E-1,1.855447333E0
1.554611604E1,3.529907079E-1,-2.248329263E0,7.164920783E-1,2.385989902E0
1.555608504E1,1.002614832E0,-3.609939381E-1,-2.412251276E-1,1.092585322E0
1.556605504E1,1.081551659E0,2.763584152E-1,-8.070607710E-1,1.377488676E0
1.557602404E1,2.098429110E-2,1.910013458E-1,7.507561773E-1,7.749559293E-1
1.558599404E1,5.505507659E-1,-5.733817676E-1,5.311973226E-1,9.560561661E-1
1.559596304E1,3.042897604E-1,5.207454246E-1,-2.660430497E-1,6.592017596E-1
1.560593304E1,-5.125338142E-1,2.416952145E0,8.727080458E-1,2.620299203E0
1.561590204E1,-1.144825622E0,1.840568124E0,9.811218560E-2,2.169779419E0
1.562587204E1,-9.409137699E-1,1.154939989E0,-4.764358091E-1,1.564032027E0
1.563584104E1,-1.091600756E0,1.175686495E0,-4.814334244E-1,1.674995250E0
1.564581104E1,-1.386495284E0,3.057785930E0,-5.494991076E-1,3.402113055E0
1.565577938E1,-1.742378171E0,3.540187069E0,-7.344102859E-2,3.946416065E0
1.566574938E1,-2.070930879E0,3.164192391E0,-1.397852916E-1,3.784231510E0
1.567571838E1,-1.648165201E0,1.988707625E0,-6.111486411E-1,2.654224785E0
1.568568838E1,-1.860032628E0,2.722697496E-2,-1.242084260E0,2.236791451E0
1.569565738E1,-1.339470952E0,-1.025391126E-1,4.347089088E-1,1.411973278E0
1.570562738E1,-1.593104164E0,-2.152792776E-1,1.377338544E0,2.116928792E0
1.571559637E1,-1.368532784E0,1.213962076E0,-3.073638609E0,3.576847802E0
1.572556638E1,-1.258491986E0,2.639634874E-1,-5.573288217E0,5.719704569E0
1.573553538E1,-1.477624578E0,-2.308636276E0,-2.312781367E0,3.586381672E0
1.574550538E1,-2.032233422E0,-3.712486680E0,-1.093601820E0,4.371326454E0
1.575547438E1,-2.178393786E0,-3.429261295E0,2.167469872E0,4.604688715E0
1.576544338E1,-1.216395249E0,-1.209304769E0,6.388391833E0,6.614649321E0
1.577541337E1,-1.123073468E0,9.324589884E-1,5.930181211E0,6.107194362E0
1.578538238E1,-1.966854059E-1,5.563444430E-1,2.800559605E0,2.862051430E0
1.579535238E1,-2.470868151E-1,1.090201664E-1,4.662558067E-1,5.388244316E-1
1.580532138E1,-3.175005209E-1,-3.308872095E-1,-1.779471445E-1,4.918923789E-1
1.581529138E1,4.573662116E-1,2.654211983E-1,-2.528012697E0,2.582727330E0
1.582526038E1,-1.303613889E-1,-4.890400672E-1,-2.629349037E0,2.677616597E0
1.583523037E1,5.854911319E-1,-9.989774984E-1,-2.125908448E0,2.420793803E0
1.584519938E1,-4.625981540E-1,-2.031019247E0,-1.165272896E0,2.386817370E0
1.585516938E1,-1.758742152E-1,-1.547338445E0,-4.040010864E-1,1.608852039E0
1.586513838E1,-5.431875499E-1,-1.205893211E0,1.708733000E0,2.160786805E0
1.587510838E1,-7.298361553E-1,-9.124024540E-1,2.948829206E0,3.171865814E0
1.588507738E1,-4.593993982E-1,-2.008788426E0,1.388958131E0,2.485051999E0
1.589504738E1,-2.538277046E-1,-1.790882871E0,-2.070599050E0,2.749376363E0
1.590501638E1,2.840591434E-1,-2.438017032E0,1.040634817E0,2.665996524E0
1.591498638E1,1.852698502E-1,-1.224155235E0,2.498101850E0,2.788080668E0
1.592495538E1,-5.737269726E-2,2.941824534E0,-8.448331994E-1,3.061268749E0
1.593492538E1,-3.615537360E-1,4.330100880E0,-7.625535196E-1,4.411573711E0
1.594489438E1,9.530717392E-1,3.223115953E0,-2.214435877E0,4.024990489E0
1.595486438E1,1.693544565E0,-1.638600910E0,7.274386507E-1,2.466226495E0
1.596483338E1,2.031949685E0,-2.741795380E0,3.616659586E0,4.972573578E0
1.597480338E1,2.480522489E0,1.184909893E0,-1.231835260E0,3.012378027E0
1.598477238E1,3.308420105E0,3.642180929E0,-5.012919720E0,7.024278584E0
1.599474238E1,3.343608941E0,9.869971383E-1,-3.032651381E0,4.620698919E0
1.600471138E1,3.355495453E0,-9.052016079E-1,-2.069446564E-1,3.481603909E0
1.601468138E1,2.446389806E0,2.023532180E0,1.841808611E-1,3.180161655E0
1.602465038E1,2.438636106E-2,3.765641379E0,1.138340621E0,3.934014369E0
1.603462038E1,-3.040464431E-1,3.470535328E0,2.756485047E0,4.442439591E0
1.604458938E1,2.318963335E-1,1.277896994E0,1.870599716E0,2.277265890E0
1.605455938E1,2.994750168E-2,8.149205983E-1,-7.686890030E-1,1.120658386E0
1.606452838E1,-6.185213953E-1,9.081357408E-1,-1.784482509E0,2.095628084E0
1.607449838E1,8.156398058E-2,-4.947653684E-1,-1.268144715E0,1.363684887E0
1.608446738E1,1.294443883E0,-2.455723570E0,2.025176125E0,3.436204528E0
1.609443738E1,1.291094306E0,4.698939443E-2,3.643194836E0,3.865488471E0
1.610440638E1,1.440555570E0,-1.486204344E0,3.082300674E0,3.712759237E0
1.611437638E1,1.223552241E0,-9.049957860E-1,5.063729686E-1,1.603904935E0
1.612434538E1,1.397350494E0,-1.581909231E0,-4.878413880E-1,2.166336640E0
1.613431538E1,1.679862957E0,-1.663959700E0,-1.733845621E0,2.932050831E0
1.614428438E1,2.009911091E0,-8.465569586E-2,-4.868730891E-1,2.069771626E0
1.615425438E1,2.064822147E0,-2.998109247E0,2.068765948E0,4.187116204E0
1.616422338E1,1.302858758E0,-3.136721587E0,2.724849272E0,4.354453676E0
1.617419338E1,1.749508850E0,7.393620005E-1,2.218197976E0,2.920246504E0
1.618416238E1,8.001153021E-1,1.730013649E0,4.288916309E0,4.693392678E0
1.619413238E1,1.546192245E0,2.145817632E0,9.258779472E-1,2.802230137E0
1.620410138E1,2.580052916E0,-2.781950256E-1,-4.505922854E-1,2.633837302E0
1.621407138E1,2.178272603E0,-1.731353830E0,-2.470939195E0,3.721289846E0
1.622404038E1,2.444465633E0,-1.260256529E0,-2.867600856E0,3.973259798E0
1.623401038E1,1.572602218E0,-1.156757888E0,-2.539458622E0,3.203126073E0
1.624397938E1,8.534793310E-1,-2.352607630E0,-2.833672387E0,3.780593713E0
1.625394938E1,1.304663647E-1,-1.475460670E0,-2.267161390E0,2.708140770E0
1.626391838E1,2.702064134E-2,-2.133090582E-1,2.525120080E-1,3.316522027E-1
1.627388838E1,2.604108654E-1,-1.766709897E-1,3.425259753E0,3.439684700E0
1.628385738E1,-5.713960897E-1,-1.172373170E0,3.536649796E0,3.769462046E0
1.629382738E1,-2.463063580E-1,-1.211207453E0,2.596618078E0,2.875780896E0
1.630379638E1,1.908396703E-1,-1.084640962E-1,2.296143115E-1,3.176585776E-1
1.631376638E1,-4.989673968E-2,1.790241432E0,-1.445025913E0,2.301207065E0
1.632373538E1,-2.947507955E-1,1.667942531E0,-1.557156798E0,2.300792822E0
