"Time (s)","Linear Acceleration x (m/s^2)","Linear Acceleration y (m/s^2)","Linear Acceleration z (m/s^2)","Absolute acceleration (m/s^2)"
7.893249975E-3,6.035658622E-1,4.839018264E-1,-1.492279601E-1,7.878589415E-1
1.786324999E-2,2.189560068E0,1.895398343E0,-4.182208132E0,5.087000395E0
2.783325000E-2,1.975183600E0,7.603613985E-1,-2.245795664E0,3.085951697E0
3.780325002E-2,2.101486382E0,-5.116459876E-1,-2.409938702E0,3.238183314E0
4.777324997E-2,5.102680547E-1,-3.679808054E0,1.796320197E0,4.126515122E0
5.774324998E-2,-4.655944135E-1,-3.103971917E0,3.220932895E0,4.497313480E0
6.771325000E-2,1.091163239E0,2.621961665E-1,3.347796425E0,3.530881610E0
7.768325001E-2,1.105331481E0,3.576126103E0,1.830169144E0,4.166527893E0
8.765225002E-2,1.748941670E-1,2.174752286E0,1.539837930E0,2.670437478E0
9.762224997E-2,6.438170350E-1,4.416808364E-1,-2.151791732E0,2.289058757E0
1.075922500E-1,2.405490871E0,2.143905593E0,-5.422751065E0,6.307848020E0
1.175622500E-1,9.965771433E-1,1.535416265E0,-5.537114418E0,5.831835490E0
1.275322500E-1,1.929573272E0,-1.932566169E0,2.241070529E0,3.532769753E0
1.375022500E-1,1.257071551E0,5.815301549E-1,9.916661400E-1,1.703469383E0
1.474722500E-1,-1.795661508E0,3.462252163E0,1.735996227E0,4.269106838E0
1.574422500E-1,-6.882147972E-1,-2.644210321E-1,4.718355122E0,4.775608144E0
1.674122500E-1,-2.689530335E0,-1.146767043E0,1.581553136E0,3.324147770E0
1.773822500E-1,-2.244613065E-1,3.074646377E0,-5.008246626E0,5.881017555E0
1.873522500E-1,9.299652971E-1,-7.775615680E-1,-2.041403317E-1,1.229272436E0
1.973212500E-1,4.764330317E-1,-4.893948178E0,1.638849417E0,5.183005365E0
2.072912500E-1,-1.462245743E-1,1.971270643E0,-1.736990839E0,2.631430552E0
2.172612500E-1,-1.741911563E0,2.132887684E0,-2.138736069E-2,2.753892370E0
2.272312500E-1,1.434297003E0,-2.477773713E0,2.927764612E0,4.094920767E0
2.372012500E-1,5.010230951E-1,-1.437123401E0,2.394386863E0,2.837152844E0
2.471712500E-1,-7.826675029E-1,-7.872188294E-1,2.515903113E0,2.749918250E0
2.571412500E-1,-1.620301172E0,-1.225938928E0,2.720621150E0,3.395597383E0
2.671112500E-1,-2.867209677E0,5.524551675E-1,5.225957760E0,5.986378919E0
2.770812500E-1,1.001603483E0,3.111777366E0,-3.453263823E0,4.755144471E0
2.870512500E-1,8.324977671E-1,-1.754494186E0,-5.595087222E0,5.922525087E0
2.970212500E-1,-3.090762472E0,-3.923545145E0,-4.529532157E0,6.742676080E0
3.069912500E-1,-1.247147510E-1,-4.672907639E-1,-7.398130547E0,7.413922715E0
3.169602500E-1,8.928730461E-1,-2.056062287E-1,-7.726493222E-1,1.198533760E0
3.269302500E-1,-2.006282017E-1,-1.483691503E0,3.240911077E0,3.570027557E0
3.369002500E-1,7.597323842E-1,8.128711492E-2,2.443152641E0,2.559842909E0
3.468702500E-1,1.189384182E0,1.566417910E0,1.509880890E0,2.479524169E0
3.568402500E-1,1.358086440E0,2.396630439E-1,9.568985957E-1,1.678538673E0
3.668102500E-1,-7.431913421E-1,-2.738137946E0,4.029335017E0,4.928009077E0
3.767802500E-1,-2.944040556E-1,-1.967108595E0,1.223779551E0,2.335342879E0
3.867502500E-1,-1.232838643E-1,1.264873783E0,-1.385497164E0,1.880081644E0
3.967202500E-1,1.934192426E-1,2.752346680E0,9.601625115E-1,2.921426929E0
4.066902500E-1,-7.647918338E-1,9.019341838E-1,-8.296386248E-1,1.444538704E0
4.166602500E-1,-3.825848550E-1,-1.083839893E0,-3.318521170E0,3.511931497E0
4.266292500E-1,3.154602081E-2,-2.021268723E0,1.231789067E0,2.367240315E0
4.365992500E-1,-2.749019469E-1,3.154368192E-2,2.700761082E0,2.714898987E0
4.465692500E-1,-3.112460101E-1,2.875280881E0,1.559281676E0,3.285646598E0
4.565392500E-1,-1.455013834E0,9.895582187E-1,-2.481446056E0,3.042016643E0
4.665092500E-1,-2.879993445E0,-1.403477937E0,-1.645059745E0,3.601435009E0
4.764792500E-1,-2.341133492E0,-1.224757498E0,6.001032507E-1,2.709439217E0
4.864492500E-1,-5.532326644E-1,1.148646339E0,1.463354595E0,1.940840401E0
4.964192500E-1,-9.991848553E-1,8.383325574E-1,-1.740921337E0,2.175311231E0
5.063892500E-1,1.918929366E-1,1.782728637E0,-2.626521909E0,3.180182641E0
5.163592500E-1,1.631096886E0,-7.188069910E-2,-4.220824313E0,4.525594079E0
5.263292500E-1,-6.012982754E-1,-3.046798720E0,-2.275957357E0,3.850262841E0
5.362982500E-1,1.070658003E0,2.149596103E0,5.426485097E-1,2.462019368E0
5.462682500E-1,-1.662531883E-1,2.110118919E0,5.924847965E0,6.291586873E0
5.562382500E-1,1.805266802E-1,-3.898705004E0,4.501146263E0,5.957584097E0
5.662082500E-1,3.598137069E0,1.307019636E0,-2.058008240E0,4.346295965E0
5.761782500E-1,1.631533965E0,1.612471750E0,1.005387801E0,2.504550430E0
5.861482500E-1,6.144260786E-1,2.184035034E0,1.291649938E-1,2.272490271E0
5.961182500E-1,1.056840375E0,3.756931074E0,-2.499468929E0,4.634521291E0
6.060882500E-1,-6.900334275E-1,1.534521641E0,-5.200221241E0,5.465638458E0
6.160580000E-1,-6.553150729E-1,-1.501048963E0,-2.846015859E0,3.283655296E0
6.260280000E-1,-6.755589375E-1,-3.814752728E-1,-5.851636147E-1,9.717611424E-1
6.359980000E-1,-6.647374224E-1,-4.460674176E-1,4.196109887E0,4.271790042E0
6.459670000E-1,5.912725664E-1,8.785266101E-2,5.983538223E0,6.013322792E0
6.559370000E-1,1.105546220E0,3.382701378E0,2.741086990E-1,3.569318792E0
6.659070000E-1,1.409417685E0,3.868877479E-1,-1.299491054E-1,1.467319703E0
6.758770000E-1,3.741008009E-1,1.085695800E0,-9.667488152E-1,1.501096283E0
6.858470000E-1,-1.510908538E0,1.455157968E0,-5.147992741E0,5.558971000E0
6.958170000E-1,-1.734254342E0,-8.749925530E-1,-6.059847311E0,6.363568144E0
7.057870000E-1,-7.509666771E-1,-3.943549932E0,-5.652675864E0,6.933129267E0
7.157570000E-1,8.860669602E-2,-4.245085288E0,-2.283186854E0,4.820948295E0
7.257270000E-1,2.979056388E0,-4.046749780E0,6.415477890E0,8.149191205E0
7.356970000E-1,-7.044654521E-1,-5.413738167E-1,6.677464142E0,6.736310901E0
7.456670000E-1,1.903555208E-1,6.275562206E-1,7.942238522E0,7.969266891E0
7.556360000E-1,3.237384767E-1,-1.302343910E0,8.929277760E0,9.029557441E0
7.656060000E-1,8.268641210E-1,1.957490218E0,8.519966233E-1,2.289403956E0
7.755760000E-1,2.538937635E0,1.537397302E0,-6.687295650E0,7.316400610E0
7.855460000E-1,3.667232593E-1,-1.324404870E0,-6.841232958E0,6.977893851E0
7.955160000E-1,-1.030957967E0,-4.498150443E0,-5.968471118E0,7.544460167E0
8.054860000E-1,-9.289848652E-1,-1.440037068E0,-1.899339951E0,2.558165727E0
8.154560000E-1,-6.919486099E-1,-5.524186224E-2,1.977958689E0,2.096226399E0
8.254260000E-1,-1.824410660E0,2.015450158E0,2.408896728E0,3.632257844E0
8.353960000E-1,-2.464422765E0,-3.956986248E-2,5.791816792E0,6.294448911E0
8.453660000E-1,5.732912819E-1,2.233080894E-1,5.290957164E0,5.326608405E0
8.553360000E-1,-8.778006052E-1,1.946247776E0,9.734573257E-1,2.346493868E0
8.653060000E-1,-3.663240407E-1,8.025443816E-1,2.568740308E-1,9.188335295E-1
8.752750000E-1,-5.561716577E-1,4.231390232E-1,2.251050557E0,2.357032489E0
8.852450000E-1,-8.615905885E-1,4.024292963E0,-3.886525546E0,5.660596524E0
8.952150000E-1,1.895914725E-1,2.009795024E0,-4.817630904E0,5.223484325E0
9.051850000E-1,6.711568612E-1,-1.543796202E0,-1.353849109E0,2.160246666E0
9.151550000E-1,1.091649288E0,1.133102685E-1,-3.544429516E0,3.710460616E0
9.251250000E-1,-3.169040318E-1,-1.864185905E-1,-1.569108506E0,1.611608377E0
9.350950000E-1,-7.302543774E-1,-1.204217691E0,1.742879570E-1,1.419079982E0
9.450650000E-1,4.962668968E-1,-3.646449688E0,3.677296382E-1,3.698391711E0
9.550350000E-1,3.121911029E-1,-2.311681798E0,-1.612989521E-1,2.338237236E0
9.650050000E-1,-3.086502483E-1,1.766370758E-1,1.913276204E0,1.946045083E0
9.749750000E-1,1.133326341E0,1.269217680E0,1.601825432E0,2.336918233E0
9.849440000E-1,-1.604731791E-1,1.055135035E0,6.858503294E-1,1.268641895E0
9.949140000E-1,-4.616024828E-1,1.184250035E0,1.143630012E0,1.709799579E0
1.004884000E0,1.607510680E0,1.426664194E0,2.656349140E-1,2.165646143E0
1.014854000E0,6.645996474E-1,1.693141691E0,-1.636028720E0,2.446428305E0
1.024824000E0,-1.254858160E-1,2.046683061E0,-1.240617194E0,2.396620383E0
1.034794000E0,-1.038342562E0,-3.365026415E0,3.982199442E-1,3.544028382E0
1.044764000E0,-2.248615118E-1,-2.952650654E0,-6.128150976E-1,3.023946251E0
1.054734000E0,6.280288218E-1,3.264452552E0,-3.654208651E0,4.940072017E0
1.064704000E0,-2.027481828E-1,3.131627493E0,-1.131270753E0,3.335861373E0
1.074674000E0,1.967812454E0,1.270845544E-1,1.480278776E0,2.465696979E0
1.084644000E0,5.443762889E-1,6.877459967E-1,-5.054859459E-1,1.012351787E0
1.094614000E0,1.680202534E-1,2.371318427E0,-8.920827949E-1,2.539132451E0
1.104583000E0,7.121817302E-1,2.524884437E0,3.477165486E0,4.355792012E0
1.114553000E0,-3.656116671E-1,-1.213595456E-1,2.495270628E0,2.524831784E0
1.124523000E0,-1.313528757E0,-1.233093289E0,2.305248984E0,2.925756266E0
1.134493000E0,8.921517920E-1,5.356862301E-1,6.806381214E-1,1.243447952E0
1.144463000E0,5.101596254E-1,-6.969936606E-1,6.464079362E-1,1.078844857E0
1.154433000E0,-9.254372133E-1,9.503947377E-2,-1.841253126E0,2.062929861E0
1.164403000E0,-1.120178438E0,-2.133717404E0,-9.803400832E-1,2.601656467E0
1.174373000E0,-2.818781137E-1,-4.365755154E0,-2.995932037E-1,4.385091724E0
1.184343000E0,9.726064827E-2,-1.003844428E0,-2.980809383E0,3.146805975E0
1.194313000E0,-1.995829388E-1,3.014905667E0,-3.327124178E0,4.494356998E0
1.204282000E0,9.304445495E-1,-2.041355955E0,1.350867029E0,2.618721621E0
1.214252000E0,-1.026918199E0,-4.290189540E0,-3.714525604E-1,4.426992691E0
1.224222000E0,-2.177732027E0,-2.519466991E0,2.812831156E0,4.359157008E0
1.234192000E0,-7.364183660E-1,2.914848697E-1,5.056055215E0,5.117711381E0
1.244162000E0,-1.322923771E0,1.784842990E0,3.911376212E0,4.498294752E0
1.254132000E0,1.181633260E0,1.166270724E0,1.488381847E0,2.229736550E0
1.264102000E0,2.165563643E-1,-1.815025732E0,-2.897649697E0,3.426016467E0
1.274072000E0,-3.665073143E-1,-2.246316651E0,-2.481455997E0,3.367178340E0
1.284042000E0,5.531372086E-1,-1.899602491E-1,-3.381265302E0,3.431472091E0
1.294012000E0,-1.841887695E0,4.474277723E-1,-4.771037366E0,5.133764646E0
1.303982000E0,-1.970866162E-2,-1.942457027E0,1.305853994E0,2.340679898E0
1.313952000E0,1.768117029E0,-5.687007791E-1,4.043101117E0,4.449306131E0
1.323921000E0,1.736601706E0,1.967086084E0,5.980871893E0,6.531159295E0
1.333891000E0,7.013305405E-1,3.299136188E0,2.097817254E0,3.972027360E0
1.343861000E0,-5.801387734E-1,2.778129101E-2,6.891697937E-1,9.012701044E-1
1.353831000E0,1.651527788E0,3.376036137E-2,2.252452719E-1,1.667159030E0
1.363801000E0,2.235323886E0,1.993848497E0,-3.201604924E0,4.384333335E0
1.373771000E0,-9.111057609E-1,1.156433953E0,-3.047493369E0,3.384474705E0
1.383741000E0,-2.814319857E0,-8.913744047E-1,-3.064767798E0,4.255319758E0
1.393711000E0,2.971133995E-1,-2.929862008E0,-1.767310991E0,3.434494999E0
1.403681000E0,-4.565970470E-1,6.788316241E-1,-1.297021775E0,1.533479286E0
1.413651000E0,8.064662553E-2,-2.046729254E0,2.138040251E0,2.960881732E0
1.423620000E0,2.212973415E-1,-1.973619470E0,7.298320915E0,7.563705078E0
1.433590000E0,1.678047689E0,4.142171954E0,1.975081859E0,4.886141718E0
1.443560000E0,1.178848450E0,-1.186644177E0,-1.169489908E0,2.040959264E0
1.453530000E0,-8.252290933E-1,-1.291118426E0,-2.897956091E-1,1.559477906E0
1.463500000E0,-2.692988378E0,3.809369781E0,-3.191218514E0,5.652199584E0
1.473470000E0,-2.004043556E0,3.737548139E0,-6.382048189E0,7.662636345E0
1.483440000E0,6.291511948E-1,8.895986053E-1,-4.815756871E0,4.937482268E0
1.493410000E0,1.557315403E0,2.468171123E-1,-2.909539425E-1,1.603372742E0
1.503380000E0,9.936818945E-1,7.758807859E-1,4.620839937E0,4.789734484E0
1.513350000E0,1.320092403E0,-2.519219069E0,5.749752508E0,6.414730125E0
1.523320000E0,-6.274343792E-1,2.329384536E-2,3.480258079E0,3.536440696E0
1.533289000E0,8.734437717E-1,2.965301690E0,-4.616454526E0,5.555859116E0
1.543259000E0,3.710551252E0,1.828357969E0,-4.329887164E0,5.988238999E0
1.553229000E0,2.292586107E0,-1.860155127E0,4.819783849E-1,2.991392873E0
1.563199000E0,-6.912863396E-2,-1.284871261E0,4.138951600E-2,1.287395051E0
1.573169000E0,-3.151523522E0,1.181871387E0,9.934308296E-1,3.509391015E0
1.583139000E0,-2.929678698E0,9.187493142E-1,4.793500614E-1,3.107554353E0
1.593109000E0,-1.974049825E0,-7.907441157E-1,2.268758265E0,3.109567982E0
1.603079000E0,-1.650549549E0,-1.528270675E0,4.007206230E0,4.595391913E0
1.613049000E0,-5.592709744E-1,6.118894833E-1,-1.488689411E-1,8.422319896E-1
1.623019625E0,1.592438458E0,2.914565107E-1,-8.091909117E-1,1.809861064E0
1.632989625E0,-1.223013128E0,-4.609754786E-1,-5.073781049E-1,1.402031399E0
1.642958625E0,-2.292010595E-1,4.544631422E-2,-2.084310186E0,2.097366788E0
1.652928625E0,-2.197383642E0,1.191589460E-1,-5.751841718E0,6.158439484E0
1.662898625E0,3.964819690E-1,-3.887011157E0,-1.451676536E0,4.168143286E0
1.672868625E0,1.667629193E-1,-2.487211703E0,2.528713778E0,3.550834451E0
1.682838625E0,-3.166764874E0,-1.858211513E0,4.517687452E0,5.821584810E0
1.692808625E0,-1.088164129E0,1.218632540E0,6.293698515E0,6.502292475E0
1.702778625E0,-3.430923658E0,3.159234245E0,1.433848960E0,4.879336123E0
1.712748625E0,-2.193199228E0,-7.587925905E-1,-1.608750874E0,2.823821600E0
1.722718625E0,-3.927502394E-1,-4.380254788E0,-2.981737336E0,5.313345678E0
1.732688625E0,-2.673541124E0,-1.902068554E0,2.797892690E-3,3.281111817E0
1.742657625E0,-1.976698468E0,3.421903159E0,1.493249069E0,4.224517824E0
1.752627625E0,-2.839579244E0,3.820854005E0,1.094223379E0,4.884614664E0
1.762597625E0,-2.752149922E0,-6.388001239E-1,7.778328788E0,8.275553971E0
1.772567625E0,1.248095307E-1,5.573805696E-1,1.348723440E0,1.464686122E0
1.782537625E0,4.299696674E-1,1.129293517E0,-4.563941267E0,4.721200869E0
1.792507625E0,1.683630610E0,-2.445974800E0,-1.949751720E0,3.552314249E0
1.802477625E0,2.241673012E-1,-2.219304561E0,-5.964827133E0,6.368259294E0
1.812447625E0,-3.133024393E0,9.121188641E-2,-4.007070574E0,5.087315210E0
1.822417625E0,-3.520743030E-1,9.350343946E-1,-1.272514924E0,1.617881289E0
1.832387625E0,3.308479966E-1,-2.930492923E-1,5.837246150E-1,7.321698646E-1
1.842356625E0,-1.625413831E0,-6.050573042E-1,6.802042580E-1,1.862992833E0
1.852326625E0,1.518080586E0,-2.014038348E-1,-4.133700800E-1,1.586192609E0
1.862296625E0,2.695349484E0,-2.066703635E0,1.151108601E0,3.586254839E0
1.872266625E0,1.377729577E0,4.340171832E-1,2.739484853E-1,1.470223614E0
1.882236625E0,1.259022328E0,-1.539371029E0,2.753960220E0,3.396924680E0
1.892206625E0,1.335182604E0,-7.552711049E-1,-8.203444755E-1,1.739572386E0
1.902176625E0,1.509120021E0,2.138356585E0,-5.452201737E0,6.047852172E0
1.912146625E0,3.231277497E0,1.210888195E0,-1.248563560E0,3.669647864E0
1.922116625E0,2.949814462E0,-9.750954232E-1,1.402401465E0,3.408657553E0
1.932086625E0,1.439981373E-1,9.409871525E-1,2.196872011E0,2.394251223E0
1.942056625E0,-7.445069656E-2,1.709842801E0,2.250288080E0,2.827172042E0
1.952025625E0,8.776593219E-1,2.053328129E0,2.972490549E-2,2.233232156E0
1.961995625E0,-2.163634975E0,-3.020145357E-2,-1.401941873E0,2.578307478E0
1.971965625E0,-2.059006908E-1,-2.496375167E-1,5.861769372E-1,6.695650723E-1
1.981935625E0,1.058544838E0,-2.203197236E0,7.401738864E-1,2.553909282E0
1.991905625E0,3.123170958E0,2.956374161E0,-2.119148481E0,4.794281520E0
2.001875625E0,-1.543332006E-1,2.144654621E0,-1.113791086E0,2.421547597E0
2.011845625E0,1.359296522E0,-9.622350571E-1,1.432929193E0,2.197013748E0
2.021815625E0,-1.548507742E0,-8.848322475E-1,3.661524103E0,4.072783212E0
2.031785625E0,-1.780790431E0,-3.379160597E0,3.458881828E0,5.153038365E0
2.041755625E0,1.573186062E-2,-2.877489082E0,3.194247957E0,4.299233760E0
2.051724625E0,6.806054866E-2,-5.948524511E-1,1.153420590E0,1.299561747E0
2.061694625E0,2.017515614E-1,6.009443727E-1,-8.294620389E-1,1.043956467E0
2.071664625E0,6.565113401E-1,-7.939653468E-1,-2.984158083E0,3.156990272E0
2.081634625E0,9.474149966E-1,-1.445505092E0,-3.753331820E0,4.132139869E0
2.091604625E0,1.170944403E-1,-6.814602399E-1,8.198112094E-1,1.072468921E0
2.101574625E0,-1.030731242E0,3.397255683E-1,2.460463908E0,2.689182589E0
2.111544625E0,-1.393911015E0,6.458618063E-1,-1.076646649E0,1.875977984E0
2.121514625E0,-6.639020745E-1,4.461706209E-1,5.446628755E-1,9.677250826E-1
2.131484625E0,-7.910512407E-1,1.740867250E0,-2.659927636E0,3.275911458E0
2.141454625E0,-3.337681692E-1,3.683225459E-1,-1.395311131E0,1.481200810E0
2.151423625E0,-7.733442637E-1,-2.239013186E0,1.732465678E-1,2.375132790E0
2.161393625E0,3.975880795E-1,-1.741988454E0,-6.081396639E-2,1.787819452E0
2.171363625E0,1.372673635E0,8.429863563E-1,-1.328738827E0,2.088158465E0
2.181333625E0,5.361038309E-1,-5.696445197E-1,8.695569813E-1,1.169628804E0
2.191303625E0,2.252085368E0,4.252990724E0,-8.490157127E-3,4.812472408E0
2.201273625E0,-1.767992264E-1,5.428631026E-1,-3.165594846E-1,6.528156109E-1
2.211243625E0,3.167708614E-1,-5.012147303E0,3.767931733E0,6.278477038E0
2.221213625E0,1.639197911E0,-1.339748549E0,-2.616685138E0,3.365848641E0
2.231183625E0,3.587054841E-1,-3.254373121E-1,-1.066360812E0,1.171197869E0
2.241153625E0,6.496022701E-1,4.361125329E-1,-2.176224908E0,2.312602884E0
2.251122625E0,7.138895557E-1,-2.471121335E0,-2.981593494E0,3.937763162E0
2.261092625E0,-5.258585589E-1,-3.216227641E0,6.784524322E-3,3.258940547E0
2.271062625E0,-1.183795706E0,-3.420755643E0,5.102256989E0,6.255874665E0
2.281032625E0,-2.606937245E0,1.210009359E0,4.511127461E0,5.348879828E0
2.291002625E0,-1.034121823E0,1.073823028E0,3.154299780E0,3.488855248E0
2.300972625E0,-1.435948403E0,-9.607343692E-1,5.009197968E0,5.298775578E0
2.310942625E0,6.990949307E-2,-3.719606835E-1,2.811229604E0,2.836591964E0
2.320912625E0,8.383229095E-1,2.094986325E0,-3.704743212E-1,2.286701604E0
2.330882625E0,3.701519569E-1,4.109018533E0,-1.955282017E0,4.565541977E0
2.340852625E0,1.130713074E0,3.956650326E0,-7.292536849E0,8.373451353E0
2.350821625E0,-6.320324104E-1,3.490237522E0,-8.177227010E0,8.913375595E0
2.360791625E0,-7.214043242E-1,-4.267052400E-1,-5.404715914E-1,9.973019111E-1
2.370761625E0,5.017572496E-1,-5.067875361E-1,2.242410711E0,2.353083029E0
2.380731625E0,-1.284575245E0,1.572870313E0,5.242380250E0,5.621975211E0
2.390701625E0,-2.048108612E-1,2.546416224E0,-2.173438709E0,3.354104783E0
2.400671625E0,-9.169251291E-1,6.909841847E-1,-1.041935238E0,1.550432158E0
2.410641625E0,-1.559695805E-1,1.895159776E0,-2.920000094E-1,1.923855788E0
2.420611625E0,5.481276066E-1,1.224360180E0,3.885007024E-1,1.396579578E0
2.430581625E0,1.577900672E0,1.582431972E-2,-8.679127443E-1,1.800914621E0
2.440551625E0,-7.256132231E-1,-1.162780228E0,-3.157616320E0,3.442254092E0
2.450520625E0,-1.473314742E0,-2.723876587E0,-2.836006595E0,4.199177705E0
2.460490625E0,3.513691654E-1,3.536796561E-1,-4.688898604E0,4.715328165E0
2.470460625E0,-1.413558537E0,-2.644558522E0,3.810689498E0,4.849040314E0
2.480430625E0,-1.274629789E-1,-2.614033718E0,7.099125574E0,7.566174925E0
2.490400625E0,-2.225024892E0,-5.882942140E-2,4.977706034E0,5.452683195E0
2.500370625E0,-4.068655277E-1,1.470366868E0,1.286492109E0,1.995640306E0
2.510340625E0,7.581715431E-1,2.554087478E0,-4.147909534E0,4.929841827E0
2.520310625E0,-5.440269543E-1,-1.433959180E0,3.860659218E-1,1.581534430E0
2.530280625E0,2.030095168E-1,1.148290828E-1,1.682285458E0,1.698376562E0
2.540249625E0,-9.697200778E-1,1.137412668E0,1.991461079E0,2.489976272E0
2.550219625E0,6.571641818E-1,4.450125799E-1,7.141713184E-1,1.067680491E0
2.560189625E0,-2.561061452E-1,-8.070505384E-1,-1.509278626E0,1.730561441E0
2.570159625E0,1.120149787E0,-1.353837707E0,-1.698431375E0,2.443825120E0
2.580129625E0,2.433387499E-1,6.098809648E-1,-5.066077927E0,5.108455158E0
2.590099625E0,1.664353291E-1,-6.109042275E0,-1.600960629E0,6.317529040E0
2.600069625E0,2.666882169E-1,-4.377539048E0,-4.658581960E-1,4.410328172E0
2.610039625E0,-2.613009578E-1,8.225196397E-1,3.247518430E0,3.360237001E0
2.620009250E0,-2.949741591E-1,1.835458243E0,1.126527608E1,1.141763381E1
2.629979250E0,1.101799835E0,3.225867945E0,5.126458030E0,6.156359217E0
2.639948250E0,-2.687836104E0,-3.891395107E-1,1.696850288E-1,2.721155176E0
2.649918250E0,9.529471204E-1,-1.767817944E-2,-3.475098495E0,3.603433125E0
2.659888250E0,1.130683107E0,2.163069550E0,-2.989834560E0,3.859588691E0
2.669858250E0,2.106079955E0,3.346855608E-1,-4.002921975E0,4.535523292E0
2.679828250E0,2.005272495E0,-3.438016916E0,-5.868655053E0,7.090993599E0
2.689798250E0,-4.660074462E-1,-5.182808817E0,-9.019831835E0,1.041326253E1
2.699768250E0,-3.719915275E-1,2.687146425E-2,-4.995026656E0,5.008931130E0
2.709738250E0,-9.554088713E-1,-2.286729097E-1,1.296567446E-1,9.909128531E-1
2.719708250E0,1.623865781E0,-1.323864003E0,3.364907132E0,3.963856200E0
2.729677250E0,2.060208548E0,-1.044914979E0,6.204664716E0,6.620737936E0
2.739647250E0,7.699081475E-1,-1.781394594E0,1.385105401E1,1.398634414E1
2.749617250E0,9.253956250E-1,3.348917336E0,2.310568196E0,4.172568726E0
2.759587250E0,1.183113701E0,1.415664119E0,-3.686747822E0,4.122617182E0
2.769557250E0,3.821939541E0,-2.518876715E0,-1.220247248E0,4.737189579E0
2.779527250E0,1.108308883E0,3.465883868E0,-2.428652131E0,4.374820081E0
2.789497250E0,-3.448776962E-1,2.090522560E0,1.255499527E0,2.462824448E0
2.799467250E0,-1.319536625E0,1.818297542E0,1.475244323E0,2.687699512E0
2.809437250E0,1.349214314E0,-1.063335170E0,2.054505174E0,2.678068792E0
2.819407250E0,1.823362692E0,1.194154049E0,-2.178102449E0,3.081361010E0
2.829376250E0,-2.306648368E-1,4.097851521E-1,-3.657696515E-1,5.957495915E-1
2.839346250E0,1.647713211E0,1.466917303E-1,-1.878837858E0,2.503299620E0
2.849316250E0,-1.094386078E0,1.405622111E0,3.750784189E-1,1.820477472E0
2.859286250E0,-1.588118389E0,2.393546033E0,2.657415673E0,3.913188046E0
2.869256250E0,1.895943595E-1,2.114193551E0,2.674241620E0,3.414283034E0
2.879226250E0,-8.569900724E-1,-1.178839898E0,2.889403954E0,3.236162959E0
2.889196250E0,5.664094014E-1,-1.353012958E0,3.020000930E0,3.357360465E0
2.899166250E0,-2.719269566E-2,3.394603971E-1,2.436661062E0,2.460343459E0
2.909136250E0,3.872558594E0,1.314853151E0,-3.845495049E0,5.613678032E0
2.919105250E0,2.314290095E0,-1.102136416E0,-3.535223660E0,4.366743597E0
2.929075250E0,3.907696413E-1,-4.117077751E0,-4.829807730E0,6.358464660E0
2.939045250E0,3.348462496E-1,-2.076980116E0,-8.364050227E-1,2.263965940E0
2.949015250E0,-2.849634993E0,8.135605359E-1,3.211565655E-1,2.980845833E0
2.958985250E0,-2.361334891E0,1.111546048E0,-6.333481801E-1,2.685622275E0
2.968955250E0,-3.264162457E-1,-5.819613871E-1,-1.530715104E0,1.669824946E0
2.978925250E0,2.000942778E-1,1.035708830E0,-3.900164176E0,4.040298393E0
2.988895250E0,6.548820135E-1,1.139562104E0,-6.616572992E0,6.745851347E0
2.998865250E0,1.428394750E-1,1.272443881E0,-6.273585847E0,6.402920890E0
3.008835250E0,4.213861010E-1,-3.377918648E0,-4.251399404E0,5.446310451E0
3.018804250E0,1.641531242E-1,-9.223741786E0,7.832782738E0,1.210193556E1
3.028774250E0,3.395455033E0,-5.300092853E0,1.257001910E1,1.405793297E1
3.038744250E0,1.618236520E0,4.886243886E0,4.584210055E0,6.892680943E0
3.048714250E0,-3.323459144E0,3.617786345E0,-2.739434566E0,5.624789815E0
3.058684250E0,-2.660636319E0,-2.484852644E0,-3.336281503E0,4.938041368E0
3.068654250E0,-3.280210213E0,-4.993427442E0,-4.503470532E0,7.481667160E0
3.078624250E0,1.943140274E0,-4.071843690E0,-5.317908735E0,6.973941387E0
3.088594250E0,-9.924771488E-3,-1.266213672E0,3.017040485E-1,1.301699235E0
3.098564250E0,-1.288271270E0,-1.099207253E0,5.612351711E0,5.862285491E0
3.108533250E0,-1.552017972E0,-1.220963240E0,1.308961789E1,1.323773423E1
3.118503250E0,-8.552064523E-1,2.676065952E-1,1.587498467E1,1.590025565E1
3.128473250E0,3.000938715E0,4.631145655E0,6.588554889E-1,5.557628433E0
3.138443250E0,7.659799880E-1,-4.488024527E-1,1.709176803E0,1.925989182E0
3.148413250E0,-1.714160385E0,-7.660030845E-1,7.849641430E-1,2.035012348E0
3.158383250E0,-1.802609608E0,2.019333002E-1,-4.276519042E0,4.645298007E0
3.168353250E0,1.910347773E0,2.435598623E0,-1.631007131E0,3.498821734E0
3.178323250E0,-2.797928065E0,2.453208098E-1,-9.427869254E-1,2.962672939E0
3.188293250E0,-2.149599904E0,-6.793426707E-1,1.784490110E0,2.875185414E0
3.198262250E0,1.533129127E0,4.899503325E0,1.512610955E0,5.351972501E0
3.208232250E0,2.951688202E0,3.762778290E0,-2.887090210E0,5.586255775E0
3.218202250E0,3.664293344E0,-1.174557690E0,-3.564720524E0,5.245365945E0
3.228172250E0,-2.184729683E0,1.581625641E0,-2.470484281E0,3.657577892E0
3.238142250E0,1.274175387E0,1.571087789E0,-3.224737678E0,3.806674776E0
3.248112250E0,7.421359196E-1,-4.184155547E0,-3.993965210E0,5.831782014E0
3.258082250E0,-2.000597061E0,-2.855200373E0,-2.867224880E0,4.513926925E0
3.268052250E0,-2.386084255E-1,3.487702169E0,-9.606987011E-1,3.625457543E0
3.278022250E0,7.390010080E-1,8.321899989E0,8.984200072E-1,8.402815030E0
3.287992250E0,1.844802386E-1,2.389821941E0,8.389047074E-1,2.539496599E0
3.297961250E0,2.143749326E0,-1.391768888E-1,-2.641334075E0,3.404655207E0
3.307931250E0,2.017483235E0,-2.660460902E0,-2.590491951E-2,3.339006122E0
3.317901250E0,-5.220755200E-1,-3.117188964E0,1.779945070E0,3.627345356E0
3.327871250E0,-1.517705049E0,-1.488312265E-1,4.128652899E0,4.401290050E0
3.337841250E0,-3.522094322E0,3.873035727E0,-3.758601331E0,6.444582075E0
3.347811250E0,3.808393150E-1,6.583284209E0,-9.975960352E0,1.195844699E1
3.357781250E0,6.529780870E-1,8.780216446E0,-1.021851221E1,1.348838660E1
3.367751250E0,-5.335923421E-1,-1.317921185E0,-3.131440675E0,3.439121652E0
3.377721250E0,-2.580332998E0,-9.913074718E0,1.231057815E1,1.601491502E1
3.387690250E0,-1.881700509E0,-3.933889454E0,1.430360862E1,1.495357825E1
3.397660250E0,-1.173067600E0,9.193390059E-1,5.685423780E0,5.877526296E0
3.407630250E0,3.516028713E-1,2.996108623E0,-6.938648740E0,7.566051665E0
3.417600250E0,3.299970294E0,-1.962362118E0,-6.351586534E0,7.421813830E0
3.427570250E0,2.587943149E0,-7.110545186E0,1.770058597E0,7.771126689E0
3.437540250E0,1.811814734E0,-4.116186635E0,2.983274569E0,5.396813152E0
3.447510250E0,-1.560628290E0,-3.111717724E0,5.506256906E0,6.514385080E0
3.457480250E0,-2.014961039E0,-2.135941685E0,5.130737023E0,5.911579930E0
3.467450250E0,3.562350355E-1,-2.668933810E0,5.838199246E0,6.429205357E0
3.477419250E0,-1.079737414E0,-4.145473876E0,7.562855968E0,8.691810912E0
3.487389250E0,1.570521340E0,1.586179453E0,-3.395472282E0,4.063463369E0
3.497359250E0,3.716723573E0,2.611504797E0,-7.963030052E0,9.167542693E0
3.507329250E0,2.043816171E0,5.686496159E-1,-5.141081917E0,5.561588820E0
3.517299250E0,-4.843237761E-1,-2.839600002E0,2.233184389E0,3.644860794E0
3.527269250E0,-3.763838975E0,7.922997674E-1,4.744736005E0,6.107924566E0
3.537239250E0,-3.392868517E0,4.313919588E0,-4.283564937E-1,5.504993031E0
3.547209250E0,-3.597144943E-1,2.222982460E0,-5.587587583E0,6.024299174E0
3.557179250E0,4.590705288E-1,-1.572355465E0,-5.948942587E0,6.170329437E0
3.567148250E0,1.636660146E-1,-4.313176991E0,1.162790753E0,4.470163829E0
3.577118250E0,5.266908735E-2,-4.639707148E-1,5.247818161E0,5.268551822E0
3.587088250E0,-1.342358600E0,1.631259146E-1,1.134395738E1,1.142426828E1
3.597058250E0,-1.752885763E0,2.721844388E0,6.249728038E0,7.038476108E0
3.607028250E0,6.199861228E-1,-8.438423887E-1,-3.627686850E0,3.775786627E0
3.616998000E0,2.699758285E0,2.388456032E-1,-9.912222193E0,1.027608344E1
3.626968000E0,3.073125808E0,5.220294147E0,-1.022315958E1,1.188312101E1
3.636938000E0,6.264891037E-1,2.631844044E0,-8.385156922E0,8.810785906E0
3.646908000E0,-3.347413140E0,-4.193730655E0,1.235445916E0,5.506258089E0
3.656877000E0,5.607340939E-2,-5.110295742E0,1.199423442E1,1.303763499E1
3.666847000E0,2.010874712E0,-3.147766685E-1,9.207635046E0,9.429912227E0
3.676817000E0,1.051846853E0,7.861279728E0,-3.659691585E0,8.734955253E0
3.686787000E0,1.115693478E0,4.859338216E0,-9.359396020E0,1.060453835E1
3.696757000E0,1.603282412E0,1.458432993E-1,-4.057923224E0,4.365607134E0
3.706727000E0,6.831845838E-1,3.312155599E0,-1.176065102E0,3.580536972E0
3.716697000E0,5.424458672E-1,4.812895828E-1,-1.369440710E0,1.549598348E0
3.726667000E0,-4.511763491E-1,-4.106514171E0,3.598136192E0,5.478467193E0
3.736637000E0,1.711557497E0,-3.184244833E0,6.319436204E0,7.280392720E0
3.746607000E0,4.703874127E-1,1.138440316E0,7.013145776E0,7.120500287E0
3.756576000E0,-1.003388053E0,9.504190037E-1,6.955520881E0,7.091498755E0
3.766546000E0,-2.971940545E-1,1.128417896E0,-8.510172147E-1,1.444258133E0
3.776516000E0,-2.666573289E0,3.047227028E0,-4.997596507E0,6.432120686E0
3.786486000E0,-1.859406391E0,9.440051928E-1,-8.240976278E0,8.500719261E0
3.796456000E0,1.100519076E-3,-1.960271154E0,-8.830919992E0,9.045872656E0
3.806426000E0,-8.021297409E-1,-4.498383454E0,-4.771726753E0,6.606681620E0
3.816396000E0,-2.860291836E0,-5.090717509E0,7.085146050E0,9.181283609E0
3.826366000E0,2.618470585E0,-1.701577762E0,1.154013615E1,1.195518705E1
3.836335000E0,9.380718038E-1,-4.203744596E0,1.115915146E1,1.196152618E1
3.846305000E0,7.328354846E-1,-3.084629913E0,2.124544292E0,3.816500753E0
3.856275000E0,-6.238261355E-1,2.881709602E-1,1.997245145E-1,7.156056396E-1
3.866245000E0,-5.405915324E-1,-4.054944652E-1,-2.228137658E0,2.328360451E0
3.876215000E0,-2.825724340E-1,-1.504793812E0,-4.867564371E0,5.102688949E0
3.886185000E0,-6.549286450E-1,-2.123832978E0,-4.563872854E0,5.076271612E0
3.896155000E0,2.104636277E0,5.403002679E-2,-6.836472740E0,7.153305014E0
3.906125000E0,-1.048381647E0,-1.770307981E0,-5.763728523E0,6.119939616E0
3.916095000E0,8.315030095E-1,-1.776006385E0,1.447430872E0,2.437345290E0
3.926065000E0,2.786651710E0,-2.497043796E0,4.558806242E0,5.897742774E0
3.936034000E0,2.002928785E0,-3.545373257E0,7.614082255E0,8.634561010E0
3.946004000E0,3.813698767E0,1.943339664E-1,4.235074562E0,5.702448643E0
3.955974000E0,2.230897397E0,-4.602945703E-1,-5.444471133E-1,2.342049732E0
3.965944000E0,1.892926578E0,1.118375011E0,-6.461103129E-1,2.291591637E0
3.975914000E0,-5.572159705E-1,4.681574089E0,-2.801918498E0,5.484375339E0
3.985884000E0,-5.582391236E-1,3.416244516E0,-5.596066046E0,6.580145340E0
3.995854000E0,-9.136471801E-1,2.277388463E0,-7.142632366E0,7.552380188E0
4.005824000E0,2.541589639E0,-1.654272618E0,-8.734003562E-1,3.155807974E0
4.015794000E0,7.837816168E-1,-5.729770818E0,3.770151921E0,6.903523213E0
4.025763000E0,-5.634714314E-1,-5.421986250E0,6.727575365E0,8.658851265E0
4.035733000E0,-1.036496669E0,-4.795260626E-1,3.915932947E0,4.079068697E0
4.045703000E0,-5.707019521E-1,9.537495777E-1,7.455828533E0,7.538217169E0
4.055673000E0,2.022012489E0,2.377873156E0,5.452708690E0,6.282901186E0
4.065643000E0,-1.377173360E0,5.905106011E0,-2.645570383E0,6.615582069E0
4.075613000E0,-1.103061665E0,6.771672142E0,-6.751264774E0,9.625583862E0
4.085583000E0,-2.195591763E0,4.017869797E0,-1.088017378E1,1.180432473E1
4.095553000E0,-2.058735926E0,-6.459249562E-1,-9.173629394E0,9.423963546E0
4.105522000E0,-4.323699494E-1,-2.519898224E0,-3.914455941E0,4.675446090E0
4.115492000E0,4.472815919E-1,-4.775768933E0,3.218467124E0,5.776379519E0
4.125462000E0,1.147885543E0,-3.404306840E0,6.385588093E0,7.326846633E0
4.135432000E0,2.605016142E0,-2.494866586E-1,4.573741785E0,5.269484472E0
4.145402000E0,2.222344967E0,2.634661233E0,1.487125865E0,3.753904674E0
4.155372000E0,-7.383953096E-1,-1.905013212E0,-7.854155481E-2,2.044620196E0
4.165342000E0,-1.243846026E-1,4.597285599E-1,-2.336549714E0,2.384593559E0
4.175312000E0,-2.571205494E0,1.316814015E0,-1.874099275E0,3.443449569E0
4.185282000E0,-1.738744857E-1,1.079904425E0,-2.547609056E0,2.772496673E0
4.195252000E0,-1.555687977E0,-1.242562855E0,-2.408107354E0,3.124597343E0
4.205221000E0,-1.160567788E0,-1.627389459E0,-1.084432801E0,2.274051130E0
4.215191000E0,1.265483648E0,6.120330325E-1,-2.126943405E0,2.549494370E0
4.225161000E0,1.141963556E0,-2.092830749E0,8.767636746E-1,2.540223582E0
4.235131000E0,5.033390676E-1,-1.838908392E0,3.726365047E0,4.185777198E0
4.245101000E0,1.015965414E-1,-6.697178614E-1,3.231321058E0,3.301557156E0
4.255071000E0,-3.124766663E-1,1.551127734E0,-9.233694917E-1,1.832007132E0
4.265041000E0,-1.696819590E-1,3.064730084E0,-1.239353610E0,3.310190300E0
4.275011000E0,7.925819687E-1,3.399339923E0,-6.303086804E0,7.205039996E0
4.284980000E0,-1.194879030E0,-2.079769238E0,1.217472160E0,2.689872570E0
4.294950000E0,-1.701457455E0,-4.955065030E-1,2.850393670E0,3.356371290E0
4.304920000E0,-3.300299784E0,-1.050887032E0,7.341752864E0,8.117738437E0
4.314890000E0,-2.588197795E0,-2.446476491E0,1.009048860E1,1.070055957E1
4.324860000E0,-1.409178241E0,-4.384545767E0,4.146378733E0,6.196973575E0
4.334830000E0,1.927841765E0,-5.111413729E0,-1.204089053E0,5.594010603E0
4.344800000E0,-1.257796021E-1,-4.110563368E-1,7.952780467E-1,9.040215661E-1
4.354770000E0,8.159727316E-1,4.796183317E0,-1.616493757E0,5.126620522E0
4.364740000E0,-1.089598377E0,2.322806418E0,-5.170949494E0,5.772466800E0
4.374709000E0,-1.071680243E-1,1.186598569E0,-8.253333784E0,8.338885998E0
4.384679000E0,-7.566606957E-1,2.206478986E-1,-7.866397796E0,7.905784919E0
4.394649000E0,-4.298601783E-1,-5.839590883E-1,-1.448628967E0,1.619973417E0
4.404619000E0,8.071237747E-1,-1.765711777E0,6.120557781E0,6.421091373E0
4.414589000E0,2.145938085E0,-2.995767145E0,9.471632740E0,1.016324249E1
4.424559000E0,9.278490436E-1,-1.845237126E0,5.437271456E0,5.816332589E0
4.434529000E0,1.307232475E0,3.080704384E0,-1.984706376E0,3.890842537E0
4.444499000E0,-5.936448914E-1,2.289122655E0,-2.932935305E0,3.767572997E0
4.454469000E0,-2.316352919E-1,6.036080718E-2,-2.769491594E0,2.779816905E0
4.464438000E0,3.380676268E-1,8.480816200E-1,-4.578489139E0,4.668628808E0
4.474408000E0,1.409333923E0,1.822531218E0,-1.885280905E0,2.976932354E0
4.484378000E0,-3.928926922E-2,2.485918884E0,1.894090905E0,3.125526628E0
4.494348000E0,-4.677583949E-1,-7.845171234E-1,7.159709160E0,7.217735122E0
4.504318000E0,2.272490543E0,-9.854286227E-1,3.983030332E0,4.690395875E0
4.514288000E0,1.442881008E0,1.403580263E-1,-9.563243991E-1,1.736710204E0
4.524258000E0,8.294249091E-1,2.016571654E0,-3.928812025E0,4.493336271E0
4.534228000E0,1.637088089E0,4.159446090E0,-3.508514163E0,5.682492484E0
4.544198000E0,7.431867374E-1,1.360258827E0,-3.920531198E0,4.215826784E0
4.554167000E0,1.472574484E-1,-3.028135577E-1,2.652770060E0,2.674054935E0
4.564137000E0,-1.126256327E-1,4.649281964E-1,8.530416961E0,8.543819772E0
4.574107000E0,-1.250489194E-2,1.082258222E0,5.902866527E0,6.001272571E0
4.584077000E0,1.021916491E0,1.471221731E0,-2.692270340E0,3.233748024E0
4.594047000E0,-2.880175878E0,-8.308817428E-1,-4.399176085E0,5.323394386E0
4.604017000E0,-3.402496615E-1,-2.060157969E0,-4.548121040E0,5.004540507E0
4.613987000E0,-6.168116695E-1,-1.100550359E0,-6.764247932E0,6.880895132E0
4.623957000E0,-1.991735314E0,-1.820540826E0,-9.541628589E0,9.915848657E0
4.633926000E0,-8.058088090E-1,-3.104824734E0,-5.230864159E0,6.136057717E0
4.643896000E0,-1.019086512E0,-3.936398495E0,-7.427571863E-1,4.133456019E0
4.653866000E0,-1.144877735E0,-9.631799671E-1,6.273433819E0,6.449374587E0
4.663836000E0,6.030070877E-1,1.125769984E0,9.499947297E0,9.585404230E0
4.673806000E0,2.747789653E0,-1.754273454E0,7.213266732E0,7.915746349E0
4.683776000E0,1.963541209E0,-2.738168060E0,2.482804365E0,4.185376436E0
4.693746000E0,6.212673940E-2,-3.806321043E-1,2.073343148E0,2.108907855E0
4.703716000E0,-4.778326359E-1,-2.584267589E-1,-2.583065402E0,2.639571042E0
4.713686000E0,-9.149036005E-1,-6.089802012E-1,-4.272030720E0,4.411139530E0
4.723655000E0,-1.788493114E0,-1.610771087E0,-5.000292073E0,5.549433479E0
4.733625000E0,-2.748487810E0,-1.426008428E0,-2.456673743E0,3.952585377E0
4.743595000E0,-4.578382281E-1,-1.445708575E0,6.127667411E0,6.312526992E0
4.753565000E0,-2.545645999E-1,-2.927094813E0,8.434730785E0,8.931817878E0
4.763535000E0,3.679461314E-1,8.121896562E-1,2.508098835E-1,9.262515808E-1
4.773505000E0,-2.073057219E-1,4.591505626E-1,-1.823594534E0,1.891901670E0
4.783475000E0,2.011146900E-1,-3.311425281E0,-2.798794330E0,4.340418668E0
4.793445000E0,-7.952184051E-1,-1.602720641E0,-2.733327734E-1,1.809916178E0
4.803415000E0,-2.715684492E-1,3.329057268E0,-7.014337438E-1,3.412972460E0
4.813384000E0,-4.450760952E-1,1.012130518E0,3.450812670E0,3.623618219E0
4.823354000E0,-2.070159193E0,-8.131298885E-1,6.585372834E0,6.950818273E0
4.833324000E0,2.344102854E0,-2.059904785E0,4.168849583E0,5.207430533E0
4.843294000E0,2.667062409E0,-9.816884512E-1,-1.013924736E-1,2.843802831E0
4.853264000E0,6.476333664E-1,1.373459501E0,-3.770506262E0,4.064792424E0
4.863234000E0,-5.107207388E-1,8.334413615E-1,-3.964939047E0,4.083650550E0
4.873204000E0,-1.422036269E-1,-1.211048701E0,-3.218407483E0,3.441657675E0
4.883174000E0,-8.501177667E-1,-1.487603290E0,-1.278390791E0,2.137743386E0
4.893143000E0,2.408409655E-2,2.335223857E0,1.192989868E-1,2.338393200E0
4.903113000E0,6.042308368E-1,5.392455472E0,-7.967299104E-1,5.484382323E0
4.913083000E0,5.917751346E-1,5.869319297E0,1.473758546E0,6.080384122E0
4.923053000E0,-3.947078507E-1,3.528335932E0,-3.032778266E0,4.669335365E0
4.933023000E0,3.965423781E-1,4.382789263E-1,-3.979708529E0,4.023358578E0
4.942993000E0,1.347416587E0,1.546705484E-1,-2.208085216E0,2.591349988E0
4.952963000E0,1.608046577E0,9.117841110E-1,-7.823954612E-1,2.007313308E0
4.962933000E0,-4.559442784E-1,9.345362118E-1,-2.494718651E0,2.702751240E0
4.972903000E0,-1.169427635E0,7.588305974E-1,-6.132068610E-1,1.522960119E0
4.982872000E0,-1.180707791E0,2.357290957E0,-5.063723838E-1,2.684642348E0
4.992842000E0,-1.547125314E0,2.114362535E0,6.160562092E0,6.694523953E0
5.002812000E0,-4.546308476E-1,2.841921054E0,5.002985301E0,5.771747258E0
5.012782000E0,1.030435592E0,-1.785543486E0,4.190640986E0,4.670271397E0
5.022752000E0,1.697838321E0,-2.324619640E0,-8.980808687E-1,3.015470225E0
5.032722000E0,2.319039642E0,2.050182327E0,-3.065999807E0,4.356781753E0
5.042692000E0,2.226660505E0,-6.895127329E-1,1.994696344E0,3.067940403E0
5.052662000E0,3.177140539E-1,-2.598106487E0,3.214642460E0,4.145482564E0
5.062632000E0,1.830470275E0,-6.100587201E-1,1.862459807E0,2.681706473E0
5.072601000E0,2.323159809E-1,8.668424115E-1,-1.749212104E-1,9.143215578E-1
5.082571000E0,-4.230882620E-1,3.125585273E-1,-1.249534197E0,1.355740470E0
5.092541000E0,1.241957814E0,-4.215000486E0,-1.740687448E0,4.726381396E0
5.102511000E0,-2.094234373E-1,-7.150966988E0,2.749594688E-2,7.154085760E0
5.112481000E0,7.609306249E-1,1.878495504E0,1.047633349E0,2.281511869E0
5.122451000E0,-1.982124538E0,2.442078800E0,4.381404642E0,5.393447245E0
5.132421000E0,-2.263005482E0,-1.575840406E0,3.355907682E0,4.343568022E0
5.142391000E0,-6.792665108E-1,-6.470552230E-1,1.159665416E0,1.491612326E0
5.152361000E0,-3.190327983E0,-1.860493389E0,-3.850516638E0,5.335363780E0
5.162330000E0,-2.700706484E-1,-2.253048843E0,-3.298744717E0,4.003858633E0
5.172300000E0,-1.464265006E0,-3.130255152E0,7.586224365E-1,3.538089502E0
5.182270000E0,-1.614937229E0,-1.814876628E0,3.826224965E-1,2.459308725E0
5.192240000E0,-2.315989149E0,1.771818609E0,7.716383386E-1,3.016384035E0
5.202210000E0,-4.121554379E0,2.543842864E0,6.992895699E-1,4.893603265E0
5.212180000E0,-2.724485283E0,9.159025973E-1,4.887324452E0,5.669888704E0
5.222150000E0,-2.049222799E0,1.211925783E0,2.336245658E0,3.335584201E0
5.232120000E0,-9.920514715E-1,1.895911728E0,-1.191344461E0,2.449071054E0
5.242089000E0,-1.252360157E0,1.196252030E0,-3.598682907E0,3.993738041E0
5.252059000E0,-2.190069799E0,-6.169750991E-1,-6.167099279E-1,2.357412805E0
5.262029000E0,-6.937560573E-1,-2.411554580E0,2.776191334E0,3.742209412E0
5.271999000E0,9.196128018E-1,-2.193597570E0,1.158987139E0,2.645904230E0
5.281969000E0,-2.089363057E0,2.353529443E0,-1.230762881E0,3.379247859E0
5.291939000E0,1.271117001E0,1.884407039E0,-6.873625363E0,7.239713665E0
5.301909000E0,1.771621266E0,2.246614274E-1,-9.888282523E0,1.004824591E1
5.311879000E0,2.704209185E0,-5.435863447E0,-1.703372272E0,6.305777971E0
5.321849000E0,5.493696649E-2,-6.210679747E0,8.421074029E0,1.046374927E1
5.331818000E0,8.550774481E-2,8.218363926E-1,8.529213604E0,8.569142976E0
5.341788000E0,-1.011843785E0,6.068189533E0,6.113150529E0,8.672794327E0
5.351758000E0,-7.581094164E-1,6.734571558E0,-6.218907949E0,9.198043272E0
5.361728000E0,3.340002671E-1,1.200156508E0,-8.291098611E0,8.384166506E0
5.371698000E0,-1.084620643E0,-8.424910972E-1,-4.552540950E0,4.755188986E0
5.381668000E0,-5.684687177E-1,-2.086324552E-1,2.067357354E0,2.154216937E0
5.391638000E0,-6.213935477E-1,-5.229042166E-1,6.296173641E0,6.348335316E0
5.401608000E0,1.307732704E0,-4.354956517E-1,1.644639915E0,2.145847557E0
5.411578000E0,9.210186917E-3,5.217610860E-1,-1.784266162E-1,5.515029608E-1
5.421547000E0,1.443682076E0,2.253854297E0,-4.253285131E0,5.025386705E0
5.431517000E0,2.229454012E0,1.310842254E0,-2.981125132E0,3.946628898E0
5.441487000E0,4.752010965E-1,-3.838818113E0,-1.579500763E0,4.178177025E0
5.451457000E0,3.176588781E0,-3.883958033E0,-3.448649785E0,6.088434251E0
5.461427000E0,2.351288790E0,-3.750164968E0,-2.528396859E0,5.097556958E0
5.471397000E0,-3.721565652E-1,-4.022843731E0,1.872067952E0,4.452685775E0
5.481367000E0,-1.180937733E0,-4.072943552E0,8.273708407E0,9.297189570E0
5.491337000E0,-1.158157566E0,-1.652379289E0,5.845340450E0,6.183824969E0
5.501307000E0,7.762441903E-2,-4.780361921E-1,-9.698051548E-1,1.084004700E0
5.511276000E0,1.000711490E-1,2.858309045E-1,2.234208822E0,2.254640237E0
5.521246000E0,5.472118596E-1,-1.121904975E0,1.742938626E0,2.143815908E0
5.531216000E0,1.247328920E0,-3.207046342E0,9.035252112E-1,3.557714644E0
5.541186000E0,4.741269995E-1,-8.873477197E-1,6.659481615E-1,1.206511227E0
5.551156000E0,-1.755410153E-1,1.805314092E0,-6.989586174E-1,1.943840726E0
5.561126000E0,2.518363987E-1,3.459124195E0,2.750020366E0,4.426236977E0
5.571096000E0,-9.661029902E-1,4.300603139E0,-3.326737093E0,5.522293186E0
5.581066000E0,-8.023854835E-1,2.407819379E0,-5.082380549E0,5.680845771E0
5.591035000E0,8.400391404E-2,-2.508261680E0,-6.140979767E-1,2.583708505E0
5.601005000E0,-9.825738658E-1,-5.170385238E0,2.526794137E0,5.838066762E0
5.610975000E0,1.016431803E0,-5.268566421E-1,1.040651189E0,1.547147836E0
5.620945625E0,1.517588543E0,2.215714956E0,-1.592872176E0,3.122452485E0
5.630915625E0,2.308279157E0,3.148548166E0,-1.082586250E0,4.051357946E0
5.640885625E0,1.348173217E0,-3.441738376E-1,5.720635128E-1,1.504421256E0
5.650855625E0,7.600186054E-1,-6.978330284E-2,-1.252321565E-1,7.734216722E-1
5.660825625E0,1.662692462E0,-1.794685900E-1,-1.538044004E0,2.272077146E0
5.670795625E0,7.754806902E-1,-3.406078547E0,1.936836975E0,3.994255730E0
5.680764625E0,-2.766189817E-2,-1.162114815E0,3.607270128E0,3.789943772E0
5.690734625E0,-2.725381003E-1,-1.782073164E0,3.142632245E0,3.623009689E0
5.700704625E0,2.294460944E-1,-1.795090820E0,4.600622020E0,4.943755610E0
5.710674625E0,2.800067123E-1,2.172596710E0,3.746519814E0,4.339929831E0
5.720644625E0,1.844305665E0,6.523729733E0,-2.452854341E0,7.209508127E0
5.730614625E0,3.621968858E0,1.998350269E0,-9.578236252E-1,4.246114495E0
5.740584625E0,1.216534047E-1,-2.265855122E0,-9.389014506E-1,2.455694386E0
5.750554625E0,-1.548261575E0,6.897919375E-1,-3.306788732E0,3.715881933E0
5.760524625E0,-8.916902275E-1,2.635222273E0,-2.684528042E0,3.866031389E0
5.770493625E0,-3.352032440E0,1.925588394E0,-2.415530979E0,4.558377129E0
5.780463625E0,-2.447568458E0,1.220756541E0,-4.324596019E0,5.116929608E0
5.790433625E0,-1.556998777E0,4.113598073E-1,-5.711341563E0,5.934044534E0
5.800403625E0,-2.865500244E0,-1.134055489E0,-1.571260867E0,3.459195601E0
5.810373625E0,7.480256738E-1,2.400165081E-2,1.883662981E0,2.026895338E0
5.820343625E0,9.013563327E-1,-2.454618154E0,3.192415439E0,4.126634205E0
5.830313625E0,6.068080702E-1,1.650952569E-1,8.727203250E-1,1.075691984E0
5.840283625E0,2.347315899E0,1.688907723E0,-6.742576396E-1,2.969330664E0
5.850252625E0,1.212846281E-1,2.619096237E0,-3.991256779E-1,2.652107910E0
5.860222625E0,-8.145848219E-1,-4.479629972E0,3.481515815E0,5.731630264E0
5.870192625E0,-2.482094513E0,-5.486143654E0,4.628221462E0,7.594669135E0
5.880162625E0,-3.571234030E0,6.151449206E-1,1.388389197E0,3.880688126E0
5.890132625E0,-1.405130068E0,7.018699461E-1,-4.986850494E-1,1.647937713E0
5.900102625E0,-1.042152900E0,8.735570616E-1,-3.925915899E0,4.154756341E0
5.910072625E0,-3.041979737E0,-6.628625858E-1,-2.995050277E0,4.320110379E0
5.920042625E0,-1.096145797E0,-1.387262731E0,-2.756268700E0,3.274606945E0
5.930012625E0,-1.823928191E-1,-1.446326333E0,4.224147286E0,4.468618052E0
5.939981625E0,-1.435916828E0,2.433205358E0,3.597760216E0,4.574518993E0
5.949951625E0,-9.626928210E-1,-1.315038508E0,5.285136260E0,5.530711440E0
5.959921625E0,-5.611942333E-1,-2.710222754E0,2.524838244E0,3.746338813E0
5.969891625E0,-4.558516366E-1,1.191653779E-1,-3.915571589E0,3.943818197E0
5.979861625E0,1.555793227E0,5.600729200E-1,-2.188670706E0,2.743073769E0
5.989831625E0,7.839448272E-1,-2.786161129E0,-8.104094714E-1,3.005665789E0
5.999801625E0,-9.787402119E-1,-3.230195177E0,-5.307406551E-1,3.416691225E0
6.009771625E0,-1.083153869E0,-1.069722084E0,-1.564373431E0,2.182840322E0
6.019741625E0,-9.874111211E-1,-1.894767720E0,-7.851407290E-2,2.138057505E0
6.029710625E0,-2.408581563E0,-3.550367948E-1,1.517840704E0,2.868999246E0
6.039680625E0,-1.949502483E0,8.303285962E-1,1.766672475E0,2.758828944E0
6.049650625E0,-1.145377453E0,-1.079275849E0,1.085968280E-1,1.577504085E0
6.059620625E0,6.250759048E-1,6.612224418E-1,-4.462460500E-1,1.013444888E0
6.069590625E0,-7.252497455E-1,2.590508323E0,-9.737216198E-1,2.860918446E0
6.079560625E0,8.373829696E-1,1.479737324E-1,-1.015858410E0,1.324792351E0
6.089530625E0,9.142564599E-1,-1.611243250E0,-4.068868627E0,4.470756266E0
6.099500625E0,6.798521094E-1,-2.113067962E0,-2.485658391E0,3.332529480E0
6.109470625E0,3.596856967E-1,6.676143256E-1,1.336755359E0,1.536879168E0
6.119439625E0,1.311299798E0,2.624835279E0,3.818494361E0,4.815616948E0
6.129409625E0,1.123056438E0,7.135561913E-2,3.955740792E0,4.112691649E0
6.139379625E0,4.872483341E-1,3.215255249E-1,1.970267261E0,2.054931309E0
6.149349625E0,1.658073893E0,4.949504328E-1,-3.786373851E0,4.163029174E0
6.159319625E0,1.574880001E0,-1.502542342E0,-2.853530701E0,3.588943851E0
6.169289625E0,1.656993620E0,2.268777853E0,-1.596838342E0,3.231543515E0
6.179259625E0,3.467476723E-1,4.786702349E0,-1.263345906E0,4.962740795E0
6.189229625E0,2.936400072E-1,1.411119663E0,2.778327906E0,3.129950337E0
6.199199625E0,-1.577662398E0,-1.235192147E0,3.920424194E0,4.402776867E0
6.209168625E0,-9.317595153E-1,2.375015622E0,-2.323544337E0,3.450758363E0
6.219138625E0,-5.018664464E-1,2.969698211E0,-2.166195179E0,3.709902822E0
6.229108625E0,-1.994031223E0,1.164387628E0,-2.230253180E0,3.210294116E0
6.239078625E0,1.424869610E-1,1.441338658E-3,-1.146753010E0,1.155572186E0
6.249048625E0,6.340475070E-1,-1.857779404E0,5.487372154E-1,2.038252459E0
6.259018625E0,1.830452441E0,-1.050930594E0,6.707224131E-1,2.214696324E0
6.268988625E0,8.995851380E-1,1.809686055E0,1.513230175E-1,2.026602007E0
6.278958625E0,9.242100289E-1,-1.149941789E0,4.797303643E0,5.019029044E0
6.288928625E0,1.484313501E-1,-2.364833865E0,4.280749503E0,4.892779106E0
6.298897625E0,2.954652339E-1,1.108839372E0,9.849792641E-1,1.512285888E0
6.308867625E0,1.604461649E0,7.393032360E-1,-7.618009830E-1,1.923852176E0
6.318837625E0,-7.069655022E-1,-3.676063204E0,7.402896613E-1,3.815923176E0
6.328807625E0,3.288954286E-1,-2.076143965E0,-9.178415340E-1,2.293682420E0
6.338777625E0,3.768143110E-1,8.389649338E-1,-4.291604274E0,4.389045275E0
6.348747625E0,3.606550189E-1,5.167377430E-1,-2.119071883E-1,6.648267400E-1
6.358717625E0,-1.818169342E0,-1.645842687E0,-2.511984894E0,3.510641824E0
6.368687625E0,-1.894782046E0,-3.243884386E0,-5.472344810E-1,3.796373334E0
6.378656625E0,-1.023731101E0,-3.110243933E0,-2.748489565E-1,3.285906974E0
6.388626625E0,-1.642753603E0,-2.774646499E0,2.452636825E0,4.051262765E0
6.398596625E0,-3.413718153E-1,8.985974702E-1,2.625706807E0,2.796130963E0
6.408566625E0,-3.773952684E-1,8.340094185E-1,2.825325487E0,2.969926431E0
6.418536625E0,3.767622708E-1,-1.809743650E0,1.393755772E0,2.315097630E0
6.428506625E0,6.492529721E-1,1.675369079E0,-4.571668947E0,4.912081833E0
6.438476625E0,3.609427019E-1,1.562223995E-1,-5.186772645E-1,6.509310077E-1
6.448446625E0,3.697055586E-1,-3.540789917E0,2.737570474E0,4.490898299E0
6.458416625E0,-6.380132349E-1,-3.050301202E0,3.734018467E0,4.863567849E0
6.468385625E0,1.212241899E0,1.137429040E0,5.682142907E-1,1.756742076E0
6.478355625E0,1.528309998E0,2.456675497E0,2.492065769E0,3.818557024E0
6.488325625E0,2.918007948E0,2.559340617E0,-4.702541327E-1,3.909748550E0
6.498295625E0,1.620455977E0,-8.415932572E-1,-4.536449997E0,4.890146763E0
6.508265625E0,4.386415268E-1,-2.154178566E0,-7.399370742E-1,2.319568614E0
6.518235625E0,6.822561921E-1,1.278741917E0,-3.144605096E0,3.462541785E0
6.528205625E0,-1.193565672E0,3.749059260E-1,1.044239625E0,1.629598068E0
6.538175625E0,-2.398215400E-1,2.444136143E-2,1.014610029E0,1.042854382E0
6.548145625E0,-1.963568106E-1,-9.409862754E-1,5.559825003E-1,1.110462835E0
6.558114625E0,-4.014403713E-1,-2.165036845E-1,4.288698792E-1,6.260651647E-1
6.568084625E0,-3.637145380E-1,-1.678937343E-1,2.256088518E0,2.291377745E0
6.578054625E0,2.321406595E0,2.098114000E0,-1.264051664E0,3.374735182E0
6.588024625E0,8.236161388E-1,-7.963638747E-1,1.174503311E0,1.640730628E0
6.597994625E0,4.986237633E-1,6.500443196E-1,5.312020004E-1,9.764009627E-1
6.607964625E0,1.205658007E0,2.583438162E0,-1.931853978E0,3.443809483E0
6.617934625E0,-7.816802005E-1,2.067487746E0,-1.514642277E0,2.679490762E0
6.627904417E0,-1.609324632E0,-3.026583141E-1,-4.068349979E0,4.385544365E0
6.637874417E0,-7.777185658E-1,-1.148703641E0,-2.708822638E0,3.043367594E0
6.647843417E0,2.503947896E0,1.518369000E0,3.984585106E-2,2.928615233E0
6.657813417E0,4.659090668E-2,-5.182898864E-1,1.467838824E0,1.557352219E0
6.667783417E0,-2.693432767E0,-2.459024616E0,2.885519063E0,4.650548612E0
6.677753417E0,-1.477648040E-1,-6.286142743E-1,2.604421772E0,2.683282153E0
6.687723417E0,-1.185043648E0,1.522976314E0,1.512851275E0,2.452040840E0
6.697693417E0,2.501353487E0,5.081088899E0,-1.538569084E0,5.868682007E0
6.707663417E0,-2.786651418E-2,1.370478006E0,-4.313186932E-1,1.437018553E0
6.717633417E0,-2.496347393E0,-3.049910608E0,-9.359158623E-1,4.050881821E0
6.727603417E0,-3.624356861E0,-4.158746179E0,-4.533720517E-1,5.535040980E0
6.737572417E0,-1.067509863E0,5.404622358E-1,1.123892736E0,1.641588139E0
6.747542417E0,-1.775658768E0,4.478078413E-1,1.019240440E0,2.095792689E0
6.757512417E0,-1.652562307E0,-1.163265547E0,4.295321934E0,4.746992672E0
6.767482417E0,7.384148978E-2,1.677020041E0,-3.165475563E0,3.583027257E0
6.777452417E0,6.338266285E-1,-2.699855348E-1,7.382425511E-1,1.009767522E0
6.787422417E0,1.172587690E0,-2.586349491E0,3.700959479E0,4.664897281E0
6.797392417E0,1.029674430E0,-1.985739871E0,-1.842935370E0,2.898241371E0
6.807362417E0,-2.347712633E-1,-1.066028397E0,-2.332353167E0,2.575151527E0
6.817332417E0,-1.794676837E0,-3.000791073E-1,-1.907759356E-1,1.829564942E0
6.827301417E0,6.453633311E-1,4.754955769E-2,-5.951577342E0,5.986654128E0
6.837271417E0,2.143464713E0,-5.043651516E0,-7.033124542E-1,5.525170586E0
6.847241417E0,-2.208127901E0,-5.186767967E0,3.329345536E0,6.546978881E0
6.857211417E0,6.120401222E-2,-1.797463620E0,1.071665172E1,1.086651947E1
6.867181417E0,1.233749639E0,6.480687209E0,-1.316802905E0,6.727214487E0
6.877151417E0,-1.365030886E0,1.672611240E0,4.767527282E-2,2.159446830E0
6.887121417E0,-1.782211962E-1,-2.972882313E0,-2.939675975E-1,2.992692598E0
6.897091417E0,4.687554914E-1,1.017690635E0,-7.931546888E0,8.010297247E0
6.907061417E0,6.117661802E-1,2.209105555E0,-4.452229627E0,5.007669504E0
6.917030417E0,3.527015265E-1,-4.225735974E-1,2.543060507E0,2.601946109E0
6.927000417E0,-4.745042180E-1,-1.013614249E0,1.867777265E0,2.177420495E0
6.936970417E0,4.540002254E-1,-1.174741877E0,2.709964600E0,2.988317723E0
6.946940417E0,9.550350881E-1,5.346755388E-1,1.158964920E0,1.594104651E0
6.956910417E0,1.666522608E-1,-7.892738333E-1,1.167371462E0,1.418972266E0
6.966880417E0,-8.306840339E-1,4.182747245E-2,-1.797836965E0,1.980909703E0
6.976850417E0,2.804273098E-1,2.469824131E0,-8.206286502E-1,2.617652019E0
6.986820417E0,3.167340240E-1,-1.404673693E0,2.640345896E0,3.007466554E0
6.996790417E0,1.670644091E0,2.929098362E-1,5.755619604E0,6.000333730E0
7.006759417E0,6.318091929E-1,3.494450733E0,-1.430176324E0,3.828285921E0
7.016729417E0,1.309003304E0,8.113067266E-1,-1.904852121E0,2.449524415E0
7.026699417E0,1.737513434E0,2.940678772E-1,-2.141319954E0,2.773207528E0
7.036669417E0,2.266542901E0,1.836558104E0,-3.646838236E0,4.670074037E0
7.046639417E0,1.457644789E0,2.250365263E-1,-2.787860622E0,3.153971562E0
7.056609417E0,-6.310766830E-1,-5.917873406E-1,-1.935200340E-1,8.865213138E-1
7.066579417E0,-9.157925235E-1,2.471126890E-1,-2.159832239E0,2.358943816E0
7.076549417E0,1.342085827E-2,4.885012463E-1,-1.630471526E0,1.702131307E0
7.086518417E0,-7.533991188E-2,1.793974586E0,4.530609798E0,4.873442937E0
7.096488417E0,8.214716725E-1,2.298232325E0,2.485950167E0,3.483767466E0
7.106458417E0,-1.122790536E0,-2.513014004E0,-1.225211535E0,3.012812851E0
7.116428417E0,3.400343890E0,-4.224244934E-1,-7.589212292E-1,3.509521685E0
7.126398417E0,-1.278871944E-1,7.205313349E-1,-1.153320018E0,1.365894433E0
7.136368417E0,-7.143464425E-1,-5.142778194E0,4.091426600E0,6.610463676E0
7.146338417E0,-1.712119561E-1,-2.364824510E0,9.794027746E-2,2.373036197E0
7.156308417E0,-5.904207733E-2,4.338711197E0,-1.958957577E0,4.760820897E0
7.166278417E0,-1.972953180E0,3.800576153E-1,1.751416504E-1,2.016844723E0
7.176248417E0,-2.265953940E0,-5.564968799E0,3.053370405E0,6.739918087E0
7.186217417E0,-3.054515583E0,-2.713484039E0,4.648344070E0,6.188712602E0
7.196187417E0,4.326987091E-2,1.957657741E0,-3.315458398E0,3.850527302E0
7.206157417E0,-3.729023045E-1,-4.541555786E-1,-8.762111127E-2,5.941303539E-1
7.216127417E0,-1.532789111E0,-2.213035469E0,2.556133127E0,3.712247972E0
7.226097417E0,-1.855112781E0,-2.038128877E-1,-3.363747044E0,3.846787920E0
7.236067417E0,-1.830814238E0,6.292934284E-1,7.223322773E-1,2.066314330E0
7.246037417E0,-1.731917794E0,-1.679957974E0,3.503573266E0,4.254036163E0
7.256007417E0,-1.040190355E0,-3.061272625E0,1.080492947E0,3.408936941E0
7.265976417E0,-1.343518395E-2,6.778051454E-1,-4.347264504E-1,8.053492447E-1
7.275946417E0,1.603575796E0,1.493442612E0,2.438583627E0,3.278492988E0
7.285916417E0,1.817274571E0,-1.682300076E0,5.833223265E-1,2.544186580E0
7.295886417E0,1.120438055E0,-1.817351170E0,-1.993052106E0,2.920685435E0
7.305856417E0,1.613112897E0,4.517143661E-1,-3.105293680E0,3.528318003E0
7.315826417E0,1.061224033E0,3.541963745E0,-2.784749318E0,4.628880252E0
7.325796417E0,1.158984362E0,-2.707576597E-1,-1.134826444E0,1.644501602E0
7.335766417E0,1.643743390E0,-3.140935091E0,1.009873785E0,3.686083374E0
7.345736417E0,6.521725599E-1,-2.210759733E0,4.070505847E0,4.677799215E0
7.355705417E0,-2.022782859E-1,6.828767279E-1,3.685839164E0,3.754017511E0
7.365675417E0,4.862635899E-1,4.541857795E0,-2.769041943E0,5.341583828E0
7.375645417E0,3.532399162E0,8.706761384E-1,-6.346772522E-1,3.693065934E0
7.385615417E0,5.206324272E-2,-2.348998436E0,1.692575389E0,2.895740955E0
7.395585417E0,1.648285507E-1,-1.004295541E0,-1.807244550E0,2.074104831E0
7.405555417E0,-5.223197874E-1,2.562498990E0,-1.194967396E0,2.875268007E0
7.415525417E0,6.991643663E-1,2.086990842E0,-1.166639391E0,2.491065847E0
7.425495417E0,1.009954403E0,-5.980081934E-1,-4.288084835E-1,1.249599300E0
7.435465417E0,1.142184873E0,-4.453116649E-1,-5.922118485E-2,1.227353214E0
7.445434417E0,-1.245701786E0,2.434382110E0,-7.979087090E-1,2.848622036E0
7.455404417E0,-2.080828169E-1,6.481308183E-1,-1.676173949E0,1.809124408E0
7.465374417E0,1.114750468E-1,-1.365456417E-1,-1.243278846E0,1.255712422E0
7.475344417E0,-1.608745904E-1,-1.822123960E-1,6.925296038E-1,7.339477115E-1
7.485314417E0,2.413356692E0,1.888488688E0,1.925219142E-1,3.070463277E0
7.495284417E0,2.156609546E0,-8.329914182E-1,1.986673964E0,3.048231106E0
7.505254417E0,2.816643541E0,5.298913470E-1,2.100553751E-1,2.873741279E0
7.515224417E0,2.045021282E0,1.156348583E0,-5.192450291E-1,2.406006960E0
7.525194417E0,1.071569438E0,-3.086439041E0,2.477781022E-1,3.276547116E0
7.535163417E0,-4.998653099E-2,-1.252897808E0,1.832551884E0,2.220472468E0
7.545133417E0,-6.094948293E-1,3.612203716E0,-8.429322696E-1,3.758993807E0
7.555103417E0,-1.348195144E0,-6.021120617E-1,-8.324330091E-1,1.695026193E0
7.565073417E0,7.747095886E-1,-1.431069193E0,1.215753078E-1,1.631843908E0
7.575043417E0,-2.777198516E0,-4.203928784E-1,1.749864653E0,3.309318370E0
7.585013417E0,-1.529874274E0,2.524509045E0,2.392956634E0,3.799987193E0
7.594983417E0,-7.875731707E-1,-1.007693066E0,4.595309240E0,4.769966857E0
7.604953417E0,-3.648119507E-1,-9.717432144E-1,-1.435068104E0,1.771099404E0
7.614922417E0,-3.219782748E0,1.206327074E0,-5.985450262E0,6.902741542E0
7.624892500E0,-2.896298990E0,-2.832727185E0,4.251709306E-1,4.073531817E0
7.634862500E0,-2.122780772E0,-2.108973157E0,2.910363883E0,4.174228541E0
7.644832500E0,2.194706641E0,-1.564749700E0,3.059322871E0,4.077331884E0
7.654802500E0,1.282322459E0,1.276495709E0,1.940685613E0,2.653309788E0
7.664772500E0,1.192798372E0,3.749249294E-1,1.316301799E-1,1.257244273E0
7.674742500E0,-4.998638481E-2,-4.063324005E0,-3.361192396E0,5.273586534E0
7.684712500E0,-1.505020392E0,-2.170586438E0,-3.967714135E0,4.766475356E0
7.694682500E0,-1.699711038E0,-1.474649661E0,-1.520337465E0,2.715701612E0
7.704651500E0,-1.338113083E0,-2.757798917E0,1.125838689E0,3.265503673E0
7.714621500E0,-1.459297943E0,8.179544261E-1,1.653668600E0,2.352279696E0
7.724591500E0,1.456315717E0,2.055640995E0,3.782680750E-2,2.519513095E0
7.734561500E0,-4.205580622E-2,-1.257367420E0,3.635042063E0,3.846592300E0
7.744531500E0,7.259181554E-1,-4.083569697E-1,4.495112522E0,4.571624346E0
7.754501500E0,3.367441827E-1,2.467338772E0,-3.781892545E0,4.528119751E0
7.764471500E0,7.738007851E-1,4.664122197E-1,-4.502456040E0,4.592212800E0
7.774441500E0,1.557360573E0,-2.702611141E0,5.829861116E-1,3.173224187E0
7.784410500E0,1.181795374E0,-2.377614124E0,1.069970298E0,2.862608193E0
7.794380500E0,7.228029782E-1,2.044250911E-1,6.605318856E-1,1.000268032E0
7.804350500E0,2.222007729E0,2.721888826E0,-4.294756508E0,5.548957613E0
7.814320500E0,-4.245340227E-1,9.732459489E-1,8.137827301E-1,1.337788902E0
7.824290500E0,1.455231497E0,-9.531826901E-1,-1.804478817E0,2.506471574E0
7.834260500E0,8.546607609E-1,1.196098248E0,-1.528884925E0,2.120986834E0
7.844230500E0,-4.844481391E-1,2.070825630E0,-1.232268539E0,2.457945186E0
7.854200500E0,4.762505255E-1,1.500890503E0,-1.465137411E0,2.150840417E0
7.864170500E0,3.355533241E-1,4.096772709E-1,-7.650233835E-1,9.304258578E-1
7.874139500E0,-3.563573520E-1,-5.450555161E-1,-4.351147056E-2,6.526632562E-1
7.884109500E0,-7.296396889E-1,-7.616393074E-1,6.011211340E0,6.103042707E0
7.894079500E0,3.828278068E-2,3.633428816E0,2.658893849E0,4.502553390E0
7.904049500E0,-8.694755588E-1,2.208398042E0,3.915054696E0,4.578281657E0
7.914019500E0,-1.727402428E0,1.226264033E0,1.012255940E0,2.347829789E0
7.923989500E0,-1.997043708E0,-1.073347357E0,1.816329954E0,2.905049504E0
7.933959500E0,1.055928356E0,9.943684307E-1,-3.294018413E0,3.599209715E0
7.943929500E0,-3.370591795E0,3.012045209E0,-2.407036144E0,5.121242856E0
7.953898500E0,-2.140549875E0,-1.752979757E0,-4.476221337E0,5.262266552E0
7.963868500E0,-2.854419185E0,-5.021568337E0,-2.923811894E0,6.473988990E0
7.973838500E0,-1.261897696E0,2.684164345E-3,3.729821920E-2,1.262451646E0
7.983808500E0,-1.453958412E0,-9.025566199E-1,7.870499618E0,8.054400521E0
7.993778500E0,-7.090266457E-1,-1.163299169E0,2.056213730E0,2.466576300E0
8.003748500E0,-5.838205824E-1,-1.075059130E0,-3.863591012E0,4.052645323E0
8.013718500E0,1.842588337E0,-4.146723134E0,2.120044275E0,5.008496008E0
8.023688500E0,1.610973109E0,3.301253173E-1,-2.037416101E0,2.618259241E0
8.033658500E0,-2.761901908E0,7.914405191E-1,2.559911013E-3,2.873062268E0
8.043627500E0,-8.548031406E-1,-2.041476115E0,1.493176564E0,2.669810740E0
8.053597500E0,3.773084007E-1,-2.254034391E0,1.100892128E0,2.536729419E0
8.063567500E0,-1.295772225E0,-4.621319701E0,1.333585584E0,4.981372497E0
8.073537500E0,8.000351221E-1,6.575077057E-1,7.747280073E-1,1.293281124E0
8.083507500E0,-1.437232159E0,2.074775716E0,-1.053188204E0,2.734874027E0
8.093477500E0,1.124110398E0,-1.711397868E0,2.895820688E0,3.546587699E0
8.103447500E0,1.826377517E0,1.740787143E0,-6.113748114E0,6.613917955E0
8.113417500E0,3.626766206E-1,3.038922228E0,-4.800384541E0,5.693002229E0
8.123386500E0,1.888129157E-1,-2.399946688E0,4.897780443E0,5.457439664E0
8.133356500E0,-1.197644398E0,-1.857631177E0,4.717513708E0,5.209614312E0
8.143326500E0,1.167304365E0,3.433127474E0,1.304318515E0,3.853597089E0
8.153296500E0,6.505683763E-1,-5.739542100E-1,-1.180755739E0,1.465212190E0
8.163266500E0,-5.339604975E-1,-3.536880761E0,2.353196737E0,4.281608834E0
8.173236500E0,1.299154693E0,-1.524060680E0,1.143516576E0,2.306120993E0
8.183206500E0,2.303888336E0,1.181658841E0,-7.144104695E-1,2.686001006E0
8.193176500E0,-5.861199634E-1,-9.312804821E-1,1.144658538E0,1.587785601E0
8.203146500E0,5.134391533E0,1.830072665E0,-4.476691453E0,7.053503295E0
8.213115500E0,2.839727179E0,9.862656516E-1,-1.092599607E0,3.198522204E0
8.223085500E0,9.198849897E-1,-1.008698494E0,1.880613073E0,2.323868881E0
8.233055500E0,6.658299015E-1,3.118768297E0,-1.172020583E0,3.397598769E0
8.243025500E0,2.375334587E0,4.387469667E0,-5.917220857E0,7.739871262E0
8.252995500E0,5.986350149E-1,-4.924258389E0,-2.026257859E0,5.358395794E0
8.262965500E0,3.835561506E-2,-4.381294715E0,4.748172414E0,6.460832439E0
8.272935500E0,-2.729440067E-1,2.663043910E0,3.061348346E0,4.066713046E0
8.282905500E0,1.990716144E0,3.460506769E0,5.516007723E0,6.809140846E0
8.292874500E0,2.909906923E0,3.346987755E0,-1.957519162E-1,4.439392317E0
8.302844500E0,1.149512677E0,-1.827440540E0,1.286106777E-1,2.162743403E0
8.312814500E0,2.198619597E0,2.528137243E-1,-1.210114608E0,2.522344203E0
8.322784500E0,1.752926840E0,3.015981554E0,-5.696372107E0,6.679637147E0
8.332754500E0,6.689602084E-2,-6.180007008E-1,-5.724821734E-1,8.450655493E-1
8.342724500E0,-1.168762003E0,-2.024680281E0,-1.736693215E0,2.912290882E0
8.352694500E0,-2.075358245E0,2.297743497E0,-4.454542785E0,5.424913681E0
8.362664500E0,-1.401091396E0,-1.106442305E-1,2.063147358E0,2.496372622E0
8.372633500E0,-2.156182699E-2,-1.024178413E0,2.747469226E0,2.932233531E0
8.382603500E0,7.863452554E-1,-1.415304808E0,7.150022078E-1,1.769930710E0
8.392573500E0,4.285424352E-1,-8.057843238E-1,2.334948746E0,2.506974799E0
8.402543500E0,-3.863475383E-1,9.681685191E-1,-7.683767617E-1,1.294997123E0
8.412513500E0,-1.946993004E0,-7.380355597E-2,2.401545024E-1,1.963135988E0
8.422483500E0,-1.710018802E0,-1.209012408E0,5.262745517E-1,2.159361066E0
8.432453500E0,-4.152986379E-1,-4.041256320E-1,-4.084402925E0,4.125304563E0
8.442423500E0,-1.761250644E0,3.317563981E-2,7.355732971E-1,1.908971590E0
8.452393500E0,-2.854859188E0,-9.271280819E-1,9.714148933E-1,3.154906395E0
8.462362500E0,-5.663950758E-1,-2.055279637E0,3.499234048E0,4.097513476E0
8.472332500E0,-2.041023614E-1,-7.370090809E-1,2.754595812E0,2.858782651E0
8.482302500E0,-4.844400626E-1,-7.383559871E-1,2.154290248E0,2.328265064E0
8.492272500E0,9.972533007E-1,-1.618201729E0,-4.890780741E-1,1.962724725E0
8.502242500E0,1.234128685E-1,-6.644653076E-1,-2.293542273E0,2.391041831E0
8.512212500E0,-9.775616325E-1,3.568201371E0,7.928064287E-2,3.700536879E0
8.522182500E0,-9.532402852E-1,2.243844448E0,-1.353517572E0,2.788461004E0
8.532152500E0,-2.009267897E0,-2.491168514E0,2.220854366E-1,3.208177051E0
8.542121500E0,-2.203843208E0,-6.321872154E0,2.536996359E0,7.159563041E0
8.552091500E0,-6.226626858E-1,-2.559288284E-1,-1.479384152E0,1.625357147E0
8.562061500E0,-2.762783083E0,1.772950630E0,-8.187557870E-1,3.383295042E0
8.572031500E0,7.871182573E-1,4.972437108E-1,-1.707809139E0,1.945101158E0
8.582001500E0,-1.455407059E0,6.402078411E-1,-3.436675272E0,3.786662477E0
8.591971500E0,2.155979143E-1,-3.665985821E0,2.276506995E0,4.320696541E0
8.601941500E0,1.135411751E0,-2.539656258E0,7.504545195E0,8.003574972E0
8.611911500E0,8.742395778E-1,2.908107150E0,2.603605501E0,4.000017955E0
8.621879625E0,8.030885381E-1,4.277713921E0,-4.915230873E0,6.565308989E0
8.631849625E0,2.540843827E0,2.426269683E0,-4.153441585E0,5.440013688E0
8.641819625E0,2.363133641E0,-1.589807650E0,-3.743817816E0,4.704047279E0
8.651789625E0,6.254554622E-1,-6.021258026E-1,-2.915367930E0,3.041894177E0
8.661759625E0,1.366372420E-1,-6.329216257E-1,4.130499449E0,4.180943102E0
8.671729625E0,-2.513578589E-1,2.105408694E0,4.284855418E0,4.780785761E0
8.681699625E0,6.067516811E-1,1.082003283E0,4.335567150E0,4.509547784E0
8.691669625E0,1.996707640E0,2.320646164E0,-3.809394339E0,4.887097835E0
8.701639625E0,-8.018551411E-1,2.235863584E0,-5.441737559E0,5.937555499E0
8.711608625E0,1.632730452E0,2.163205497E0,-5.239643753E0,5.899079031E0
8.721578625E0,-7.897744646E-2,9.959796309E-1,-1.787999024E0,2.048207356E0
8.731548625E0,-4.906187789E-1,-3.935260919E0,1.629467559E0,4.287440940E0
8.741518625E0,-2.314084017E-1,-2.670010575E0,3.747402159E0,4.607117240E0
8.751488625E0,-2.133551782E0,2.425246713E-1,2.887441043E0,3.598357570E0
8.761458625E0,-1.686594856E0,-8.042529380E-1,1.409861342E0,2.340755007E0
8.771428625E0,-1.373745394E-1,1.692768931E-3,-9.725387281E-1,9.821945872E-1
8.781398625E0,1.213114888E-1,4.407976145E-1,2.275046360E0,2.320529025E0
8.791367625E0,-1.431179413E0,1.538346890E-1,2.372883727E0,2.775340845E0
8.801337625E0,-2.151470135E0,-1.067394015E0,1.117104118E0,2.648787522E0
8.811307625E0,-3.409594770E-1,-9.767443380E-1,-6.366974652E-2,1.036502148E0
8.821277625E0,4.324460363E-1,2.927491839E0,-4.828661091E0,5.663319343E0
8.831247625E0,-2.644024087E0,-5.788813663E-1,-1.795065385E0,3.247803372E0
8.841217625E0,-1.314218582E0,-1.192228560E0,1.431456864E0,2.279835120E0
8.851187625E0,-2.110058692E0,-9.220807654E-1,4.508255308E0,5.062306445E0
8.861157625E0,-4.608370640E-2,-1.681176242E0,1.609177136E0,2.327644371E0
8.871127625E0,1.320175725E0,-1.719792716E0,-9.512367368E-2,2.170161156E0
8.881096625E0,4.276075385E-1,-1.225178498E0,-2.898365396E-1,1.329629940E0
8.891066625E0,1.220844615E0,4.379291751E0,-1.225051321E0,4.708440140E0
8.901036625E0,-1.304322023E0,-2.882282630E-1,-1.412518902E0,1.944104195E0
8.911006625E0,-1.707697896E0,-7.245460331E-1,-8.872465628E-1,2.056308713E0
8.920976625E0,-2.250740654E0,-7.789701623E-1,-1.196719807E0,2.665476750E0
8.930946625E0,-3.444762848E-2,-4.681203083E0,-8.218846321E-2,4.682051248E0
8.940916625E0,-8.202245345E-1,-5.572523986E0,3.203701150E-1,5.641668979E0
8.950886625E0,-3.811097487E-1,-1.762434998E0,2.653665853E0,3.208327325E0
8.960855625E0,-9.850899227E-1,1.296391737E0,4.467936417E0,4.755364289E0
8.970825625E0,1.705844402E-1,3.568837256E0,1.309245379E0,3.805236113E0
8.980795625E0,1.241198992E0,2.019166064E0,3.127155250E-1,2.390689760E0
8.990765625E0,-7.727162180E-2,8.375768048E-1,-1.846829031E0,2.029355384E0
9.000735625E0,-1.414042686E0,-3.090160209E0,-3.108278684E0,4.605431925E0
9.010705625E0,-1.559900165E0,-1.729609898E0,-6.793827242E-1,2.426190391E0
9.020675625E0,-5.619254641E-1,2.692778756E0,-7.507737190E-1,2.851399451E0
9.030645625E0,-5.897703436E-1,5.107601345E-2,3.108827153E0,3.164687044E0
9.040614625E0,-8.671167921E-1,-1.894048513E0,1.649275002E0,2.656956781E0
9.050584625E0,1.009207129E-1,7.985393313E-1,-1.768381616E0,1.942941994E0
9.060554625E0,4.492261931E-1,2.385480968E0,-3.786700711E0,4.497935737E0
9.070524625E0,-2.559947010E-1,6.357788676E-1,-1.935633034E0,2.053393118E0
9.080494625E0,9.906982796E-1,1.389716515E-1,-5.480788189E-1,1.140695662E0
9.090464625E0,1.813350943E-1,2.342394590E-1,1.475502185E0,1.504944264E0
9.100434625E0,-4.507229341E-1,1.397702350E0,4.620628268E0,4.848394437E0
9.110404625E0,1.316463182E0,3.784175591E0,1.172252133E0,4.174594025E0
9.120374625E0,-8.998215848E-1,1.490952868E0,-8.004715437E-1,1.916604819E0
9.130343625E0,-2.791906603E0,3.850312570E-1,-1.815188577E0,3.352297886E0
9.140313625E0,2.805798856E-1,1.202240163E-1,-2.634731399E0,2.652355262E0
9.150283625E0,-2.027052935E0,2.026135360E0,-1.738868964E0,3.352287782E0
9.160253625E0,6.277974182E-1,4.249303177E-1,-1.121471404E0,1.353659293E0
9.170223625E0,1.268808374E0,-3.342900551E0,-1.037644551E0,3.723112273E0
9.180193625E0,-3.175946976E-1,1.912174004E-1,-1.228088365E0,1.282821701E0
9.190163625E0,4.101908319E0,7.831994534E-2,1.377852514E0,4.327847435E0
9.200133625E0,2.087507882E0,-2.160487419E0,3.550390753E0,4.650878362E0
9.210102625E0,-2.105500057E0,-7.431246838E-1,9.816890359E-2,2.234950093E0
9.220072625E0,-1.096494145E0,-2.557272457E0,3.141615999E0,4.196628756E0
9.230042625E0,-1.590685609E0,1.304744777E0,-9.611805117E-1,2.270794490E0
9.240012625E0,-9.880092913E-1,4.421120685E-1,7.319070929E-1,1.306642045E0
9.249982625E0,-1.782848943E-2,-2.537411219E0,-1.313148980E0,2.857119842E0
9.259952625E0,-1.838336827E0,-9.039006025E-2,4.372349060E-1,1.891778797E0
9.269922625E0,5.310489495E-1,2.058831528E0,1.458285643E0,2.578254694E0
9.279892625E0,-3.040712938E-2,1.494478154E-1,3.183544044E0,3.187194993E0
9.289862625E0,-1.984047687E0,-2.844005879E0,6.337446213E-1,3.525116581E0
9.299831625E0,5.064631619E-2,-2.405165620E0,-5.163475583E0,5.696390682E0
9.309801625E0,-8.186968032E-1,6.377040634E-1,-1.426536432E0,1.764068343E0
9.319771625E0,-9.470998317E-1,-8.383819664E-1,-9.040450287E-1,1.554728216E0
9.329741625E0,2.249029174E-1,1.872418785E-1,2.677573364E0,2.693518138E0
9.339711625E0,7.169582476E-1,-2.667345999E0,5.201764321E0,5.889576883E0
9.349681625E0,-1.585534066E0,-3.937111562E-1,-2.106364129E0,2.665651251E0
9.359651625E0,-8.908890858E-1,9.146299508E-1,-1.265776593E0,1.797893683E0
9.369621625E0,-1.935037348E0,-2.676823751E0,3.499369118E0,4.811999497E0
9.379590625E0,2.051103702E0,1.619027648E0,-4.878660632E0,5.534402089E0
9.389560625E0,-1.117927845E0,1.239269118E0,-4.422272587E0,4.726737294E0
9.399530625E0,1.479484431E-1,1.126712848E0,5.643960589E-1,1.268823666E0
9.409500625E0,-2.813510603E-1,-6.236309847E-1,-8.147141916E-1,1.063876515E0
9.419470625E0,-2.500260935E0,-1.436991253E0,1.506364374E0,3.253518439E0
9.429440625E0,7.921910092E-1,-1.047918401E0,8.454547584E-1,1.562207835E0
9.439410625E0,-3.797887165E-2,2.370820537E0,-2.276049158E0,3.286735794E0
9.449380625E0,9.609439187E-1,4.983431627E0,-1.999820259E0,5.455023837E0
9.459350625E0,1.524324901E-1,-6.891829500E-1,1.249361705E0,1.434961139E0
9.469319625E0,6.016693544E-2,-5.499195224E0,1.514324189E0,5.704204232E0
9.479289625E0,1.509387092E0,9.254636720E-1,3.861588925E-1,1.812139921E0
9.489259625E0,3.270072895E0,5.350436795E0,-1.560732370E0,6.461922018E0
9.499229625E0,2.503794115E0,2.158733547E-2,1.913649842E0,3.151429310E0
9.509199625E0,1.480371746E0,-3.356263778E0,7.307727331E-1,3.740325633E0
9.519169625E0,3.965557901E-1,-2.181160542E-1,4.165413174E0,4.189928164E0
9.529139625E0,1.481270610E0,1.276589557E0,1.248071809E0,2.319811793E0
9.539109625E0,1.313276596E0,2.671440512E0,-1.635498378E0,3.396490066E0
9.549078625E0,2.078863651E0,2.073578499E0,-2.552572172E0,3.890633183E0
9.559048625E0,5.285659294E-1,-2.175834606E0,-2.953464879E0,3.706290998E0
9.569018625E0,-2.617327454E0,-5.785159153E-1,1.323511416E-1,2.683766102E0
9.578988625E0,3.166815818E-1,-1.613319889E-1,1.713789672E0,1.750254345E0
9.588958625E0,-2.778454718E-1,5.536047301E-1,2.933618259E-1,6.853739594E-1
9.598928625E0,-1.304432974E0,4.996366838E-1,1.822857785E-1,1.408690990E0
9.608898625E0,-4.846909813E-1,-1.299914685E0,2.875544883E0,3.192720143E0
9.618868625E0,3.975929035E-1,-6.676640269E-1,-8.562604129E-1,1.156303275E0
9.628839750E0,7.237350243E-1,6.953862610E-1,1.368328570E0,1.696961258E0
9.638808750E0,2.448481355E-1,-4.214652577E-1,1.309011490E0,1.396815899E0
9.648778750E0,1.298872711E0,-2.854695466E-1,-1.686206017E0,2.147522738E0
9.658748750E0,1.176867121E0,5.204378611E-1,-4.547648585E-1,1.364801401E0
9.668718750E0,-9.390062620E-1,-1.895843900E0,4.354023886E-1,2.159984281E0
9.678688750E0,-4.725613710E-1,-4.162777249E0,-1.072738370E0,4.324672969E0
9.688658750E0,3.291682743E0,-5.769973934E-1,-6.171689343E-1,3.398381786E0
9.698628750E0,1.442288100E0,-1.947119889E-1,-1.472381526E-1,1.462801010E0
9.708598750E0,9.047540767E-1,1.421886141E0,1.907278131E0,2.545201368E0
9.718567750E0,-3.256109744E-1,-3.576823676E-1,5.417837065E-1,7.262842194E-1
9.728537750E0,8.510374606E-1,-1.460438588E0,4.315525818E-1,1.744529524E0
9.738507750E0,-5.659669865E-1,-2.831496346E0,2.158875634E0,3.605334130E0
9.748477750E0,4.556165054E-1,1.634511075E0,-1.874364738E0,2.528330680E0
9.758447750E0,1.240428621E0,-6.265692106E-1,-6.642618245E-1,1.540290853E0
9.768417750E0,-1.525201618E-1,-1.989113422E0,-2.112178016E-1,2.006102581E0
9.778387750E0,6.924197493E-1,-2.065906367E0,3.115577763E-1,2.201018508E0
9.788357750E0,2.224753728E-1,-1.214498851E0,2.709008580E0,2.977117773E0
9.798327750E0,1.177217735E0,2.399551123E0,1.682571387E-1,2.678058560E0
9.808296750E0,2.199855553E0,4.156699653E0,2.983804327E0,5.569614414E0
9.818266750E0,5.382690183E-1,-2.542471692E-1,2.156121011E0,2.236790775E0
9.828236750E0,1.643361567E0,1.244562310E-1,-2.562878475E0,3.047043267E0
9.838206750E0,4.292595231E-1,1.825405709E0,-2.901860862E0,3.455020435E0
9.848176750E0,-1.418472537E0,-1.619150732E0,-1.367951424E0,2.550491037E0
9.858146750E0,-2.706104560E-1,1.174695392E0,-3.957587342E0,4.137104888E0
9.868116750E0,-1.352905369E0,1.409388010E0,-2.702695926E0,3.334860232E0
9.878086750E0,-1.693052375E0,2.811186334E-1,2.185681025E0,2.778966638E0
9.888056750E0,-1.024283371E0,4.463182631E-1,2.565321441E0,2.798076216E0
9.898025750E0,7.843381986E-3,1.438082636E0,6.967641574E-1,1.598006095E0
9.907995750E0,2.973150407E0,3.871118132E0,-2.850436354E0,5.652447819E0
9.917965750E0,1.277532713E0,5.422970921E-2,1.784552675E0,2.195372165E0
9.927935750E0,-2.273448609E-2,-8.888165402E-1,-4.358548461E0,4.448309385E0
9.937905750E0,2.443105279E0,8.378580558E-1,1.522740086E0,2.998250639E0
9.947875750E0,-1.834634662E0,-1.147802001E0,1.047787131E0,2.404410874E0
9.957845750E0,7.427137707E-1,2.078080855E0,4.656705004E-1,2.255414108E0
9.967815750E0,1.193194228E0,7.059343457E-1,2.296622586E0,2.682635098E0
9.977784750E0,-6.859278050E-1,2.632843333E-1,1.060999500E0,1.290556288E0
9.987754750E0,-4.358646110E-2,-1.806058150E0,-2.415301183E0,3.016193898E0
9.997724750E0,-1.925846987E0,-3.361216369E-1,-1.184131336E0,2.285614008E0
1.000769475E1,-2.266626078E0,-9.479570335E-1,8.937878430E-2,2.458496467E0
1.001766475E1,-1.608268187E0,-4.535232022E-1,-4.338563848E-1,1.726395441E0
1.002763475E1,-8.000267167E-1,2.452556133E-2,1.368098774E0,1.585035806E0
1.003760475E1,-7.954288318E-1,-2.417842676E0,4.978416470E0,5.591359475E0
1.004757475E1,-1.577559487E0,-8.062921545E-1,-3.750778341E-1,1.810934664E0
1.005754475E1,1.019995754E0,1.060415947E0,-1.229955381E0,1.917723535E0
1.006751375E1,5.276647273E-1,-1.044536372E0,1.871010191E0,2.206845131E0
1.007748375E1,4.149210539E-1,-4.822166589E0,9.857066578E-1,4.939338793E0
1.008745375E1,7.103875121E-1,-7.654934996E-1,-3.276304858E0,3.438721308E0
1.009742375E1,1.382224039E0,-5.148599097E-1,2.597015104E0,2.986655566E0
1.010739375E1,1.418831848E0,-2.478953388E-1,1.885972631E-1,1.452619992E0
1.011736375E1,2.629032411E-2,1.251575753E0,-1.088621746E0,1.658984736E0
1.012733375E1,1.361829097E0,-1.879937720E0,-2.366426647E-1,2.333397538E0
1.013730375E1,1.199366841E0,-3.262932860E0,5.744229228E0,6.714266981E0
1.014727275E1,-2.204953448E0,8.049443713E-1,1.370516598E0,2.718100604E0
1.015724275E1,-1.767634342E0,8.461675340E-1,4.207217842E-1,2.004379575E0
1.016721275E1,5.481367794E-1,1.782022878E0,-9.535405397E-1,2.094110557E0
1.017718275E1,-2.394988102E-1,8.971801051E-1,-4.385711117E0,4.482940310E0
1.018715275E1,5.280225769E-2,8.107945105E-1,-2.593311478E0,2.717616647E0
1.019712275E1,-5.875992724E-1,-8.825518334E-1,-6.034232998E0,6.126674344E0
1.020709275E1,1.486870927E0,-2.769675196E0,-2.170515102E0,3.820081367E0
1.021706275E1,1.080410867E0,-2.153720729E0,1.434843571E0,2.804385261E0
1.022703275E1,-8.614894317E-1,6.458477730E-1,4.030679292E0,4.172008982E0
1.023700175E1,-9.536685938E-1,-5.669045144E-1,4.495601349E0,4.630474706E0
1.024697175E1,2.051410096E-1,-2.428860292E-1,9.263767147E-1,9.794132297E-1
1.025694175E1,-8.894448236E-2,3.254232788E0,6.413290447E-1,3.318018249E0
1.026691175E1,1.381808740E0,3.198304170E-1,-1.691532245E0,2.207480063E0
1.027688175E1,1.360126680E0,7.092321754E-2,-4.250820529E-1,1.426768881E0
1.028685175E1,6.936167474E-1,1.412325651E0,-2.082374758E-1,1.587176986E0
1.029682175E1,2.099365597E0,9.642362666E-1,-2.045452514E0,3.085605852E0
1.030679175E1,1.831885740E0,4.714840946E-1,1.030418562E0,2.154034593E0
1.031676075E1,1.544960968E0,1.598060118E0,6.058194888E-1,2.303848472E0
1.032673075E1,1.738466968E0,2.800319284E0,-1.603117082E0,3.665247587E0
1.033670075E1,-7.505024812E-1,-3.842519985E0,3.887979748E0,5.517662579E0
1.034667075E1,-2.100931920E0,-2.988792586E-1,-1.498954198E0,2.598096886E0
1.035664075E1,4.759353606E-1,5.108731027E0,-1.697520964E0,5.404370878E0
1.036661075E1,-1.118838841E0,-1.182657838E-2,-2.229625189E-1,1.140899866E0
1.037658075E1,-7.069715687E-1,-4.999157714E0,1.188709121E0,5.186946695E0
1.038655075E1,8.225898063E-1,9.498380828E-1,2.344691961E0,2.660155403E0
1.039652075E1,6.489115678E-2,3.937672895E-1,1.175290346E-3,3.990800945E-1
1.040648975E1,2.374645932E0,-1.569688550E0,3.660345304E-1,2.869990718E0
1.041645975E1,3.481305023E-1,-2.525518860E0,7.040123659E-1,2.644820177E0
1.042642975E1,-5.580112649E-1,-1.991190938E0,-7.103729671E-1,2.186514961E0
1.043639975E1,2.170978201E0,1.347352560E0,-1.720687632E0,3.080466068E0
1.044636975E1,1.315348703E0,1.415026188E-2,1.582985703E0,2.058199742E0
1.045633975E1,-1.584287732E-1,1.481380099E0,-1.865590407E0,2.387470259E0
1.046630975E1,4.089764091E-1,-3.445150226E-2,-1.364593368E0,1.424978480E0
1.047627975E1,-1.012611963E0,-3.543157454E0,1.419171864E0,3.948847492E0
1.048624975E1,-7.403778812E-1,-2.382364695E0,3.723787594E0,4.482233259E0
1.049621875E1,6.911053683E-1,2.162256494E-1,2.700994971E0,2.796382305E0
1.050618875E1,1.628663567E0,1.480748599E0,-4.255106539E-1,2.241923448E0
1.051615875E1,1.902872692E0,4.512571138E-1,-2.990605808E0,3.573273088E0
1.052612875E1,2.187253487E0,-3.909134682E0,3.246791621E0,5.532365463E0
1.053609875E1,2.948292432E0,8.660755491E-1,-3.972581357E0,5.022341860E0
1.054606875E1,7.388072459E-1,5.502215311E-1,-2.912634357E0,3.054835311E0
1.055603875E1,5.508289106E-2,-2.972897515E0,-1.556121256E0,3.355989738E0
1.056600875E1,-7.071659886E-1,-1.965491840E0,-8.833996797E-1,2.267958753E0
1.057597775E1,9.033522798E-1,-3.611152679E-1,1.984422201E-1,9.928891644E-1
1.058594775E1,-7.276520741E-1,-1.577298409E0,4.088099535E0,4.441835839E0
1.059591775E1,-1.551996337E0,-1.003124928E0,4.064051106E0,4.464466782E0
1.060588775E1,-3.476317713E-1,2.597596318E0,3.834634430E0,4.644650223E0
1.061585775E1,-2.636904225E0,1.312392643E0,4.090875208E0,5.040922366E0
1.062582725E1,9.665631661E-1,4.531669314E0,-2.178993564E0,5.120379290E0
1.063579725E1,2.571573869E0,3.599091919E0,-5.427691378E0,7.001877498E0
1.064576725E1,2.636403557E-2,-1.834248746E0,-5.733664479E0,6.019972747E0
1.065573725E1,-4.529948332E-1,8.843133071E-1,-3.437519610E0,3.578233560E0
1.066570625E1,-8.598601782E-1,-1.120083860E0,1.052908123E-2,1.412111270E0
1.067567625E1,-2.821796984E0,-3.725769800E-1,5.278868045E0,5.997316039E0
1.068564625E1,-5.870775181E-1,2.456759697E0,3.025641739E-1,2.543987677E0
1.069561625E1,6.616034610E-1,2.814749920E0,5.383777034E-1,2.941153992E0
1.070558625E1,-9.959029593E-1,2.949160159E-1,-6.853579938E-2,1.040910811E0
1.071555625E1,2.789482201E-1,6.956841767E-2,-2.033562786E0,2.053784185E0
1.072552625E1,-3.343815055E0,6.249635652E-1,-9.689976543E-1,3.537037608E0
1.073549625E1,-1.011674873E0,1.972574865E0,9.306714946E-1,2.404305945E0
1.074546525E1,1.846403792E-1,-7.283525705E-2,-9.639550155E-1,9.841779901E-1
1.075543525E1,-5.575039093E-1,-8.529140514E-1,-1.661094564E0,1.948719615E0
1.076540525E1,-1.119472095E-1,-1.615201815E0,-3.105536925E0,3.502251943E0
1.077537525E1,-1.942767952E0,-2.447947066E0,2.620431449E0,4.078413065E0
1.078534525E1,-7.794186437E-1,-1.163732447E0,4.555699616E0,4.766147881E0
1.079531525E1,-1.298095616E0,-4.897969893E-1,2.905838138E-1,1.417530342E0
1.080528525E1,-2.816337731E0,1.075042465E0,2.337120402E-1,3.023589892E0
1.081525525E1,-3.088827336E0,1.566068539E0,-1.863894714E0,3.932877889E0
1.082522525E1,-7.057217994E-1,1.773233343E0,-3.018906332E0,3.571581609E0
1.083519425E1,-3.102456977E-1,-6.120189992E-1,6.464973986E-2,6.892018842E-1
1.084516425E1,-1.351632430E0,-2.543124534E0,2.837618673E-1,2.893944266E0
1.085513425E1,-3.365691682E-1,-4.840061992E-1,1.383445376E-1,6.055410944E-1
1.086510425E1,-1.499435716E0,-1.902239585E0,2.043029428E0,3.168720901E0
1.087507425E1,-3.085494204E-1,-3.126941827E0,4.567939593E0,5.544279940E0
1.088504425E1,9.042472693E-1,1.650151500E-1,-3.840082866E-1,9.961704111E-1
1.089501425E1,1.817871280E0,4.443428105E0,-2.376970346E0,5.357116514E0
1.090498425E1,1.351005316E0,1.970682706E0,-3.325967014E0,4.095224325E0
1.091495325E1,3.831921980E-1,-5.278230699E0,-1.209234602E0,5.428517652E0
1.092492325E1,-5.555362847E-1,-3.647480552E0,-7.264264977E-1,3.760376364E0
1.093489325E1,-1.191748248E-1,-2.306674827E0,5.605262547E0,6.062501102E0
1.094486325E1,-1.826448560E0,2.096687280E0,5.098712407E0,5.807657024E0
1.095483325E1,6.367683627E-1,2.828545256E0,8.818256092E-1,3.030471682E0
1.096480325E1,4.814161385E-1,-5.565619594E-1,-3.136513719E0,3.221682949E0
1.097477325E1,-3.722276454E-1,-3.262769431E0,-7.361141646E-1,3.365424467E0
1.098474325E1,2.144258216E-1,-3.563612477E0,3.870184332E-1,3.590974183E0
1.099471225E1,-8.730623871E-1,-2.197149754E-1,2.348920083E-1,9.304229456E-1
1.100468225E1,-3.270408379E-1,2.715780240E0,-2.821749330E-1,2.749916493E0
1.101465225E1,7.564558969E-1,1.611288566E0,-6.965711993E-1,1.911462216E0
1.102462225E1,1.763180810E0,-2.036576149E0,-3.497237223E-1,2.716386508E0
1.103459225E1,1.576715442E0,9.100936809E-1,-2.449921378E0,3.052280598E0
1.104456225E1,-7.228526795E-1,-1.804482618E0,1.406598596E0,2.399415163E0
1.105453225E1,9.687343834E-1,-1.605857087E0,2.017277706E0,2.754384257E0
1.106450225E1,6.793969037E-1,5.114874696E0,-2.753045715E0,5.848314631E0
1.107447225E1,1.152088741E0,3.734573953E0,-3.484703717E0,5.236173323E0
1.108444125E1,7.572583542E-1,-1.457396282E0,2.149962723E-2,1.642530478E0
1.109441125E1,-2.938644234E0,1.046645755E-1,3.980461065E0,4.948803380E0
1.110438125E1,-7.817667393E-1,2.842016948E0,3.183897800E0,4.338827581E0
1.111435125E1,-6.328146947E-1,3.066167329E0,-2.741220891E0,4.161265252E0
1.112432125E1,-1.372689131E0,-1.115566008E0,-2.255004444E0,2.865974182E0
1.113429125E1,-3.803424478E-1,7.955414638E-1,-5.201034003E-1,1.023745156E0
1.114426125E1,-1.974514825E-1,-6.080759293E-1,2.883436870E0,2.953464340E0
1.115423125E1,1.073304380E0,2.005280389E0,3.327872622E-1,2.298668983E0
1.116420025E1,-2.215869322E0,3.312348264E0,-1.781471193E-2,3.985228380E0
1.117417025E1,-1.531386949E0,-1.857638486E0,2.264875714E0,3.305393884E0
1.118414025E1,2.737232578E-1,-1.105105340E0,-6.506110902E0,6.604972468E0
1.119411025E1,2.978773382E-1,-2.071671137E0,-7.493347192E0,7.780154519E0
1.120408025E1,-1.419047976E-1,-6.394591051E0,3.480138795E0,7.281641142E0
1.121405025E1,-8.059549163E-1,-3.494047860E0,8.571984233E0,9.291762344E0
1.122402025E1,1.993894690E0,6.162891623E0,2.322750869E0,6.881280462E0
1.123399025E1,-1.098209353E0,1.928341263E0,-4.018276763E-1,2.255222670E0
1.124395925E1,-3.115759612E0,-4.406361728E0,4.019159693E-1,5.411609565E0
1.125392925E1,-1.270213168E0,-2.056250860E0,5.169464886E-1,2.471607324E0
1.126389925E1,-4.684308978E-1,2.410904370E0,1.111655098E0,2.695860613E0
1.127386925E1,7.954310976E-2,2.830630958E0,-1.006323355E-1,2.833535882E0
1.128383925E1,-2.429510941E0,-1.569681826E0,2.030102404E0,3.533799685E0
1.129380925E1,6.494640566E-1,-1.567007602E0,-3.843314037E0,4.200997402E0
1.130377925E1,1.058080716E-1,-1.291171928E0,-2.085262697E0,2.454921753E0
1.131374925E1,1.388528215E0,2.012646419E0,8.634197438E-1,2.593115860E0
1.132371925E1,1.146202495E0,4.331488717E0,-3.105681936E0,5.451681846E0
1.133368825E1,-2.230702904E-1,-1.543637450E0,-1.000477894E0,1.852979479E0
1.134365825E1,1.091404875E0,-5.209116025E0,3.252833549E0,6.237546029E0
1.135362825E1,1.544922084E0,-3.415234994E0,3.093025053E0,4.859775538E0
1.136359825E1,3.645586201E-1,2.750969954E0,-1.193770471E0,3.020898312E0
1.137356825E1,-3.298456742E-1,4.035455590E0,-2.437879037E0,4.726198704E0
1.138353825E1,-2.472160093E0,-2.270752458E0,2.266831607E0,4.050483648E0
1.139350825E1,1.375531901E-2,-2.716267021E0,2.486080559E0,3.682240118E0
1.140347825E1,1.737323253E0,-4.487441852E0,6.703692412E-1,4.858479328E0
1.141344725E1,-1.628510590E-1,-8.264635867E-1,4.800914884E-1,9.695619448E-1
1.142341725E1,1.923281960E0,2.812188840E0,-1.821272605E0,3.863218020E0
1.143338725E1,2.620596925E0,2.525916470E0,-1.133534794E0,3.812175677E0
1.144335725E1,2.348695258E0,1.133297982E0,9.350621688E-1,2.770392570E0
1.145332725E1,4.223418284E-2,1.148655402E0,-1.938218672E0,2.253416202E0
1.146329725E1,7.599802331E-1,1.590104981E0,-2.649385691E0,3.182019539E0
1.147326725E1,-1.489810030E0,7.134181970E-1,-4.078964429E0,4.400732924E0
1.148323725E1,-2.330816665E0,2.087468852E0,-2.440961105E0,3.968440959E0
1.149320625E1,-3.507633207E-1,-2.291394298E0,1.657644122E0,2.849790654E0
1.150317625E1,-8.950037715E-1,-2.179354045E0,2.309834370E0,3.299386401E0
1.151314625E1,3.112950536E-1,3.327243754E0,3.982125767E0,5.198536451E0
1.152311625E1,1.646348617E-1,-2.385886180E-1,4.617726295E0,4.626815892E0
1.153308625E1,-4.483947556E-1,1.396596934E0,7.140602213E-1,1.631386788E0
1.154305625E1,1.596099839E0,3.543537816E0,3.978094697E-2,3.886615169E0
1.155302625E1,2.799298945E0,1.655371894E0,-8.132278293E0,8.758440554E0
1.156299625E1,2.763459021E0,-1.934522355E0,-4.104859993E0,5.313093079E0
1.157296525E1,-1.684782804E0,-2.592942519E0,4.752108175E0,5.669601053E0
1.158293525E1,-2.232434192E0,-1.093032593E0,3.207968448E0,4.058268625E0
1.159290525E1,-2.178227798E-1,-9.964848304E-1,1.723443425E0,2.002669723E0
1.160287525E1,2.348695111E0,4.898738509E0,-2.844074584E0,6.132109584E0
1.161284525E1,-1.688447839E0,-3.466800419E0,3.732023982E0,5.366336204E0
1.162281562E1,-2.108414455E0,-2.690779008E0,-1.308723223E0,3.660390643E0
1.163278562E1,-5.581900069E-1,3.648637716E0,-3.598471822E0,5.154913455E0
1.164275563E1,9.950107473E-1,-1.540154556E0,5.091287613E-2,1.834315830E0
1.165272463E1,-3.312345048E0,-1.946627261E0,6.298673326E-1,3.893291701E0
1.166269462E1,-1.363616737E0,-1.352144061E0,4.985400385E-1,1.984007646E0
1.167266462E1,-1.873966543E0,-9.981357917E-1,2.203792191E-1,2.134617686E0
1.168263463E1,-2.245798588E-2,2.042925640E0,-3.333364327E0,3.909650530E0
1.169260463E1,-1.898348994E-1,-2.774152409E0,-1.484830248E0,3.152249950E0
1.170257462E1,-1.616463498E-1,-7.355113167E0,3.912997060E0,8.332788563E0
1.171254462E1,-2.864184035E-1,-9.774246615E-1,3.271009035E0,3.425915144E0
1.172251462E1,-3.653073195E-1,5.762089548E0,3.571845941E0,6.789197951E0
1.173248363E1,1.748483833E0,3.543261827E0,1.688012221E0,4.296659790E0
1.174245363E1,4.997957280E-1,-1.312997830E0,-1.906493434E0,2.368222178E0
1.175242362E1,1.173130239E0,-1.802764706E0,-6.021051620E0,6.393688900E0
1.176239362E1,-3.519773123E-1,-2.052396375E0,-4.275731422E0,4.755848831E0
1.177236363E1,-2.450178802E0,-3.795031531E0,-2.676971101E0,5.250887045E0
1.178233363E1,-2.911234752E-1,-4.241555324E0,2.491128461E0,4.927602404E0
1.179230362E1,8.248937555E-1,2.335525866E0,4.451187068E0,5.093937288E0
1.180227362E1,7.501382728E-1,2.597793076E0,4.309322507E0,5.087386044E0
1.181224362E1,1.806122908E0,2.891290265E0,6.109739263E0,6.996467196E0
1.182221263E1,-1.133940299E-1,1.796881237E0,-1.337842941E-3,1.800456102E0
1.183218263E1,2.443785456E0,-2.302741697E0,-4.029298764E0,5.244993347E0
1.184215262E1,1.120777047E0,-2.933165685E0,-2.966184912E0,4.319473933E0
1.185212262E1,8.112662347E-1,4.960472535E0,-3.420818793E0,6.080003444E0
1.186209263E1,8.889076106E-1,4.234690108E0,-4.329621116E0,6.121141728E0
1.187206263E1,7.847572978E-1,-1.190940419E0,2.683748608E0,3.039192276E0
1.188203262E1,1.693816752E0,1.378081141E0,6.376938307E0,6.740435075E0
1.189200262E1,-1.469135152E0,3.124823673E0,2.704271750E0,4.385882669E0
1.190197162E1,-3.250622425E0,1.635382603E0,-8.259502012E-1,3.731382604E0
1.191194163E1,5.119937508E-1,-2.148872218E-1,-3.459582909E0,3.503859018E0
1.192191163E1,1.496593531E0,1.067744848E0,-9.737011546E-1,2.080376214E0
1.193188162E1,6.441918415E-1,1.053709483E0,-7.439178586E-2,1.237263489E0
1.194185162E1,4.979248748E-1,2.695301829E0,-7.567466497E-2,2.741953279E0
1.195182162E1,-1.390430314E0,-3.057723073E0,-2.224519985E0,4.028828119E0
1.196179163E1,-3.302648465E-1,-5.820366992E0,-2.599975550E0,6.383229563E0
1.197176162E1,1.099059830E-1,-4.825755902E0,-2.238911152E0,5.320970071E0
1.198173062E1,-1.411171776E-1,-5.817014784E-2,-4.000401825E-1,4.281704935E-1
1.199170062E1,-1.060088430E0,-6.638621673E-1,4.871866168E0,5.029868827E0
1.200167063E1,-1.487292219E0,-3.608446295E0,4.361943355E0,5.853159201E0
1.201164063E1,-6.253928970E-1,2.919915017E0,1.781792205E0,3.477327055E0
1.202161062E1,8.783160373E-1,1.256994952E0,2.121470411E0,2.617653926E0
1.203158062E1,-3.875866949E0,-1.375241733E-1,1.138632982E0,4.041997349E0
1.204155062E1,-1.009140982E0,-2.974440596E-1,-3.381483988E0,3.541365902E0
1.205152063E1,2.563640952E0,-2.290989963E0,-1.887346142E0,3.922112365E0
1.206148963E1,1.146027444E0,-3.481519908E-2,-9.962053335E-1,1.518886456E0
1.207145962E1,-1.459473505E0,-1.177690921E0,-3.268166118E0,3.768013879E0
1.208142962E1,-1.117735033E0,-1.100931012E0,-1.954689694E0,2.506430230E0
1.209139963E1,-9.518629005E-1,3.709359589E-1,3.066993248E-1,1.066630650E0
1.210136963E1,-1.773858557E0,3.192527121E-1,5.071935668E0,5.382659927E0
1.211133962E1,-9.403179386E-1,2.119865642E0,5.624265997E0,6.083617031E0
1.212130962E1,1.193327910E0,3.442287430E0,5.652602774E-1,3.686854137E0
1.213127962E1,5.077993237E-1,-5.130738777E-1,9.629007626E-1,1.203446233E0
1.214124863E1,-4.926326696E-1,-5.356800905E0,5.821938139E-1,5.410818101E0
1.215121863E1,1.041635860E0,-1.092006115E0,-4.181207673E0,4.445219930E0
1.216118862E1,1.034991084E0,1.948471765E0,-3.073748537E0,3.783606590E0
1.217115862E1,1.660134451E0,-5.707429191E-1,-6.050400549E-1,1.856843382E0
1.218112863E1,9.095694780E-1,-2.537894199E0,-2.292932993E-1,2.705697511E0
1.219109863E1,-9.934155538E-1,-2.008557753E0,1.194746956E0,2.539409183E0
1.220106862E1,-1.741223492E0,1.721083781E0,3.587733411E0,4.343480132E0
1.221103862E1,5.629349128E-1,4.907182766E0,-3.338375391E0,5.961718600E0
1.222100762E1,-5.423011120E-1,2.059041736E0,1.431675550E0,2.565821164E0
1.223097763E1,2.055548828E-1,1.651829359E0,2.037201508E0,2.630776126E0
1.224094763E1,2.536805375E-1,1.816551563E-1,1.517042559E-1,3.469388882E-1
1.225091762E1,6.095338594E-2,3.954832719E0,-2.738166890E0,4.810610675E0
1.226088762E1,-1.629980214E0,3.796448604E0,1.452440182E0,4.379433751E0
1.227085763E1,-1.558668888E0,-1.547226471E0,4.563307428E-1,2.243121977E0
1.228082763E1,1.194696305E0,-8.305706710E-2,-4.023973705E0,4.198399947E0
1.229079663E1,-4.112818200E-2,1.379955173E0,-5.437288413E0,5.609819346E0
1.230076662E1,1.066390705E-1,-9.639348426E-1,-2.769559422E0,2.934450828E0
1.231073662E1,8.196824245E-1,-6.802416801E-2,-1.131909853E0,1.399187793E0
1.232070663E1,-1.108849970E0,-2.071250430E0,1.919092430E0,3.033569243E0
1.233067663E1,-1.386843339E-1,-4.113906513E0,3.299974971E0,5.275726960E0
1.234064662E1,1.142301671E0,-5.489845526E-1,5.769961070E0,5.907511142E0
1.235061662E1,2.124060874E0,3.007981394E0,-1.293990578E0,3.903075490E0
1.236058662E1,1.147812233E0,-1.456040020E0,1.069492580E0,2.140406467E0
1.237055563E1,-7.316683073E-1,-3.214252451E0,2.001601321E0,3.856574280E0
1.238052563E1,-5.004591677E-1,-1.702990157E0,1.834174486E0,2.552416678E0
1.239049562E1,-1.476537435E0,1.390729253E0,-8.255543447E-1,2.189938498E0
1.240046562E1,-1.360505287E0,1.156875125E0,-1.895219418E0,2.604072068E0
1.241043563E1,-9.373161243E-1,-5.981380016E-1,1.471084029E0,1.844022453E0
1.242040563E1,2.379327066E-2,2.086044762E0,-4.247992816E0,4.732609411E0
1.243037562E1,-1.506247722E0,-2.260644961E0,-2.999438612E0,4.046718402E0
1.244034562E1,-2.833471535E0,-2.623645956E0,-9.050641984E-1,3.966260234E0
1.245031462E1,-1.522751050E0,-1.170630115E-1,1.729775375E0,2.307508907E0
1.246028463E1,-2.918153470E-1,-4.491421759E-2,2.683346320E0,2.699540879E0
1.247025463E1,-6.400739399E-1,7.661021948E-1,2.121582093E0,2.344721262E0
1.248022462E1,-8.306962399E-1,-5.112480846E-1,2.119212801E0,2.332915288E0
1.249019462E1,-1.901748857E0,-1.090954493E0,2.664776732E0,3.450777515E0
1.250016463E1,-4.235443814E-1,-3.506864664E-1,1.716528507E0,1.802454149E0
1.251013463E1,-3.151869969E-1,2.075249341E0,2.516208338E0,3.276783037E0
1.252010462E1,2.536584277E-2,-1.804720892E0,-2.613973199E0,3.176557383E0
1.253007362E1,9.380048532E-2,-1.540504512E-1,-3.255346098E0,3.260338677E0
1.254004362E1,-1.558013707E0,-5.263444260E-1,-3.228197476E0,3.622941361E0
1.255001363E1,4.181210523E-1,3.852490658E-1,-3.964989917E0,4.005544545E0
1.255998363E1,-9.219800471E-1,-1.598757398E-1,-2.472442514E0,2.643592148E0
1.256995362E1,3.332224778E-1,-1.035728126E0,2.576487869E-1,1.118102351E0
1.257992362E1,-2.086456845E-1,-2.906043375E0,5.527385820E0,6.248248965E0
1.258989363E1,6.348592468E-1,-2.582106751E0,3.315660127E0,4.250167481E0
1.259986363E1,3.864909851E0,2.307842224E0,2.004451838E0,4.927625296E0
1.260983263E1,1.480809118E0,3.692084575E0,4.555911870E0,6.048191227E0
1.261980262E1,1.175326014E0,1.802318563E0,-2.752436435E-1,2.169217026E0
1.262977292E1,-9.250779019E-1,1.530181838E0,-9.624228696E0,9.788922493E0
1.263974292E1,3.116999221E0,-1.259259287E-1,-4.219944307E0,5.247806346E0
1.264971292E1,-2.212501911E0,-1.631696518E0,-1.488596440E0,3.126262560E0
1.265968292E1,-1.525337712E0,1.463693441E0,1.441389529E0,2.558643664E0
1.266965292E1,8.889063681E-1,4.180820295E0,1.206867650E0,4.441389692E0
1.267962192E1,4.603319194E-2,2.576227376E0,1.606986769E0,3.036687838E0
1.268959192E1,6.806143671E-1,4.107990593E-1,-7.242700446E-1,1.075434276E0
1.269956192E1,1.544611012E0,-5.350895217E-1,1.380721158E0,2.139751128E0
1.270953192E1,3.501295557E-1,2.722773510E-1,6.866853118E-2,4.488218230E-1
1.271950192E1,-1.449351683E0,5.156139082E-1,2.277138494E0,2.748060721E0
1.272947192E1,9.096099700E-1,1.317059013E-1,1.398344082E0,1.673350804E0
1.273944192E1,3.483255069E-1,-8.436190251E-1,-4.018057492E0,4.120413781E0
1.274941192E1,-8.133446275E-1,-2.139748807E0,1.521091172E0,2.748412777E0
1.275938092E1,-2.383937888E0,-3.940774258E0,4.727697219E0,6.600301705E0
1.276935092E1,-1.126202386E0,-2.068937856E-1,-2.971052134E-1,1.182965917E0
1.277932092E1,6.424058095E-2,9.487303278E-1,-3.179826969E-1,1.002661001E0
1.278929092E1,-1.416760326E0,2.229791835E-1,-1.631650910E0,2.172375250E0
1.279926092E1,1.114316678E-1,-3.050007087E0,1.952683514E0,3.623248978E0
1.280923092E1,6.514732330E-1,2.739985959E0,-5.776093045E0,6.426133464E0
1.281920092E1,2.749102426E-1,6.825840747E-1,-4.147259324E0,4.212037103E0
1.282917092E1,-2.584477724E-1,-4.254693433E0,3.867543145E0,5.755614775E0
1.283913992E1,1.007827259E0,-2.201069142E0,3.847861417E0,4.546037685E0
1.284910992E1,2.866670564E0,-4.706180050E0,3.713222845E0,6.644844218E0
1.285907992E1,8.217390364E-1,4.778464499E-1,2.641375591E0,2.807215219E0
1.286904992E1,1.724931541E-1,3.552120651E0,3.254437441E-1,3.571166286E0
1.287901992E1,-1.425817590E-1,2.214817408E0,-2.127373760E0,3.074323474E0
1.288898992E1,-1.543139779E-1,2.816896141E-2,-4.356483809E0,4.359306995E0
1.289895992E1,1.528125372E0,-2.024621809E0,-2.201699472E0,3.358830330E0
1.290892892E1,-5.598759785E-1,-1.504462860E0,-3.678933603E-1,1.646880424E0
1.291889892E1,6.523874451E-1,-1.277286545E0,1.487715265E0,2.066486633E0
1.292886892E1,5.542489836E-1,-1.049484578E0,6.476098899E0,6.583955252E0
1.293883892E1,9.157708157E-2,7.030721337E-1,2.105653108E0,2.221817229E0
1.294880892E1,1.681506902E0,1.003366418E0,-6.003114116E-1,2.048068217E0
1.295877892E1,1.577263618E0,-1.451535618E0,-2.954924929E0,3.650520169E0
1.296874892E1,2.039880849E0,2.668280384E-1,-3.243946366E0,3.841288730E0
1.297871892E1,5.549998392E-1,-2.058458768E0,1.692101179E0,2.721852995E0
1.298868792E1,-1.292238314E-1,9.493939868E-1,-2.540205896E-2,9.584847444E-1
1.299865792E1,-1.963287074E-1,3.433901353E0,-1.855864733E0,3.908255029E0
1.300862792E1,-1.995964751E0,-8.432024109E-1,-9.163212579E-1,2.352553982E0
1.301859792E1,-2.487882818E-1,-7.216744655E-1,-1.013022510E0,1.268433778E0
1.302856792E1,-9.701861009E-1,-6.888324094E-1,2.884808627E0,3.120556356E0
1.303853792E1,1.178652788E0,2.478551685E0,-1.467674518E0,3.112315751E0
1.304850792E1,1.117702362E0,6.661773723E0,-4.147604309E0,7.926607674E0
1.305847692E1,-1.575199112E0,2.641929907E-1,4.825928103E0,5.083368198E0
1.306844692E1,-2.074831849E0,-1.853573209E-1,5.181362216E0,5.584424675E0
1.307841692E1,2.225959570E0,3.030408682E0,9.813574988E-1,3.886043660E0
1.308838692E1,2.232663549E0,1.181067395E0,-4.623995095E0,5.268874391E0
1.309835692E1,1.871323309E0,-2.860615772E-1,-6.394110995E0,6.668458410E0
1.310832692E1,4.400401808E-1,-2.309482075E0,-1.155229719E0,2.619522575E0
1.311829692E1,-2.529513970E0,-1.879179043E0,-9.863165224E-1,3.301904766E0
1.312826692E1,-1.395663133E0,-2.037763426E0,2.096641379E0,3.239793270E0
1.313823592E1,8.062738819E-1,3.349962526E0,2.211921574E0,4.094499182E0
1.314820592E1,1.872961845E-1,6.185784057E-1,2.968553034E0,3.038095822E0
1.315817592E1,-2.305348240E0,-4.893524547E0,3.915389156E0,6.677685620E0
1.316814592E1,2.052689175E-1,-2.811286614E0,1.257045531E0,3.086362134E0
1.317811592E1,8.320674120E-1,2.895855771E0,-1.813104630E0,3.516484782E0
1.318808592E1,7.072999629E-1,4.900498813E-1,-3.675138760E0,3.774528716E0
1.319805592E1,-4.750654411E-1,-1.027925601E0,-9.514896873E0,9.582044705E0
1.320802492E1,4.490929862E-1,-3.174009282E0,-1.018111810E1,1.067385522E1
1.321799492E1,-6.093527419E-1,-6.566694489E0,3.446947660E0,7.441386661E0
1.322796492E1,-8.365226249E-1,-4.540340150E0,1.854779139E1,1.911373915E1
1.323793492E1,-2.145082052E0,2.966176433E0,1.035500026E1,1.098296909E1
1.324790492E1,2.263866777E0,3.663266573E0,-1.003545928E0,4.421732601E0
1.325787492E1,-1.985006045E0,-7.274406973E-1,3.383038763E0,3.989281920E0
1.326784492E1,-6.999858271E-1,1.665924072E0,1.821685418E0,2.565895737E0
1.327781492E1,2.111724710E0,-9.265252340E-1,-4.825084350E0,5.347828460E0
1.328778392E1,9.969665679E-1,1.071574189E0,-6.925812932E0,7.078778027E0
1.329775392E1,1.742063591E0,1.334776661E0,-1.042374364E0,2.429600503E0
1.330772392E1,-1.431038788E0,-2.927480437E0,3.875299476E0,5.063196594E0
1.331769392E1,-2.546327931E0,-3.219955825E0,-1.578452357E0,4.398114743E0
1.332766392E1,-9.461208616E-1,-3.738999125E-1,-4.334987106E0,4.452758587E0
1.333763392E1,-1.255192548E-1,2.840824409E0,-1.302135749E0,3.127554303E0
1.334760392E1,-3.579970574E-1,3.035092886E0,-3.076892000E0,4.336728617E0
1.335757292E1,-1.429530499E0,-2.227986507E0,-3.186292235E0,4.142455737E0
1.336754292E1,-1.718002152E0,-6.312949303E-1,-3.285234725E0,3.760695665E0
1.337751292E1,-5.467989730E-1,-1.461405425E0,-1.281175820E0,2.018936952E0
1.338748292E1,-8.391516792E-1,-6.267186069E-1,9.042568148E0,9.103020953E0
1.339745292E1,-2.179765835E0,-2.368201861E0,8.990123302E0,9.548930628E0
1.340742292E1,-2.468275788E0,1.069763599E0,-6.160977244E-1,2.759774615E0
1.341739292E1,2.002426655E0,4.222731090E0,-4.544199312E0,6.518505792E0
1.342736192E1,9.577828409E-1,2.867018473E0,-7.712477446E-2,3.023754475E0
1.343733192E1,4.018615536E-1,6.444359627E-1,-1.109974608E0,1.344929013E0
1.344730192E1,2.810958293E0,3.774069848E0,-2.218518988E0,5.202587456E0
1.345727192E1,1.624142793E0,5.119715606E0,3.624513566E-1,5.383372427E0
1.346724192E1,-3.946172408E0,1.085361924E0,2.792700947E0,4.954741745E0
1.347721192E1,-5.265299289E-1,-1.438584620E0,9.858972770E-1,1.821744470E0
1.348718192E1,-4.118491827E-1,-8.217463455E-1,-1.485088111E0,1.746531850E0
1.349715192E1,-2.050121370E0,8.355966452E-1,-3.074054931E0,3.788275743E0
1.350712092E1,-1.104180602E0,1.748716260E0,-3.624057484E0,4.172650957E0
1.351709092E1,-1.414210794E0,-5.167162253E0,1.077271131E0,5.464436934E0
1.352706092E1,-3.724992120E-1,-5.462636093E0,3.692056509E0,6.603819350E0
1.353703092E1,1.135562901E0,-1.425774832E0,1.264857996E0,2.218603778E0
1.354700092E1,2.196012178E0,-1.548828901E0,6.879991812E-1,2.773929221E0
1.355697092E1,1.140450004E0,-3.335674854E0,2.561693244E0,4.357708712E0
1.356694092E1,1.209584485E0,-2.703252581E0,4.017196198E0,4.990845062E0
1.357690992E1,-9.411611802E-1,-4.351234764E-2,2.383222774E0,2.562699452E0
1.358687992E1,1.194927124E-1,8.393262917E-1,-1.811359820E0,1.999942882E0
1.359684992E1,-1.345126233E0,9.165387744E-1,-2.374050831E0,2.878458834E0
1.360681992E1,6.977304098E-1,3.390706801E-1,-3.561624423E0,3.645128967E0
1.361678992E1,5.595184213E-1,-8.675309211E-1,-2.512945592E0,2.716719770E0
1.362675887E1,-5.138457102E-1,2.529197051E0,2.581384327E0,3.650263029E0
1.363672887E1,2.567480233E-1,1.807028203E0,1.855477062E0,2.602703518E0
1.364669787E1,2.062757788E0,-1.939974591E-1,-1.203389726E0,2.395986548E0
1.365666788E1,6.436403029E-1,-4.838194392E0,-1.283073826E0,5.046650003E0
1.366663788E1,2.045508355E0,-4.217747508E0,8.825056404E-1,4.769938645E0
1.367660787E1,5.822777580E-1,3.354856353E0,-9.186776859E-1,3.526765831E0
1.368657787E1,9.048249011E-1,2.660086096E0,-2.552637076E-1,2.821334028E0
1.369654788E1,6.384666865E-1,-1.785041210E0,-6.626824915E-2,1.896945786E0
1.370651788E1,6.394539888E-1,-2.930854865E0,-2.824957697E0,4.120582196E0
1.371648687E1,-2.916801302E-1,-1.872652089E0,2.292351195E0,2.974353232E0
1.372645687E1,8.793443432E-1,-8.168621662E-1,3.363570458E0,3.571290593E0
1.373642687E1,9.865027562E-1,2.735611072E0,-4.420956963E-1,2.941462941E0
1.374639688E1,-1.000944794E0,-6.579579413E-3,2.705930606E0,2.885133310E0
1.375636688E1,1.424804633E0,-9.085754514E-2,9.759154952E-1,1.729373988E0
1.376633687E1,-1.536070861E-1,1.644962389E0,-1.991037156E0,2.587223483E0
1.377630687E1,-3.957030103E-1,1.288965189E0,-4.926320702E0,5.107508962E0
1.378627688E1,-1.949951841E0,-1.646611011E0,-3.919344213E0,4.677060943E0
1.379624588E1,-1.040623269E0,-1.653006403E0,1.145861310E0,2.264580557E0
1.380621588E1,-3.764972092E-1,1.897236415E0,3.678863436E0,4.156355656E0
1.381618587E1,-1.309560544E0,2.234393009E0,3.705768814E0,4.521082109E0
1.382615587E1,9.947132702E-1,2.149804556E0,-1.969833398E-1,2.376955312E0
1.383612588E1,-3.143523069E0,1.728721706E0,-4.511261947E0,5.763826886E0
1.384609588E1,-2.394860195E0,-3.873420766E-1,-3.640336132E-1,2.453142823E0
1.385606587E1,-1.842410143E-1,-1.177963108E0,-1.495585032E0,1.912672587E0
1.386603487E1,-3.173926032E-1,-1.244462907E-2,1.700587243E0,1.729997083E0
1.387600487E1,2.667267061E0,3.363007664E0,-6.747376961E-1,4.345043738E0
1.388597488E1,1.239497159E-1,4.773529449E-1,6.091839767E-1,7.837949244E-1
1.389594488E1,-1.423058654E0,1.587937126E-1,-2.031763013E0,2.485633182E0
1.390591487E1,-6.499564652E-1,-3.465153551E0,4.221517208E0,5.500085461E0
1.391588487E1,3.054573762E0,2.798223057E-1,1.615577499E0,3.466815837E0
1.392585488E1,1.312387673E0,3.830899229E0,1.777849427E0,4.422544391E0
1.393582388E1,-2.009995583E0,4.977255213E-1,-6.861994082E-1,2.181440480E0
1.394579387E1,2.342139213E0,8.330466744E-1,-2.958201123E0,3.864005272E0
1.395576387E1,-2.415312293E0,2.066200482E0,-5.484421649E0,6.338911478E0
1.396573387E1,-7.242378849E-1,-1.577752738E0,-3.841587939E0,4.215640178E0
1.397570388E1,-4.634587911E-1,-2.593778086E-1,-2.555933737E0,2.610530246E0
1.398567388E1,8.837927587E-1,-3.234143802E0,1.179589804E0,3.554181745E0
1.399564387E1,-4.739363437E-1,-2.140964151E0,7.666834080E0,7.974251562E0
1.400561287E1,1.816758408E-1,8.039959529E-1,4.392913717E0,4.469575654E0
1.401558287E1,2.275712943E-1,2.152716762E-1,4.827794534E-1,5.755055075E-1
1.402555288E1,1.267172031E-1,2.976514311E0,2.037690336E-1,2.986170877E0
1.403552287E1,2.713021451E-1,1.649629051E0,-4.563423788E0,4.860012092E0
1.404549287E1,-6.887692595E-1,-2.177319799E0,-3.477088888E0,4.159960544E0
1.405546287E1,1.098444192E0,-5.789164495E0,-7.716219664E-2,5.892958442E0
1.406543288E1,-9.924495207E-1,-4.707991517E0,3.589081194E0,6.002636420E0
1.407540188E1,2.216254800E-1,-1.294429996E0,6.490713429E0,6.622237363E0
1.408537187E1,1.035323279E0,8.322075990E-1,3.351417021E0,3.605060308E0
1.409534187E1,-1.800767882E0,2.094947733E0,-8.433039186E0,8.873991260E0
1.410531187E1,9.448297964E-1,-1.864707185E0,-4.116289546E0,4.616673679E0
1.411528188E1,5.890568006E-1,-1.037838971E0,-4.585521585E0,4.738259792E0
1.412525187E1,-3.822041282E-1,-2.133510997E0,3.504952040E0,4.120999633E0
1.413522187E1,-6.821141779E-1,-2.637964033E0,1.004486628E1,1.040785629E1
1.414519087E1,-7.685733743E-1,1.634158196E0,5.493265563E0,5.782486021E0
1.415516088E1,-1.116061852E0,1.416490623E0,9.460713065E-1,2.036440684E0
1.416513088E1,1.291217097E0,2.604165957E0,-4.112522770E0,5.036046609E0
1.417510087E1,7.952682526E-1,-3.657059169E-1,-3.547755997E0,3.654143542E0
1.418507087E1,5.544821779E-1,2.108656238E0,-2.013120920E0,2.967581078E0
1.419504087E1,6.334582539E-1,3.507561360E0,-6.680975980E-1,3.626377042E0
1.420501088E1,3.774271357E-1,7.749461085E-1,-2.534027143E0,2.676618440E0
1.421497988E1,1.287937248E0,4.722502552E0,-3.803372877E0,6.198907803E0
1.422494987E1,1.275927506E0,1.029131882E0,-4.126425694E0,4.440100499E0
1.423491987E1,9.954976742E-1,-1.968101453E0,-1.066127508E0,2.449707495E0
1.424488988E1,5.470441907E-1,-2.930123963E0,4.320939755E0,5.249324161E0
1.425485988E1,3.696205547E-1,-2.964452089E0,5.912062443E0,6.623977497E0
1.426482987E1,6.771593204E-1,2.797681605E0,1.174020331E0,3.108679920E0
1.427479987E1,-1.456519053E0,-1.489386106E0,1.270787657E0,2.440209007E0
1.428476887E1,-9.556030720E-1,1.034365725E0,2.642210573E-1,1.432795328E0
1.429473888E1,2.695711134E-1,2.952069733E0,9.982898659E-1,3.127933335E0
1.430470888E1,-2.677193002E0,-2.598704073E0,8.643593913E-1,3.829848872E0
1.431467887E1,1.224958789E-2,-3.039308144E0,-1.944247152E0,3.607996817E0
1.432464887E1,4.695561579E-1,1.255819662E0,-3.091460922E0,3.369673077E0
1.433461888E1,7.581824335E-1,-1.229472108E0,5.062870145E-1,1.530610600E0
1.434458888E1,5.188281226E-1,-3.366826188E0,2.385034826E0,4.158496401E0
1.435455788E1,-8.206555474E-1,4.548139751E0,1.535563030E0,4.870010733E0
1.436452787E1,-3.156746181E-1,3.815666648E0,-4.015733224E-1,3.849704347E0
1.437449787E1,-3.727020373E-1,-2.255477776E0,-1.606862224E0,2.794296515E0
1.438446788E1,1.822812762E0,-1.027618038E0,-2.089159867E0,2.956896032E0
1.439443788E1,7.803683777E-1,-3.133176421E0,1.810242417E0,3.701722153E0
1.440440787E1,-8.669991899E-2,-2.113651514E-1,-2.780590779E-1,3.598735250E-1
1.441437787E1,1.314486969E0,4.672717604E-1,1.516150859E0,2.060323353E0
1.442434687E1,-4.440298091E-1,-2.119788459E0,1.454276208E0,2.608751593E0
1.443431688E1,6.539467514E-1,-2.657615940E0,4.493943663E0,5.261758117E0
1.444428688E1,-1.483882634E-1,-1.065966709E0,3.525218489E0,3.685847189E0
1.445425687E1,-2.382727222E-1,-7.895623934E-1,1.679746597E0,1.871291344E0
1.446422687E1,1.965626180E0,1.587170848E0,7.106939793E-2,2.527419324E0
1.447419688E1,6.701959444E-1,3.334701293E0,-6.346486593E0,7.200506051E0
1.448416688E1,-7.316237953E-1,-3.604577485E-1,-4.606418949E-1,9.366931844E-1
1.449413588E1,-2.034012437E-2,-2.895999028E0,2.267559586E0,3.678185771E0
1.450410587E1,-1.789304269E-1,-1.519598085E0,3.276349881E0,3.616028620E0
1.451407587E1,-3.750694653E-1,1.363164309E0,-1.048033299E0,1.759905631E0
1.452404588E1,-2.251174372E-2,-1.483605257E-1,2.195457569E0,2.200579824E0
1.453401588E1,9.319844138E-1,1.830526993E0,-7.639609444E-1,2.191588544E0
1.454398587E1,-1.857810394E0,-2.772299427E-1,-3.306425035E0,3.802730915E0
1.455395587E1,-1.265827756E0,4.216523686E-1,-2.145345762E0,2.526384584E0
1.456392487E1,-1.134029323E0,4.791010577E0,-6.648185964E0,8.272737241E0
1.457389488E1,6.918139777E-1,2.320070213E0,-7.512126110E0,7.892614970E0
1.458386488E1,-8.078644708E-1,-3.661172685E0,-6.102248980E0,7.162002028E0
1.459383487E1,2.395706433E0,-4.218188096E0,3.727218155E0,6.117571030E0
1.460380487E1,-6.576546170E-3,-1.741180953E-1,1.061392900E1,1.061535912E1
1.461377488E1,-4.735682761E0,7.827236069E0,4.119944640E0,1.003325767E1
1.462374488E1,1.346739188E0,4.048348116E0,2.122475547E0,4.765262989E0
1.463371475E1,8.783641306E-1,-2.055744491E0,-1.875834728E0,2.918281153E0
1.464368475E1,6.037388302E-1,2.251791984E-1,-1.887040917E0,1.994023488E0
1.465365475E1,-1.316055631E0,3.732920945E-1,-1.920861797E0,2.358189869E0
1.466362475E1,-1.414074554E0,2.563679543E-1,2.904703778E-1,1.466187032E0
1.467359475E1,1.416724512E0,-7.290747017E-1,4.412125914E0,4.691003447E0
1.468356475E1,-6.603091067E-1,-1.820451656E0,2.143474068E0,2.888690608E0
1.469353475E1,1.344331450E0,1.657059693E0,-8.349859035E-1,2.291347929E0
1.470350375E1,1.858527409E0,-9.350247467E-1,-1.426131220E0,2.522349235E0
1.471347375E1,-1.056555835E0,1.523455786E0,-3.358637747E0,3.836362246E0
1.472344375E1,-3.909857690E-1,2.995706919E-1,-6.746510988E0,6.764467679E0
1.473341375E1,-9.247936542E-1,-6.402318732E0,-3.321557044E0,7.271703352E0
1.474338375E1,4.148743493E-1,-3.511677507E0,1.102200150E-2,3.536116673E0
1.475335375E1,-1.529305632E-1,-5.603185031E-1,4.239530725E0,4.279131378E0
1.476332375E1,-5.831013018E-1,-3.565699933E0,6.324784067E0,7.284031620E0
1.477329275E1,-1.035157218E0,-1.901765960E0,6.004481780E0,6.382951173E0
1.478326275E1,8.195303969E-2,2.062278170E0,2.985121704E0,3.629140276E0
1.479323275E1,2.897319476E-1,-8.093177962E-1,1.420966959E-1,8.712814515E-1
1.480320275E1,-5.078182541E-2,-3.017192513E0,-3.189102407E0,4.390490134E0
1.481317275E1,-1.146512763E0,6.407621571E-1,-2.946117852E0,3.225628320E0
1.482314275E1,6.708459355E-1,2.921985516E0,-2.781319342E0,4.089470737E0
1.483311175E1,1.896263877E0,2.680691684E0,-3.984464069E0,5.163126815E0
1.484308175E1,1.576746140E0,-4.143559206E-1,-4.456761804E0,4.745581628E0
1.485305175E1,7.608412356E-1,-5.293520583E0,-1.506526342E0,5.556065259E0
1.486302175E1,1.269968608E0,-4.882789351E0,5.178309969E0,7.229754232E0
1.487299175E1,-1.700487256E-2,-2.186385907E0,7.375883061E0,7.693128325E0
1.488296175E1,-3.261608320E-1,2.283800227E0,6.008624532E0,6.436279448E0
1.489293175E1,-1.999513865E-2,3.651184471E0,-1.254713076E-1,3.653394435E0
1.490290075E1,3.116853041E0,9.436944133E-1,-6.389147294E-1,3.318666006E0
1.491287075E1,2.526098319E0,3.655386865E-3,2.714254117E-1,2.540641225E0
1.492284075E1,7.626853012E-1,-1.568661779E-2,-1.983839234E0,2.125453609E0
1.493281075E1,7.395788591E-1,3.900160083E-1,-1.944090446E0,2.116264879E0
1.494278075E1,6.355294839E-1,-1.298352309E0,-2.836965539E0,3.184021029E0
1.495275075E1,8.015526208E-1,2.125289520E0,-1.177162625E0,2.558330313E0
1.496272075E1,1.448501498E0,2.625733996E0,9.871713853E-1,3.157078230E0
1.497268975E1,1.374207799E0,5.677761004E0,-2.001238208E0,6.174979470E0
1.498265975E1,1.755422724E0,3.820265775E0,8.811970335E-1,4.295631239E0
1.499262975E1,1.594715072E0,5.443225676E-1,-1.369220270E0,2.171213339E0
1.500259975E1,-4.454128218E-1,1.015169023E0,-4.991686141E-1,1.215783711E0
1.501256975E1,5.202005372E-1,1.790551919E-1,1.212662240E0,1.331622720E0
1.502253975E1,3.278957739E-2,5.701883107E-1,6.764059067E-2,5.751218267E-1
1.503250975E1,2.318823733E0,-2.769863184E0,2.156825600E0,4.207253526E0
1.504247875E1,5.661464229E-1,2.179923856E0,-7.729071844E-1,2.381170995E0
1.505244875E1,8.419418974E-1,-2.979562756E-1,1.261842002E0,1.545926692E0
1.506241875E1,2.083680148E0,-5.784244063E-1,-3.713072571E0,4.296883251E0
1.507238875E1,1.173481802E0,-1.047013252E0,-4.194302512E0,4.479449727E0
1.508235875E1,6.254848444E-1,-1.409454376E0,6.775449443E-1,1.684298097E0
1.509232875E1,1.227017155E0,-8.799787661E-1,5.492382048E0,5.696156098E0
1.510229775E1,1.840923635E0,1.504841467E0,3.366388232E-1,2.401431525E0
1.511226775E1,1.017566309E0,-9.897698879E-1,-1.387064218E0,1.984699667E0
1.512223775E1,1.193697454E0,-2.219081198E0,-2.505311467E0,3.553283062E0
1.513220775E1,-1.452001348E0,-5.472420824E0,2.945893319E0,6.382318155E0
1.514217775E1,-6.909202308E-1,-3.355575560E0,6.564424015E0,7.404655343E0
1.515214775E1,1.363233013E-1,1.751661210E0,5.107203149E0,5.400965196E0
1.516211775E1,2.512699132E-1,2.185741836E0,2.933363321E0,3.666773011E0
1.517208675E1,-8.546746480E-1,5.087402138E-1,-2.906984192E0,3.072432660E0
1.518205675E1,-2.318893461E0,1.026600915E0,-7.422221661E-2,2.537062329E0
1.519202675E1,-8.215890554E-1,1.432096549E0,-8.975709915E-1,1.879239949E0
1.520199675E1,9.046837639E-1,-1.539862196E0,-3.336635259E0,3.784542660E0
1.521196675E1,1.134551771E0,-5.363132855E0,-3.480980210E0,6.493660367E0
1.522193675E1,1.100580691E0,-3.160374452E0,-2.257218200E-1,3.354131016E0
1.523190675E1,2.175704067E0,1.270317833E0,2.654804891E0,3.659970573E0
1.524187575E1,2.008968812E-1,9.055778763E-1,5.082526145E0,5.166478768E0
1.525184575E1,1.770275090E0,-1.930632787E0,6.157594045E0,6.691575396E0
1.526181575E1,1.624691992E0,2.029936928E-1,-3.948602511E0,4.274610192E0
1.527178575E1,2.161509220E0,6.609011373E-1,-1.228940889E0,2.572782177E0
1.528175575E1,1.004029639E0,-1.840601161E-1,-1.276722581E0,1.634617445E0
1.529172575E1,1.579531753E0,-1.076455737E0,6.205164653E-1,2.009656238E0
1.530169575E1,4.242741870E-1,2.898567125E-1,7.318842888E-2,5.190202748E-1
1.531166475E1,2.234503521E0,2.354984230E0,-6.172409136E0,6.974065618E0
1.532163475E1,9.041627770E-1,1.147171963E0,-3.489068078E0,3.782474044E0
1.533160475E1,2.791545537E-1,-2.456494233E-1,3.260588712E-1,4.945556505E-1
1.534157475E1,5.908139985E-1,-1.601806429E0,3.281334048E0,3.698918511E0
1.535154475E1,-1.052798487E-2,4.470492235E0,-2.659072773E0,5.201545893E0
1.536151475E1,7.981545114E-1,6.718979373E0,-2.816886200E0,7.329159727E0
1.537148375E1,-1.079623028E0,9.973399857E-1,-1.540379966E0,2.129094495E0
1.538145375E1,-2.288820939E0,-3.749705377E-1,6.048944592E-1,2.396914997E0
1.539142375E1,-9.211044265E-1,-3.676773933E0,3.096196582E0,4.894234690E0
1.540139375E1,-2.279229020E0,-8.267965856E-1,5.490474102E0,6.001981621E0
1.541136375E1,-2.280117504E0,2.709759655E0,2.870444942E0,4.558638764E0
1.542133375E1,1.381388910E0,2.359881566E0,-1.982428300E0,3.377469214E0
1.543130375E1,2.141848834E0,-1.722954305E0,-4.948503869E0,5.660722437E0
1.544127275E1,-5.890460929E-1,-3.907411800E0,1.082740032E0,4.097214694E0
1.545124275E1,-3.023848691E0,1.183379677E0,4.491339898E-1,3.278074085E0
1.546121275E1,-1.859739683E0,-4.537287319E-1,3.847879543E0,4.297752718E0
1.547118275E1,-1.476523401E0,-3.023786125E0,-2.910776111E0,4.449272014E0
1.548115275E1,1.183513212E0,7.275143722E-1,-3.390458879E0,3.664040406E0
1.549112275E1,6.420255943E-1,-1.943291424E0,1.600663590E0,2.598211376E0
1.550109275E1,3.189490224E-1,-2.763438264E0,6.465470415E0,7.038510297E0
1.551106175E1,2.184952462E0,-1.312069876E0,2.006752717E0,3.243855898E0
1.552103175E1,1.545822847E0,1.599246518E0,1.097297260E0,2.480165111E0
1.553100175E1,-1.471988301E-1,1.424520897E0,-1.259583807E-1,1.437634444E0
1.554097175E1,-1.002710142E0,-2.171179345E-1,-1.310814187E0,1.664572515E0
1.555094175E1,-8.236645246E-1,-3.880136293E-1,-3.326366379E0,3.448723114E0
1.556091175E1,-2.439515527E0,-1.542831119E0,-2.629052584E0,3.904290122E0
1.557088075E1,4.511466014E-1,9.373516461E-1,-1.430423076E0,1.768692043E0
1.558085075E1,-7.327496767E-2,-3.720466375E0,3.096864919E0,4.841261364E0
1.559082075E1,-1.503897726E0,-6.987203434E-1,-5.869119322E-1,1.759086156E0
1.560079075E1,5.238697381E-1,3.634610246E0,-2.630614960E0,4.517185651E0
1.561076075E1,1.062145115E0,1.563874371E0,-1.334428167E0,2.313990888E0
1.562073075E1,3.738155665E-1,1.127391417E0,1.693987491E0,2.068899008E0
1.563070038E1,7.012775501E-1,-1.843857183E0,7.368269402E-1,2.105828448E0
1.564066938E1,-1.612401291E0,-6.080893194E0,1.489027380E0,6.464851313E0
1.565063937E1,-1.571658916E0,-6.761003897E-1,6.372782106E0,6.598452490E0
1.566060937E1,1.640061399E0,3.612294348E0,3.214407402E-1,3.980175372E0
1.567057938E1,1.540069772E0,-1.731333950E0,1.669754291E-1,2.323190251E0
1.568054938E1,1.852358158E0,1.360445061E0,-2.452388903E0,3.360989860E0
1.569051937E1,1.681374901E-1,1.666593578E0,-4.674692209E0,4.965737772E0
1.570048937E1,5.175137416E-1,-5.326085481E-1,-5.789921710E0,5.837352632E0
1.571045837E1,-6.195768178E-1,-1.402776856E0,-3.361499375E0,3.694771493E0
1.572042838E1,5.349587633E-1,1.421086242E0,1.651422685E0,2.243404527E0
1.573039838E1,9.385713022E-1,5.141822759E0,4.450266132E0,6.864701451E0
1.574036837E1,2.769625495E0,3.473713875E-1,6.349516620E0,6.935982524E0
1.575033837E1,2.671781112E0,4.508492705E-1,-2.613596638E0,3.764646964E0
1.576030838E1,6.367476051E-1,1.829059635E0,-9.526732222E0,9.721601385E0
1.577027738E1,-6.721503762E-1,-3.037420078E0,5.084896606E-1,3.152184734E0
1.578024738E1,-3.639345029E-1,-5.624258396E-1,8.614826197E0,8.640833383E0
1.579021737E1,-7.545651267E-1,2.810633773E0,7.290440038E0,7.849811888E0
1.580018737E1,-2.497069817E0,2.477803533E0,-1.397815493E0,3.785334354E0
1.581015738E1,-1.773640017E0,3.527039312E0,-5.850870747E0,7.058221711E0
1.582012738E1,-2.406425841E0,-2.004453008E0,-2.523210964E0,4.021854144E0
1.583009737E1,3.907335348E-1,-1.609148485E0,-3.141597873E0,3.551291137E0
1.584006637E1,-1.650373694E-1,3.090066361E-1,-1.118222106E0,1.171811893E0
1.585003637E1,5.438341058E-1,-1.387322957E0,-2.318288859E0,2.755881666E0
1.586000638E1,1.588361780E0,-1.178372998E0,1.391602242E-1,1.982629979E0
1.586997638E1,1.709571198E0,-3.286385458E0,1.924012862E0,4.174300965E0
1.587994637E1,-5.939193816E-1,-6.626530216E0,4.477788391E0,8.019615440E0
1.588991637E1,1.213957618E0,2.556893557E0,3.882202114E0,4.804465737E0
1.589988638E1,3.011574069E-1,-1.072864962E0,8.800223279E0,8.870494054E0
1.590985538E1,-3.365922647E-1,2.852792197E-1,-1.293145655E0,1.366347054E0
1.591982538E1,3.545504527E-1,6.480644524E-2,-3.229572156E0,3.249621856E0
1.592979537E1,1.264244038E-1,-1.213390803E0,-6.870946169E-2,1.221892533E0
1.593976537E1,1.629749249E0,-1.801638240E-1,-4.986026621E0,5.248714422E0
1.594973538E1,-3.430929067E-1,-1.336147833E0,-5.903746533E-1,1.500515247E0
1.595970538E1,7.230696112E-2,8.840589532E-1,5.410165519E-1,1.038983849E0
1.596967438E1,1.138304441E0,-1.410626158E0,1.632585880E0,2.439454819E0
1.597964437E1,4.068224264E0,-2.670998170E0,-3.741183060E-1,4.881049517E0
1.598961437E1,2.871244841E0,1.075366985E0,-8.443847179E-2,3.067179640E0
1.599958438E1,1.387734601E0,1.326222770E0,1.089978885E0,2.207425679E0
1.600955438E1,3.218885785E0,4.047119031E0,5.936169344E-1,5.205072450E0
1.601952437E1,-2.598355725E-1,-1.340468633E0,2.289148090E0,2.665439863E0
1.602949437E1,1.952122182E0,-6.849468176E0,8.433099997E-1,7.171970933E0
1.603946337E1,2.139666361E0,-1.098762865E0,-1.033224640E0,2.617824503E0
1.604943338E1,2.893869472E0,2.979241744E0,4.719463170E-2,4.153623626E0
1.605940338E1,6.291550686E-1,-6.032557771E-1,1.350272368E0,1.607168037E0
1.606937337E1,1.227360971E0,5.864175501E-1,-5.591825645E0,5.754894833E0
1.607934337E1,8.897574303E-1,-1.076933747E0,-4.527994924E0,4.738585507E0
1.608931338E1,-6.507695936E-1,-1.830518515E0,1.070794755E-1,1.945704271E0
1.609928338E1,1.659166737E0,2.439632617E0,2.759602198E0,4.039807651E0
1.610925237E1,5.060001355E-1,5.146036263E0,3.869079208E-1,5.185308389E0
1.611922237E1,1.362687468E0,1.272854648E0,1.462382787E0,2.369734058E0
1.612919237E1,-3.925219788E-1,-1.650393867E0,4.293932050E-1,1.749929126E0
1.613916238E1,-1.208105213E0,7.540575153E-1,-3.292462469E0,3.587259406E0
1.614913238E1,3.383587816E0,-6.454302818E-1,-2.559328630E0,4.291317956E0
1.615910237E1,1.210375102E-1,2.631662196E-1,2.679141587E-1,3.945687956E-1
1.616907137E1,-1.230769313E0,5.068895701E-1,8.690371639E-1,1.589640126E0
1.617904137E1,1.233330393E0,3.235851773E0,-5.013145423E-1,3.499022268E0
1.618901138E1,9.097245023E-1,1.580267040E0,-1.548509935E0,2.392221898E0
1.619898137E1,-1.674858179E-1,-4.940914768E-1,-1.655776522E0,1.736022401E0
1.620895137E1,-2.526654243E-1,-2.152430248E0,2.983479806E0,3.687539497E0
1.621892137E1,2.263973781E0,-3.255700439E-2,3.243614244E-1,2.287323233E0
1.622889138E1,-2.374573865E0,-7.920079914E-1,2.884799856E-1,2.519741733E0
1.623886038E1,1.446409364E0,-6.016410685E-1,3.520000434E0,3.852852849E0
1.624883037E1,-3.065990451E-1,5.740588751E-1,4.703373971E0,4.748186315E0
1.625880037E1,5.621986753E-1,-2.003127444E-1,2.166672896E0,2.247368235E0
1.626877037E1,2.566933811E0,1.458503452E0,-2.382479593E0,3.793756782E0
1.627874038E1,6.331993684E-2,-8.333665171E-1,-3.384306439E0,3.485977516E0
1.628871038E1,-4.032160246E-1,-5.260379734E0,1.572485858E0,5.505169378E0
1.629867937E1,-1.998498203E0,-1.411820452E0,-3.253536969E-1,2.468417932E0
1.630864937E1,-1.479931451E0,-1.214858162E0,1.429825491E0,2.389660727E0
1.631861938E1,-2.751831248E0,3.326838250E0,-7.356510651E-1,4.379681546E0
1.632858938E1,7.675534737E-1,2.329528085E0,-1.735529035E0,3.004646479E0
1.633855937E1,-2.754003489E-1,-1.005367336E0,4.080087680E-1,1.119410553E0
1.634852937E1,-2.271437167E0,-3.970801173E0,6.648950779E-1,4.622637150E0
1.635849937E1,-3.220278738E-1,-5.158092052E-2,1.527104448E0,1.561541078E0
1.636846838E1,1.275564247E0,7.409138516E-1,2.198735518E0,2.647726452E0
1.637843838E1,1.906420929E0,-3.748395601E-1,-3.027336262E0,3.597180882E0
1.638840837E1,3.571709701E0,1.234898617E0,-3.850298536E0,5.395079573E0
1.639837837E1,1.865666713E0,-1.036285950E0,3.209811491E-1,2.158154247E0
1.640834838E1,-2.864434589E0,-4.037438381E0,7.833614212E0,9.266682568E0
1.641831838E1,2.597317405E0,3.542404041E-1,1.209815231E0,2.887074100E0
1.642828738E1,3.012152505E0,3.932945714E0,-4.274904041E0,6.543388210E0
