"Time (s)","Linear Acceleration x (m/s^2)","Linear Acceleration y (m/s^2)","Linear Acceleration z (m/s^2)","Absolute acceleration (m/s^2)"
7.946874946E-3,1.236675147E0,-4.213331106E-1,3.167658913E-1,1.344331670E0
1.791787497E-2,1.137218906E0,-7.414819086E-1,1.961384171E-1,1.371689666E0
2.788787498E-2,1.183042731E0,-6.601252118E-1,2.368519950E-1,1.375301518E0
3.785887500E-2,1.235615047E0,-1.272110005E0,1.391653697E0,2.254264497E0
4.782887496E-2,9.726648087E-1,-5.416270012E-1,8.849912918E-1,1.422197674E0
5.779987498E-2,1.283015647E0,-1.107673144E-1,6.390761125E-1,1.437642802E0
6.776987499E-2,1.177107222E0,-4.506712228E-1,-4.926261646E-1,1.353279905E0
7.773987495E-2,1.137042831E0,-4.447146642E-1,-4.639075649E-1,1.306081070E0
8.771075000E-2,1.788115969E0,-6.193628097E-1,-9.672171772E-2,1.894815056E0
9.768074995E-2,1.119720894E0,-3.237851813E-1,-8.289305270E-1,1.430292817E0
1.076517500E-1,7.226557745E-1,6.890095800E-2,-2.377571440E-1,7.638764101E-1
1.176217500E-1,8.392749824E-1,-1.899161026E-1,5.195350510E-1,1.005170280E0
1.275927500E-1,9.462072542E-1,-8.309419692E-2,8.571006578E-1,1.279388272E0
1.375627500E-1,5.547515883E-1,8.269877896E-1,6.300965434E-1,1.178422582E0
1.475337500E-1,7.407458903E-1,8.141452575E-1,1.435962728E0,1.809288792E0
1.575037500E-1,1.019972072E0,5.352088049E-1,1.318327859E0,1.750651261E0
1.674747500E-1,-8.263581175E-2,4.705584803E-1,-1.997660297E-1,5.178420873E-1
1.774447500E-1,3.524800633E-1,2.187937465E-1,-1.028049270E0,1.108601912E0
1.874157500E-1,9.844595198E-2,-6.790473863E-1,-8.275160855E-1,1.074978991E0
1.973857500E-1,8.253371206E-1,-4.560641098E-1,-1.732748099E0,1.972711791E0
2.073567500E-1,9.605304475E-1,-3.291368455E-2,-9.469255847E-1,1.349210923E0
2.173267500E-1,8.157472484E-1,4.819541189E-1,2.920233983E-1,9.914640745E-1
2.272977500E-1,1.231688934E0,1.328031606E0,7.027142841E-1,1.942815725E0
2.372677500E-1,6.271782712E-1,9.672139612E-1,1.197855921E0,1.662442251E0
2.472387500E-1,8.761198962E-1,-1.936682609E-1,7.130995238E-1,1.146125821E0
2.572087500E-1,2.865497466E-1,4.664280072E-1,-1.338708914E0,1.446308197E0
2.671797500E-1,2.848182399E-1,-8.663965613E-2,-1.879348320E0,1.902781640E0
2.771497500E-1,3.064985461E-1,-1.122659558E-1,-1.047757895E0,1.097424991E0
2.871207500E-1,-9.892187878E-2,-4.469047388E-1,3.585021472E-1,5.814062033E-1
2.970907500E-1,3.690005305E-1,-3.764291257E-1,9.763066739E-1,1.109520166E0
3.070617500E-1,4.251824789E-1,-1.181017694E-1,1.655997546E0,1.713784129E0
3.170317500E-1,9.853814064E-1,-1.348400089E-1,9.622692633E-1,1.383878780E0
3.270027500E-1,1.298609440E0,1.635767350E-1,8.462938339E-1,1.558639496E0
3.369727500E-1,1.135166460E0,5.222338334E-1,-1.850205213E-1,1.263156230E0
3.469437500E-1,1.246303611E0,1.177536262E0,-6.943954504E-1,1.849878207E0
3.569137500E-1,6.534430868E-1,4.537009576E-1,-3.689780188E-1,8.769134535E-1
3.668847500E-1,7.173112732E-1,7.315501204E-1,-1.270401741E0,1.632060545E0
3.768547500E-1,7.051883872E-1,4.333008993E-1,-1.279346811E0,1.523735080E0
3.868247500E-1,7.944817290E-1,-2.058436257E-1,-1.073802563E0,1.351526826E0
3.967957500E-1,8.840734982E-1,-3.886828431E-1,2.002963722E-2,9.659510801E-1
4.067657500E-1,7.226488309E-1,-5.480121607E-1,8.415529114E-1,1.237234805E0
4.167367500E-1,9.764215717E-1,5.858722973E-1,5.485775864E-1,1.263955222E0
4.267067499E-1,7.129138747E-1,5.475975931E-1,8.714134723E-1,1.251986724E0
4.366777500E-1,1.119495118E0,1.488628015E-1,1.243768843E0,1.679997139E0
4.466477500E-1,1.179690595E0,1.371645695E-1,1.176815300E0,1.671938477E0
4.566187500E-1,1.446576302E0,1.154149738E0,9.720376217E-1,2.090335321E0
4.665887500E-1,1.290909680E0,1.877042763E0,-7.780322689E-1,2.407295484E0
4.765597500E-1,9.912510607E-1,6.603085220E-1,-1.299722604E0,1.762913740E0
4.865297500E-1,1.191278826E0,-8.554008722E-1,-1.311290735E0,1.967317790E0
4.965007500E-1,1.301475453E0,2.033924729E-1,-1.127967076E0,1.734219299E0
5.064707500E-1,1.597054689E0,-1.632884672E-1,-1.229941932E0,2.022375820E0
5.164417500E-1,1.457534569E0,-3.088396981E-1,-3.136358768E-1,1.522549323E0
5.264117499E-1,1.360521952E0,-4.398538738E-1,6.580351245E-1,1.574008144E0
5.363827500E-1,1.311964773E0,-3.035450444E-1,1.008303807E0,1.682280514E0
5.463527500E-1,7.552294435E-1,-1.907224336E-1,1.491306624E0,1.682480908E0
5.563237500E-1,1.229206352E0,-1.506695911E-1,5.549925667E-1,1.357080075E0
5.662937500E-1,1.418505720E0,-4.882846069E-1,8.273810148E-1,1.713224935E0
5.762647500E-1,1.271581124E0,-1.176712389E0,5.089293712E-1,1.805707536E0
5.862347500E-1,1.326520247E0,-1.548026955E-1,1.949695587E-1,1.349678839E0
5.962057500E-1,1.205289632E0,-5.166324931E-1,1.134243477E0,1.733822510E0
6.061757500E-1,1.017402733E0,-6.502513111E-1,7.872357863E-1,1.441414330E0
6.161467500E-1,5.596035348E-1,-2.855066764E-1,-7.033089459E-2,6.321523655E-1
6.261167499E-1,9.167023502E-1,-2.557458106E-1,-4.700418788E-1,1.061455833E0
6.360877500E-1,1.286980644E0,2.200962138E-1,-1.233733267E-1,1.311481032E0
6.460577500E-1,1.503872291E0,9.691145986E-2,1.549231482E-1,1.514933952E0
6.560287500E-1,2.327103391E0,3.458800551E-1,3.554329437E-1,2.379364575E0
6.659987500E-1,1.633663521E0,6.083168346E-1,7.329660237E-1,1.891069820E0
6.759697500E-1,2.274027922E0,1.339190432E0,3.848111093E-1,2.666967115E0
6.859397500E-1,2.174974481E0,8.247839740E-1,7.348406410E-1,2.439420702E0
6.959107500E-1,1.947623626E0,-1.980612740E-1,6.132472068E-1,2.051472202E0
7.058807500E-1,1.677704165E0,-9.654016167E-2,-6.975283885E-1,1.819493644E0
7.158517500E-1,1.412991795E0,-1.798393035E-1,-4.431850326E-1,1.491744268E0
7.258217499E-1,1.938604296E0,-4.328682053E-1,-5.069138360E-1,2.050005643E0
7.357927500E-1,1.795694253E0,-1.211607403E-1,-3.921815246E-1,1.842010891E0
7.457627500E-1,1.770123355E0,5.621358177E-1,3.959559023E-1,1.898977211E0
7.557327500E-1,1.747118801E0,1.072986292E0,2.590041715E-1,2.066593053E0
7.657037500E-1,1.837386800E0,7.084004089E-1,-2.404661590E-1,1.983846105E0
7.756737500E-1,1.553372187E0,-7.865557551E-2,-6.018082988E-1,1.667730518E0
7.856447500E-1,1.033377253E0,-2.260489717E-1,-5.621641767E-1,1.197912871E0
7.956147499E-1,1.130608409E0,-2.367102000E-1,2.064108056E-1,1.173419155E0
8.055857500E-1,5.611766551E-1,-1.495668063E-1,8.099984121E-1,9.966879629E-1
8.155557500E-1,4.212883794E-1,-2.837367243E-1,4.282758021E-1,6.643873795E-1
8.255267499E-1,2.377172367E-1,-4.235942289E-1,4.435949224E-1,6.578130514E-1
8.354967500E-1,1.078591286E-1,2.209089768E-1,1.422820526E-1,2.840396982E-1
8.454677500E-1,5.853556227E-1,6.221577787E-1,2.310989195E-1,8.849453188E-1
8.554377500E-1,8.060687178E-1,3.800742799E-1,6.657394159E-1,1.112390312E0
8.654087500E-1,1.334101016E0,-3.009766549E-1,5.198420298E-1,1.463095418E0
8.753787500E-1,8.041237877E-1,-1.851819044E-1,-1.311075557E0,1.549137347E0
8.853497500E-1,9.518744487E-1,5.547516614E-1,-1.601001559E0,1.943455779E0
8.953197500E-1,7.237863337E-1,4.205361351E-1,-1.420961112E-1,8.490633678E-1
9.052907500E-1,5.791051684E-1,-3.434911752E-1,4.735174638E-1,8.231450492E-1
9.152607500E-1,9.146951473E-1,-5.012993395E-2,-2.560618526E-1,9.511823669E-1
9.252317499E-1,7.437850537E-1,8.988743359E-1,6.526896000E-2,1.168525274E0
9.352017500E-1,7.198578087E-1,7.240051657E-2,3.319370770E-1,7.960020871E-1
9.451727500E-1,4.314967409E-1,-9.142501742E-2,9.873023629E-3,4.411864093E-1
9.551427500E-1,2.251126863E-1,4.748172998E-1,-2.908831912E-1,6.006165338E-1
9.651137500E-1,1.287146120E-1,-4.312701613E-2,-3.811425662E-1,4.045949167E-1
9.750837500E-1,-7.166223250E-2,-6.880971220E-1,-3.677313924E-2,6.927953440E-1
9.850547500E-1,-1.420416590E-1,-2.645879701E-1,-6.961770970E-1,7.581854504E-1
9.950247500E-1,-8.210462876E-2,-8.489926162E-1,1.832137316E-1,8.724086794E-1
1.004995750E0,3.752086656E-1,-1.067040550E0,1.312995198E0,1.733007060E0
1.014965750E0,1.803278384E-1,-5.199513727E-1,1.464469074E0,1.564460683E0
1.024936750E0,9.746804901E-1,-6.471844465E-1,2.306837672E0,2.586571053E0
1.034906750E0,3.573658870E-1,-2.073995697E-1,1.538551542E0,1.593068048E0
1.044877750E0,6.009742666E-1,-1.238185921E-1,8.730618024E-1,1.067116687E0
1.054847750E0,7.082206801E-1,-1.332691544E-1,-4.901598090E-1,8.715468075E-1
1.064818750E0,3.798433149E-1,-3.628141764E-1,-1.460967761E0,1.552527575E0
1.074788750E0,7.763747294E-1,-1.473048694E0,-1.047873670E0,1.967401688E0
1.084759750E0,2.165952665E-1,-9.580197993E-1,-9.377711838E-1,1.357987569E0
1.094729375E0,1.109556240E0,-4.959757420E-1,8.666707957E-1,1.492724105E0
1.104700375E0,1.182899474E0,-3.729354143E-2,1.524701827E0,1.930118555E0
1.114670375E0,1.193416934E0,-4.135940284E-2,1.647001020E0,2.034346809E0
1.124641375E0,1.649228517E0,-2.374513346E-1,1.165452991E0,2.033376136E0
1.134611375E0,9.598328747E-1,2.577543291E-1,7.668535620E-1,1.255301090E0
1.144581375E0,1.338512447E0,6.496516791E-1,1.449255788E-1,1.494880028E0
1.154552375E0,1.638289546E0,4.485232481E-1,-3.726652730E-1,1.738978190E0
1.164522375E0,1.465626823E0,-3.889567852E-3,-1.581115179E0,2.155922615E0
1.174493375E0,1.471987862E0,-1.374867511E-1,-1.373060136E0,2.017658299E0
1.184463375E0,1.424849803E0,-1.569150022E-1,3.817120850E-2,1.433972217E0
1.194434375E0,2.022197261E0,2.939313447E-1,1.559630170E0,2.570627095E0
1.204404375E0,1.193837422E0,5.671495128E-1,1.373068323E0,1.905839179E0
1.214375375E0,1.356245883E0,4.560641098E-1,6.707200742E-1,1.580273010E0
1.224345375E0,1.056768893E0,8.327332637E-1,1.577444297E-1,1.354654379E0
1.234316375E0,1.055981273E0,8.363287166E-1,-7.558707368E-1,1.544630293E0
1.244286375E0,1.020257563E0,6.054288948E-1,-1.589962601E0,1.983797044E0
1.254257375E0,1.184421797E0,2.404939333E-1,-1.498962384E0,1.925507869E0
1.264227375E0,1.034196009E0,-1.191995841E-1,-9.286080122E-1,1.395020705E0
1.274198375E0,1.437510340E0,2.315231350E-1,-4.416799593E-1,1.521551881E0
1.284168375E0,1.505790324E0,-1.607057521E-1,1.147026660E0,1.899710766E0
1.294139375E0,1.586363786E0,-4.227899444E-1,2.203651857E-1,1.656460749E0
1.304109375E0,1.524556231E0,-5.048702341E-1,1.872699451E-1,1.616859823E0
1.314080375E0,1.511452621E0,2.327104121E-1,3.732815695E-1,1.574160822E0
1.324050375E0,1.483986349E0,2.120431361E-1,9.574757159E-2,1.502113635E0
1.334021375E0,1.289567306E0,-5.957815737E-1,-8.681653440E-1,1.664827494E0
1.343991375E0,2.103636549E0,-3.661371490E-1,-4.010687077E-1,2.172601954E0
1.353962375E0,1.795628618E0,-5.081101763E-1,1.271363608E0,2.258057463E0
1.363932375E0,2.028980469E0,-2.853441238E-1,1.820977321E0,2.741193429E0
1.373903375E0,1.840675713E0,7.842463973E-1,9.547058898E-1,2.216888096E0
1.383873375E0,1.632529308E0,6.468397531E-1,6.080718362E-1,1.858307016E0
1.393844375E0,2.102528063E0,-1.946953243E-1,2.330372715E-1,2.124343874E0
1.403814375E0,1.556338772E0,9.527263150E-1,-8.033372641E-1,1.993797524E0
1.413785375E0,1.996084765E0,1.940776244E0,-2.366371098E0,3.653858097E0
1.423755375E0,2.359350785E0,1.381416392E0,-1.706557251E0,3.222915609E0
1.433726375E0,2.731013991E0,-2.487613115E-1,-4.845587611E-1,2.784801035E0
1.443696375E0,2.087694116E0,-3.444106498E-1,1.232066810E-1,2.119496474E0
1.453667375E0,1.857483827E0,-3.420124143E-1,1.588227147E0,2.467728537E0
1.463637375E0,2.240967911E0,-1.326449642E-1,3.394958897E0,4.070046409E0
1.473608375E0,1.817030304E0,3.198657927E-1,4.805925947E0,5.147896411E0
1.483578375E0,1.649230417E0,1.438625550E0,2.561335979E0,3.368982998E0
1.493549375E0,1.447921015E0,1.333332399E0,2.048622290E0,2.840968821E0
1.503519375E0,2.767691821E0,1.534357042E0,-1.672508914E0,3.579337315E0
1.513490375E0,2.528982750E0,-1.078372747E-2,-4.255468481E0,4.950240604E0
1.523460375E0,2.547883290E0,-1.235325463E0,-3.481690062E0,4.487750433E0
1.533431375E0,2.892958476E0,1.140362003E-1,-6.703049219E-1,2.971787625E0
1.543401375E0,1.417261432E0,-4.064835218E-1,9.721493036E-1,1.766050138E0
1.553372375E0,1.932818038E0,-9.534007913E-1,9.657670677E-1,2.361665655E0
1.563342375E0,8.390140504E-1,-1.395258798E0,1.384493782E0,2.137174472E0
1.573312375E0,8.508388746E-1,-4.515255010E-1,1.812197726E0,2.052282307E0
1.583283375E0,7.108512694E-1,5.961806461E-1,1.561012452E0,1.815902190E0
1.593253375E0,4.785677040E-1,1.267030236E-1,1.420481055E0,1.504276282E0
1.603224375E0,7.865139475E-1,-4.778052270E-3,4.510366738E-1,9.066758520E-1
1.613194375E0,1.358261418E-1,-4.686712915E-1,5.152800322E-2,4.906695990E-1
1.623165375E0,5.191326164E-1,-4.148584887E-1,-7.338203019E-1,9.899992296E-1
1.633135375E0,4.744420548E-1,-7.264440393E-1,-1.821641564E-2,8.678410243E-1
1.643106375E0,2.258796948E-1,-7.859154850E-1,1.127412760E0,1.392747040E0
1.653076375E0,5.930694889E-1,5.887225226E-1,6.255731374E-1,1.043871341E0
1.663047375E0,1.131305836E0,4.784978297E-1,9.478266406E-1,1.551511653E0
1.673017375E0,1.630825137E0,7.794642520E-1,7.001806855E-2,1.808882991E0
1.682988375E0,1.579801310E0,-5.718743554E-1,-2.496281612E-1,1.698566064E0
1.692958375E0,2.176496657E0,-3.245526284E-2,-8.299122745E-1,2.329580526E0
1.702929375E0,2.149754416E0,1.061799106E0,-7.040445256E-1,2.498907779E0
1.712899375E0,2.961403643E0,-8.462891561E-1,1.666635970E0,3.501969779E0
1.722870375E0,2.984118030E0,-2.721333633E0,2.399975047E0,4.697924795E0
1.732840375E0,2.247895107E0,-1.954152627E0,2.542533088E-1,2.989379475E0
1.742811375E0,2.012164169E0,-1.856088389E0,5.794684267E-1,2.798151606E0
1.752781375E0,1.118788847E0,-1.128001867E0,1.217412518E0,2.001541890E0
1.762752375E0,1.710838728E0,3.269432625E-1,1.090187046E0,2.054840346E0
1.772722375E0,1.590580798E0,1.298569533E0,5.241046500E-1,2.119178093E0
1.782693375E0,1.939358733E0,1.221393595E0,3.487601012E-1,2.318307188E0
1.792663375E0,1.753266710E0,6.921466112E-1,-5.604462647E-1,1.966497166E0
1.802634375E0,1.191986486E0,9.198787040E-1,-1.552590122E0,2.162763209E0
1.812604375E0,1.989817427E0,1.613577166E-1,-1.394664429E0,2.435261500E0
1.822575375E0,1.603557962E0,2.760777488E-1,-8.269448125E-1,1.825227324E0
1.832545375E0,1.664132339E0,4.127227932E-1,-5.090252656E-1,1.788514262E0
1.842516375E0,1.252069258E0,4.114536551E-1,-1.390117049E0,1.915567004E0
1.852486375E0,1.955023570E0,-6.466500109E-1,-1.246322322E-1,2.062960637E0
1.862457375E0,1.498014696E0,1.580207106E-1,6.280511874E-1,1.632013134E0
1.872427375E0,1.617837594E0,9.461271474E-1,7.020401001E-1,2.001353382E0
1.882398375E0,1.853880188E0,1.263257905E0,4.138285017E-1,2.281215973E0
1.892368375E0,1.403492116E0,6.678502607E-1,5.971498221E-1,1.665053153E0
1.902339375E0,1.667633067E0,-1.361670345E-2,-6.073263162E-1,1.774832588E0
1.912309375E0,1.263697177E0,3.758087361E-1,-6.890967035E-1,1.487621265E0
1.922280375E0,1.325632932E0,5.611382827E-1,-7.744403243E-1,1.634605964E0
1.932250375E0,1.074201051E0,4.221596146E-1,-1.259373307E-2,1.154246611E0
1.942221375E0,1.571729228E0,7.880011868E-1,6.341860861E-1,1.869082831E0
1.952191375E0,1.804314510E0,7.328748071E-1,1.279148006E0,2.329994840E0
1.962161375E0,1.659614342E0,-1.014383742E-1,1.497377204E0,2.237576367E0
1.972132375E0,1.841271398E0,-2.016152117E-1,3.780435419E-1,1.890461842E0
1.982102375E0,1.452403783E0,-8.537569275E-1,1.391764210E0,2.185265489E0
1.992073375E0,1.341654449E0,-8.173217574E-1,2.027820235E-1,1.584036636E0
2.002043375E0,1.115639976E0,-5.018103862E-1,-8.698984587E-1,1.501062806E0
2.012014375E0,1.139438728E0,-1.368872653E0,3.891614377E-2,1.781473385E0
2.021984375E0,8.188420334E-1,-1.561460641E0,4.644577879E-1,1.823288964E0
2.031955375E0,9.208265376E-1,-1.130441617E0,7.551562071E-1,1.641974622E0
2.041925375E0,1.286201648E0,-4.382534909E-1,1.114892702E0,1.757659392E0
2.051896375E0,9.457127260E-1,-3.264991665E-1,1.338684940E0,1.671242542E0
2.061866375E0,1.821316752E0,-1.082597945E0,2.463007447E0,3.248941166E0
2.071837375E0,4.773859817E-1,2.141893566E-1,1.026562908E0,1.152217800E0
2.081807375E0,1.291912185E0,5.249112734E-1,4.136215103E-1,1.454527997E0
2.091778750E0,1.273632766E0,6.069032702E-1,-6.527521652E-1,1.554528028E0
2.101748750E0,1.271720873E0,-1.348169124E-1,-1.334218837E0,1.848131349E0
2.111719750E0,1.744819676E0,-5.979254553E-1,-1.197124434E0,2.198867313E0
2.121689750E0,9.600166234E-1,-2.624551982E-2,-2.911170799E-1,1.003528723E0
2.131660750E0,1.284820244E0,4.761560199E-1,-4.813954175E-2,1.371059820E0
2.141630750E0,1.054771192E0,2.735742635E-1,-4.711967039E-1,1.187186370E0
2.151601750E0,7.693785359E-1,-2.175971138E-1,-2.221355472E0,2.360871019E0
2.161571750E0,1.242391239E0,-1.101188582E-1,-2.746995016E0,3.016893066E0
2.171542750E0,9.623543403E-1,-4.288385966E-1,-2.024211334E0,2.281985965E0
2.181512750E0,1.040669169E0,-1.641651403E0,6.131963360E-1,2.038141652E0
2.191483750E0,5.022486350E-1,-6.340831751E-1,2.165977077E0,2.312092529E0
2.201453750E0,1.319135944E0,3.340309650E-2,5.483248698E0,5.639791812E0
2.211424750E0,1.458048247E0,6.307096240E-1,5.069469312E0,5.312552911E0
2.221394750E0,1.327758979E0,1.081971708E0,3.162458984E0,3.596491834E0
2.231365750E0,1.725375929E0,2.405211228E-1,1.412245252E0,2.242589833E0
2.241335750E0,2.062970480E0,4.239207959E-1,-2.325416030E0,3.137374022E0
2.251306750E0,1.865679723E0,2.019148815E-1,-2.204823055E0,2.895302255E0
2.261276750E0,1.552679731E0,9.957293701E-1,-2.579776343E0,3.171362058E0
2.271247750E0,3.464142568E0,7.309443489E-1,-2.896000198E0,4.573989562E0
2.281217750E0,3.173577757E0,-1.004044111E0,-4.406987965E-2,3.328910109E0
2.291188750E0,2.089471377E0,-7.570457348E-1,1.777919594E0,2.846051117E0
2.301158750E0,2.711621116E0,-2.828502864E-2,2.789152856E0,3.890123748E0
2.311129750E0,1.765292532E0,4.315438110E-1,3.196336582E0,3.676826802E0
2.321099750E0,1.992894085E0,4.377254874E-1,3.125699878E0,3.732724229E0
2.331070750E0,1.777406647E0,7.328958571E-2,1.417756253E0,2.274769998E0
2.341040750E0,1.825378666E0,5.258515057E-1,3.284421962E-1,1.927797022E0
2.351011750E0,1.641810155E0,1.992740158E0,-9.487516701E-1,2.750760559E0
2.360981750E0,1.869599989E0,1.379385362E0,-2.594370409E0,3.482652138E0
2.370952750E0,2.181360663E0,4.016540140E-1,-3.913507522E0,4.498355413E0
2.380922750E0,8.819048390E-1,-7.945129386E-1,-3.083453745E0,3.304042063E0
2.390893750E0,1.045877869E0,-1.215478844E0,5.036686313E-1,1.680753232E0
2.400863750E0,6.322888108E-1,3.935044572E-1,2.530074425E0,2.637406206E0
2.410833750E0,7.879342362E-1,1.468194335E0,1.481714267E0,2.229778495E0
2.420804750E0,1.049521561E0,2.254267987E0,1.807310039E-1,2.493167335E0
2.430774750E0,7.651463212E-1,5.654117203E-1,-4.490936440E-1,1.052057226E0
2.440745750E0,1.730689148E0,-2.058684763E-1,1.640717018E-1,1.750595979E0
2.450715750E0,1.599007367E0,-3.858475283E-1,-8.460119981E-1,1.849713268E0
2.460686750E0,2.405972682E0,-1.104142596E0,-7.460409826E-1,2.750347717E0
2.470656750E0,1.848349599E0,-2.240558605E0,9.002004844E-1,3.040865011E0
2.480627750E0,1.445100611E0,-1.743789981E0,1.265380152E0,2.594283370E0
2.490597750E0,1.635977996E0,-7.021833569E-1,2.645159909E0,3.188472426E0
2.500568750E0,4.286121632E-1,-7.762055987E-1,2.146625133E0,2.322542352E0
2.510538750E0,1.757595403E0,-1.577353665E-1,9.337693495E-1,1.996483720E0
2.520509750E0,9.869649786E-1,-1.468715322E0,8.809660685E-1,1.976695672E0
2.530479750E0,1.560483571E0,-3.914427289E-1,5.986034399E-1,1.716584534E0
2.540450750E0,1.798447268E0,5.245054767E-1,6.462026989E-1,1.981690313E0
2.550420750E0,1.349562808E0,-2.738125375E-1,1.415507998E0,1.974830619E0
2.560391750E0,1.298081582E0,-9.793823093E-2,-2.353094995E-2,1.301983639E0
2.570361750E0,1.421895497E0,-2.368625200E-1,-7.096017194E-1,1.606681442E0
2.580332750E0,1.505369909E0,-7.551395425E-1,-6.813865650E-1,1.816772397E0
2.590302750E0,1.887418647E0,-1.709289654E0,1.715322227E0,3.070236248E0
2.600273750E0,1.000463422E0,-3.237512675E-1,4.645542669E-1,1.149588017E0
2.610243750E0,8.297909448E-1,4.566307050E-1,4.643624783E-1,1.054844597E0
2.620214750E0,1.460832983E0,5.612473333E-1,1.521115730E0,2.182389662E0
2.630184750E0,2.328005031E0,1.647909678E0,4.764638758E-1,2.891752333E0
2.640155750E0,2.182124894E0,1.239243975E0,2.895365775E-2,2.509628060E0
2.650125750E0,2.093169595E0,6.822341189E-1,-1.899083258E0,2.907459297E0
2.660096750E0,2.400143008E0,3.569871336E-2,-2.013029703E0,3.132770251E0
2.670066750E0,2.797591850E0,-4.647191584E-2,-1.149311167E0,3.024829906E0
2.680037750E0,1.994241284E0,-9.002870232E-2,-5.559672976E-1,2.072245908E0
2.690007750E0,2.821805755E0,1.220615038E-1,-3.952741170E-1,2.851969207E0
2.699978750E0,2.844961022E0,-2.436745262E-1,1.094658412E0,3.058015292E0
2.709948750E0,2.144018444E0,-4.833308458E-3,3.534788042E-1,2.172967030E0
2.719919750E0,2.561917777E0,3.382696116E-1,-5.288677919E-1,2.637716848E0
2.729889750E0,2.389270549E0,-5.670980573E-1,6.793119729E-1,2.547877297E0
2.739860750E0,2.189138191E0,-2.938670254E-1,7.011864066E-2,2.209886982E0
2.749830750E0,1.905703329E0,-3.439957899E-1,2.712406397E-2,1.936691508E0
2.759801750E0,1.679100188E0,-1.757234484E-1,4.034912091E-1,1.735817193E0
2.769771750E0,1.744942175E0,-2.366575751E-1,1.220246079E0,2.142388969E0
2.779742750E0,2.038452959E0,-7.664770013E-1,1.879706755E0,2.876816807E0
2.789712750E0,1.876097268E0,-4.089963627E-1,1.387365350E0,2.368924144E0
2.799683750E0,2.205953760E0,2.458692786E-1,-6.000477022E-1,2.299291399E0
2.809653750E0,2.473555239E0,-4.765264410E-1,1.001744986E-1,2.521029135E0
2.819624750E0,2.377377166E0,-8.767496413E-1,9.532668900E-1,2.707273515E0
2.829594750E0,2.151565299E0,-1.018877327E-3,-2.395487309E-2,2.151698889E0
2.839565750E0,2.021594705E0,7.959191939E-1,4.161697268E-2,2.173031175E0
2.849535750E0,1.885651765E0,3.077415910E-1,4.154090041E-1,1.955237097E0
2.859506750E0,2.075868414E0,-2.428626403E-1,1.355571699E0,2.491141619E0
2.869476750E0,1.879979527E0,9.979021955E-1,7.111038691E-1,2.244058940E0
2.879447750E0,2.362952377E0,1.185161031E0,1.374816640E0,2.979642831E0
2.889417750E0,2.097775739E0,1.645420518E0,7.437716782E-1,2.767899572E0
2.899387750E0,2.686408507E0,2.137278358E0,-2.586743885E-1,3.442624273E0
2.909358750E0,2.370951807E0,1.194734969E0,1.654610002E-1,2.660109295E0
2.919328750E0,2.266757786E0,1.039365679E0,-8.142107463E-1,2.623244368E0
2.929299750E0,2.290792912E0,1.080764843E0,-1.033393625E0,2.735632869E0
2.939269750E0,2.700614902E0,1.466487533E-1,8.624678171E-1,2.838780978E0
2.949240750E0,2.136977665E0,9.565772912E-1,1.546758109E-1,2.346409654E0
2.959210750E0,2.921001722E0,5.138278762E-1,1.131643220E0,3.174411209E0
2.969181750E0,1.808978249E0,2.188419861E-1,8.439578712E-1,2.008123256E0
2.979151750E0,2.075096874E0,9.148641318E-2,6.373389047E-1,2.172693646E0
2.989122750E0,1.894623440E0,-9.456003132E-1,2.005296761E-1,2.126962643E0
2.999092750E0,1.154628479E0,-6.556632015E-1,5.194555289E-1,1.425796340E0
3.009063750E0,1.869105460E0,-8.662942350E-1,1.196148534E0,2.382182243E0
3.019033750E0,1.171142770E0,-2.741727260E-1,4.915520310E-2,1.203811574E0
3.029004750E0,1.399398481E0,-1.493044417E0,1.754101546E0,2.695249519E0
3.038974750E0,5.228001362E-1,-1.391745499E0,6.507360452E-1,1.622877973E0
3.048945750E0,1.339115442E0,-3.222590581E-1,4.550385082E-1,1.450565790E0
3.058915750E0,1.205236423E0,-3.669180447E-1,1.419289978E0,1.897790222E0
3.068886750E0,6.622870736E-1,-3.101307634E-1,1.403980213E0,1.583024225E0
3.078856750E0,8.948121290E-1,3.043297407E-1,9.746255994E-2,9.501601380E-1
3.088827750E0,1.207603375E0,1.532157612E-1,1.056252730E-1,1.221858290E0
3.098797875E0,1.153553760E0,-5.229048014E-2,-8.294918597E-2,1.157713756E0
3.108768875E0,2.327173996E0,-3.273025739E-1,1.713234186E-1,2.356314388E0
3.118738875E0,1.377943146E0,-2.371203822E-1,3.955705708E-1,1.453075864E0
3.128709875E0,1.638679994E0,2.223880300E-1,6.791003036E-1,1.787709647E0
3.138679875E0,1.601747664E0,-3.908764261E-1,7.999148887E-1,1.832551170E0
3.148650875E0,9.864955933E-1,-3.078994659E-1,8.188990438E-1,1.318548930E0
3.158620875E0,1.145870811E0,4.210012811E-1,5.381210107E-1,1.334105025E0
3.168591875E0,9.646232061E-1,2.198374745E-1,3.951548338E-2,9.901454027E-1
3.178561875E0,1.300896286E0,1.520053875E-1,-1.431059253E-1,1.317541685E0
3.188532875E0,8.590572824E-1,-1.226090956E-1,-7.374227715E-1,1.138773353E0
3.198502875E0,1.533197393E0,-5.277784556E-1,-6.318349206E-1,1.740247026E0
3.208473875E0,1.589381973E0,-2.369508129E-1,4.668814588E-1,1.673397454E0
3.218443875E0,1.363956460E0,-7.478711611E-1,1.000301308E0,1.849402932E0
3.228414875E0,1.640899451E0,-4.984634399E-1,1.435477994E0,2.236428823E0
3.238384875E0,1.435062842E0,-5.358973145E-4,5.391290706E-1,1.532992434E0
3.248354875E0,2.264202991E0,-3.260179406E-1,8.827056152E-1,2.451952709E0
3.258325875E0,1.962344138E0,-5.966954935E-1,-1.738961935E-2,2.051131987E0
3.268295875E0,2.398108323E0,-3.886512682E-1,1.733518177E-1,2.435574714E0
3.278266875E0,1.681386888E0,1.428995186E-1,-1.808292371E-1,1.697109705E0
3.288236875E0,2.144370446E0,1.464037549E-1,4.809042513E-2,2.149900314E0
3.298207875E0,1.513702484E0,-6.465921235E-1,5.726938426E-1,1.742800855E0
3.308177875E0,1.744798626E0,-1.830868471E-1,-1.239744204E-1,1.758753165E0
3.318148875E0,1.895289000E0,4.085087049E-1,3.625092441E-1,1.972412915E0
3.328118875E0,1.308131923E0,-3.528806341E-1,1.073158785E0,1.728410729E0
3.338089875E0,1.109411375E0,7.935127723E-1,1.768303263E-1,1.375399972E0
3.348059875E0,9.495337352E-1,4.793485996E-1,2.795354998E-1,1.099786111E0
3.358030875E0,6.856529859E-1,1.238549910E0,8.090792298E-3,1.415694656E0
3.368000875E0,8.705222104E-1,1.266020130E0,9.165750271E-1,1.789057201E0
3.377971875E0,6.238100557E-1,1.011274778E0,2.902762502E-1,1.223141841E0
3.387941875E0,6.080946404E-1,4.777642965E-1,3.127348208E-1,8.341707756E-1
3.397912875E0,9.085305740E-1,2.708450755E-1,-8.363681853E-2,9.517247376E-1
3.407882875E0,9.509489076E-1,7.190695310E-1,-6.200603825E-1,1.343815349E0
3.417853875E0,1.582959976E0,-8.110614359E-2,8.154000700E-2,1.587132403E0
3.427823875E0,1.457392189E0,6.109878427E-1,-1.276540732E-1,1.585431707E0
3.437794875E0,1.537851923E0,-2.937395561E-1,-2.635082817E-1,1.587673795E0
3.447764875E0,2.261667785E0,-1.385091367E0,5.453885150E-1,2.707594485E0
3.457735875E0,2.214326388E0,1.892407492E-1,3.739434743E-1,2.253638644E0
3.467705875E0,2.459362292E0,-4.349907446E-1,5.242186707E-1,2.551957101E0
3.477676875E0,2.112447865E0,-1.203517487E0,1.126965448E0,2.679727867E0
3.487646875E0,1.971744414E0,-9.283902034E-1,6.411951435E-1,2.271742859E0
3.497617875E0,1.782786232E0,3.956518471E-2,-7.293056667E-2,1.784715949E0
3.507587875E0,9.149036005E-1,-1.022595864E0,7.023406470E-1,1.541438706E0
3.517558875E0,1.802313447E0,-9.088803837E-1,5.633061379E-1,2.095640980E0
3.527528875E0,1.076706144E0,-3.661450428E-1,8.803480178E-1,1.438183210E0
3.537499875E0,1.276653437E0,-2.430018041E-1,1.392129661E0,1.904447129E0
3.547469875E0,1.570672783E0,3.205975717E-1,1.785235046E0,2.399345736E0
3.557439875E0,9.165064685E-1,-3.062239462E-1,1.087734724E0,1.454965306E0
3.567410875E0,1.945766843E0,7.408328676E-1,4.436434543E-1,2.128769940E0
3.577380875E0,1.512760790E0,6.173282710E-1,3.008304745E-1,1.661336322E0
3.587351875E0,2.417833174E0,6.588619208E-1,4.686519957E-1,2.549441308E0
3.597321875E0,2.281140036E0,3.886767036E-1,2.532692224E-1,2.327834776E0
3.607292875E0,2.357338758E0,3.108985028E-1,2.260650516E-1,2.388474263E0
3.617262875E0,2.048767447E0,-1.228008842E-1,4.241377276E-1,2.095810326E0
3.627233875E0,1.889680350E0,-7.232178381E-1,1.048511016E0,2.278883766E0
3.637203875E0,1.649744534E0,-4.419837222E-1,1.354605154E0,2.179899484E0
3.647174875E0,1.301490948E0,-2.116744691E-1,1.091950566E0,1.712028273E0
3.657144875E0,1.374251653E0,2.725770208E-1,6.648751974E-1,1.550782017E0
3.667115875E0,9.071870300E-1,1.151033172E-1,4.710780054E-1,1.028664945E0
3.677085875E0,1.082578357E0,-6.925208330E-2,3.813127202E-1,1.149857008E0
3.687056875E0,7.370527889E-1,3.128152201E-1,-6.504635650E-1,1.031602164E0
3.697026875E0,1.075961209E0,6.907988280E-1,-1.229004623E0,1.773512872E0
3.706997875E0,1.090626318E0,-2.591325179E-1,-1.584818221E0,1.941201746E0
3.716967875E0,1.331327681E0,-3.723401678E-1,-1.141897482E0,1.793042235E0
3.726938875E0,1.021174114E0,-4.452815518E-1,4.049033117E-1,1.185334941E0
3.736908875E0,9.409788202E-1,-1.504190379E-1,1.361686717E0,1.662004134E0
3.746879875E0,1.056853385E0,4.937985313E-1,9.868989050E-2,1.170690293E0
3.756849875E0,7.506215452E-1,2.501514870E-1,-5.797204417E-1,9.808589404E-1
3.766820875E0,8.504990783E-1,-4.957550097E-1,-9.857978743E-1,1.393168748E0
3.776790875E0,5.072277584E-1,3.503154606E-2,-5.410066116E-1,7.424253241E-1
3.786760875E0,7.195381122E-1,-4.839278466E-1,1.701340950E-1,8.836667165E-1
3.796731875E0,6.520292301E-1,-3.786627620E-2,7.824001390E-1,1.019179057E0
3.806701875E0,4.042967362E-1,-2.502660924E-1,1.031417266E0,1.135742288E0
3.816672875E0,1.396736097E-1,5.203203321E-2,2.014897889E-1,2.506275818E-1
3.826642875E0,8.112755902E-2,2.491317326E-1,2.302481496E-1,3.488015359E-1
3.836613875E0,1.085568476E-1,2.539729348E-1,6.934283209E-1,7.464111983E-1
3.846583875E0,5.834271379E-2,7.924468249E-1,2.256884909E-1,8.260212694E-1
3.856554875E0,-5.857813731E-3,1.659191296E-1,2.514349508E-1,3.013021839E-1
3.866524875E0,2.577869274E-2,5.332192898E-1,2.065312582E-1,5.724006574E-1
3.876495875E0,1.766754482E-1,5.885137770E-1,1.095317978E-1,6.241473339E-1
3.886465875E0,-7.204513742E-1,1.385412964E-1,-2.339862746E-1,7.700606795E-1
3.896436875E0,-2.432821050E-1,1.571810505E-1,-6.445192856E-1,7.066096339E-1
3.906406875E0,-6.633804298E-1,-1.247231564E-1,-3.407073158E-1,7.561156892E-1
3.916377875E0,-1.915870176E-1,-5.943820426E-1,1.344730961E-1,6.388103094E-1
3.926347875E0,-3.942040765E-1,-1.314662824E0,1.725706297E-1,1.383298890E0
3.936318875E0,9.696759313E-2,-1.535417435E0,5.506118327E-1,1.634038801E0
3.946288875E0,3.773646802E-2,-1.196258169E0,3.819202459E-1,1.256312351E0
3.956259875E0,-1.125972006E-1,-8.316304788E-1,7.443780345E-1,1.121778071E0
3.966229875E0,1.061577351E-1,-1.354970898E0,6.911841595E-1,1.524779047E0
3.976199875E0,-1.087053669E-1,-1.122470985E0,3.366066635E-1,1.176886577E0
3.986170875E0,4.390436690E-1,-1.374166137E0,-2.153003275E-1,1.458576754E0
3.996140875E0,4.791098870E-2,-5.483340499E-1,-1.182644974E0,1.304459592E0
4.006111875E0,2.593671374E-1,-6.050961882E-2,-3.614210773E-1,4.489520253E-1
4.016081875E0,1.092540843E0,-1.936945733E-1,3.152988249E-1,1.153506146E0
4.026052875E0,9.545455299E-1,5.358096063E-2,1.168951964E-1,9.631679890E-1
4.036022875E0,1.231651950E0,-1.078375670E-1,1.028001907E0,1.607912743E0
4.045993875E0,9.801789194E-1,-3.033593953E-2,2.044008837E0,2.267078099E0
4.055963875E0,5.345411260E-1,1.002221534E-1,2.909128951E0,2.959528670E0
4.065934875E0,3.191482662E-1,4.335783496E-1,2.848651199E0,2.899079070E0
4.075904875E0,5.783408643E-1,1.299448077E0,2.582347949E0,2.948145924E0
4.085875875E0,9.605536902E-1,1.519427639E0,2.000961050E0,2.689826921E0
4.095845375E0,1.685560192E0,1.036104979E0,6.654774606E-1,2.087459446E0
4.105816375E0,1.995435432E0,9.083477023E-1,-1.132626722E0,2.467732036E0
4.115786375E0,2.256993375E0,5.670720372E-1,-3.016403723E0,3.809761306E0
4.125757375E0,2.583487571E0,1.696829823E-1,-4.203191450E0,4.936599913E0
4.135727375E0,2.671653058E0,-1.181120020E-1,-4.108494038E0,4.902183571E0
4.145697375E0,3.314715217E0,-1.082083390E0,-1.876973181E0,3.959958303E0
4.155668375E0,2.863010499E0,-1.356574497E0,5.763483524E-1,3.220139889E0
4.165638375E0,2.905063089E0,-4.528542808E-1,2.115869363E0,3.622343401E0
4.175609375E0,2.831263334E0,-2.967140347E-2,2.135720660E0,3.546580776E0
4.185579375E0,2.790084318E0,1.881946823E-1,9.506321347E-1,2.953589206E0
4.195550375E0,2.644237803E0,-2.655083218E-1,-1.562785327E-1,2.662125317E0
4.205520375E0,2.102079582E0,-5.843277553E-1,-1.013196757E0,2.405565456E0
4.215491375E0,1.462702776E0,-3.980378035E-1,-1.371802400E0,2.044449885E0
4.225461375E0,1.372846713E0,-7.778132907E-1,-1.575136986E0,2.229519710E0
4.235432375E0,1.039760220E0,-1.121957015E0,-8.375674492E-1,1.743963328E0
4.245402375E0,1.267901471E0,-8.973607841E-1,4.210772949E-1,1.609390135E0
4.255373375E0,1.114460446E0,1.306384921E-2,1.593884913E0,1.944906647E0
4.265343375E0,9.857055614E-1,-8.298076093E-3,1.490182205E0,1.786708514E0
4.275314375E0,9.181364530E-1,3.786519447E-1,9.804886025E-1,1.395603719E0
4.285284375E0,1.058107174E0,3.767650482E-1,1.386589424E0,1.784425096E0
4.295254375E0,9.248084915E-1,-2.635407338E-1,1.167056297E0,1.512198686E0
4.305225375E0,3.587630061E-1,3.993192208E-1,-9.369052112E-2,5.449262779E-1
4.315195375E0,7.747846522E-1,7.972833493E-1,-6.864578551E-1,1.306589600E0
4.325166375E0,2.004750777E-1,4.109379306E-1,2.584720749E-1,5.252314281E-1
4.335136375E0,8.542697284E-1,-8.656843704E-1,7.832053006E-1,1.446581052E0
4.345107375E0,8.865713556E-1,-1.518911330E0,1.165907319E0,2.110080632E0
4.355077375E0,8.605427675E-1,-1.127129754E0,9.237109691E-1,1.692393953E0
4.365048375E0,4.156732251E-1,7.602637500E-2,7.004864949E-1,8.180743055E-1
4.375018375E0,2.323706158E-1,6.383452106E-1,9.031504047E-1,1.130115642E0
4.384989375E0,8.022335290E-1,7.841560578E-1,4.044519067E-2,1.122548516E0
4.394959375E0,8.176045433E-1,9.979720697E-1,-6.236780548E-1,1.432968861E0
4.404930375E0,1.541748215E0,4.413291264E-1,-1.450010079E0,2.162010219E0
4.414900375E0,1.168293568E0,-4.592818326E-1,-1.122477710E0,1.683985116E0
4.424871375E0,1.437330100E0,-8.252093589E-1,-1.120974975E0,2.000868111E0
4.434841375E0,1.231860257E0,-3.214103347E-1,-1.456747241E0,1.934656771E0
4.444811375E0,7.775959204E-1,-4.494319054E-1,-2.009224336E0,2.200824137E0
4.454782375E0,1.165306445E0,-5.843736559E-2,-2.161434376E0,2.456247666E0
4.464752375E0,2.575338160E-1,-7.020374689E-1,-1.038238043E0,1.279499319E0
4.474723375E0,9.342768878E-1,-5.076982400E-1,-1.927037627E-1,1.080632012E0
4.484693375E0,4.270615547E-1,4.122865909E-1,5.238953197E-1,7.917247695E-1
4.494664375E0,1.013377363E0,6.989630029E-1,1.491378545E0,1.933828567E0
4.504634375E0,1.228714017E0,2.515621278E-1,2.526271396E0,2.820473153E0
4.514605375E0,1.208562173E0,-9.544819415E-2,2.319447777E0,2.617168484E0
4.524575375E0,1.086379997E0,6.858520836E-2,1.093895350E0,1.543221457E0
4.534546375E0,1.079272706E0,2.522094145E-1,5.348845768E-1,1.230666760E0
4.544516375E0,1.854047564E0,-2.551453015E-1,2.446170974E-1,1.887439806E0
4.554487375E0,1.442143528E0,-7.208409449E-1,5.360025644E-2,1.613153003E0
4.564457375E0,1.507646084E0,-5.126113629E-1,5.568128049E-2,1.593382418E0
4.574428375E0,1.092329904E0,4.082189754E-1,-2.659062248E-1,1.196049109E0
4.584398375E0,8.370976254E-1,-3.021738723E-1,2.667663503E-1,9.290886767E-1
4.594369375E0,8.805358596E-1,-4.877273673E-1,7.329841501E-1,1.245185588E0
4.604339375E0,2.245961579E-1,-3.234966213E-1,7.141654712E-1,8.155524620E-1
4.614309375E0,3.854058442E-1,7.434062272E-2,3.623332429E-1,5.341812163E-1
4.624280375E0,-7.785822726E-1,1.914197141E-1,-9.004829049E-2,8.068088725E-1
4.634250375E0,-8.331761903E-1,-3.211580274E-1,-8.584080952E-1,1.238624035E0
4.644221375E0,-9.974198733E-1,-3.654688123E-1,-7.544498634E-1,1.302923042E0
4.654191375E0,-7.557703840E-1,-3.428702009E-1,-4.395580047E-1,9.391273010E-1
4.664162375E0,-2.958576369E-1,-3.670998931E-1,-1.590869504E-1,4.975969560E-1
4.674132375E0,-3.623407712E-1,-5.160635591E-2,3.919113833E-1,5.362355665E-1
4.684103375E0,-2.007483254E-1,-1.038912812E-1,-6.335727131E-1,6.726869044E-1
4.694073375E0,-9.467060948E-1,1.250170375E0,-5.615102826E0,5.829970681E0
4.704044375E0,-1.066144392E0,1.140768385E-1,-2.940374132E0,3.129772744E0
4.714014375E0,-7.815471764E-1,-3.546950251E-1,-2.642070240E-1,8.980144215E-1
4.723985375E0,1.736240349E0,9.004182932E-1,1.891110579E0,2.720585024E0
4.733955375E0,-2.188282451E0,3.735479979E0,-3.590653510E0,5.624516280E0
4.743926375E0,2.472012159E0,1.712910250E0,-6.146460947E0,6.842798244E0
4.753896375E0,-2.028920681E0,-1.911000468E0,-7.863028046E0,8.342400852E0
4.763867375E0,-1.688690498E0,-4.286200862E0,-1.343987195E0,4.798905605E0
4.773837375E0,1.878094093E0,-4.026377203E0,1.495265306E1,1.559874304E1
4.783808375E0,-1.397681300E0,2.413781200E0,1.577099545E1,1.601574695E1
4.793778375E0,1.976574799E0,5.530816966E0,1.091153006E1,1.239186316E1
4.803748375E0,3.417760114E0,4.574562441E0,1.790373579E0,5.984408348E0
4.813719375E0,-2.341670267E-1,6.629701746E-1,1.381723956E0,1.550330526E0
4.823689375E0,-4.716909983E0,1.366895709E0,-3.650125540E0,6.118910044E0
4.833660375E0,-3.919555590E0,3.561052273E0,-8.008136643E0,9.600742773E0
4.843630375E0,-4.370515957E0,2.659434716E0,-6.832113056E0,8.535324923E0
4.853601375E0,-1.817152511E0,-4.722875020E-1,-7.504987829E0,7.736274364E0
4.863571375E0,1.354920465E0,-2.728818069E0,-4.445844467E0,5.389600222E0
4.873542375E0,1.997366621E0,-2.822033797E0,8.539221114E-1,3.561254153E0
4.883512375E0,2.432461738E0,6.451554626E-2,3.562866957E0,4.314516579E0
4.893483375E0,2.143339874E0,7.133249339E-1,4.186957240E0,4.757451966E0
4.903453375E0,1.656685471E0,-2.956245522E0,1.951214109E0,3.910400342E0
4.913424375E0,1.377267647E0,-4.322028799E0,-1.510090220E-1,4.538678534E0
4.923394375E0,7.598807573E-1,-4.607067990E-1,-2.011783077E0,2.199304588E0
4.933365375E0,-5.014872910E-1,-1.780013774E0,9.071604252E-2,1.851531242E0
4.943335375E0,-1.057333588E0,5.291399798E-1,-5.129616112E-1,1.288826229E0
4.953306375E0,-3.747115061E-2,-6.947801971E-1,-7.425075102E-1,1.017566220E0
4.963276375E0,-8.403988903E-1,-2.106620530E0,-7.706998605E-1,2.395432868E0
4.973247375E0,-1.017632163E0,-1.297711454E0,-8.191019422E-1,1.841346852E0
4.983217375E0,-4.827382305E-1,1.488461077E0,-1.239528442E0,1.996242304E0
4.993188375E0,1.521207970E0,5.425934290E0,-1.521389964E0,5.836905347E0
5.003158375E0,1.441354300E0,5.548820543E0,7.265048504E-1,5.778816569E0
5.013129375E0,1.202920633E0,-1.179456487E0,4.861341180E0,5.144975580E0
5.023099375E0,2.604199578E0,-8.795197012E0,6.627166393E0,1.131621316E1
5.033070375E0,3.267030297E0,-6.488226024E0,1.527337167E0,7.423161235E0
5.043040375E0,4.355268466E0,1.171551052E-1,5.262406379E-1,4.388509762E0
5.053011375E0,3.664450926E0,-8.736000386E-1,3.580890414E0,5.197514192E0
5.062981375E0,3.077543380E0,-1.705174676E0,1.676316621E0,3.897297954E0
5.072951375E0,9.020718127E-1,-4.790261257E-1,-1.034247319E0,1.453570466E0
5.082922375E0,-4.569647272E-1,3.445989302E-1,-2.018099824E0,2.097687318E0
5.092893167E0,-1.900057258E0,1.792765090E0,-7.878994453E-1,2.728554523E0
5.102864167E0,-2.295644347E0,1.832346062E0,-8.990503371E-2,2.938631990E0
5.112834167E0,-1.623410136E0,1.440992796E0,-6.589086986E-1,2.268497604E0
5.122805167E0,-1.152116880E0,1.607961793E0,-7.641802150E-1,2.120586200E0
5.132775167E0,1.419923231E-3,3.152925099E0,-1.015732695E0,3.312499299E0
5.142746167E0,2.133454572E-1,3.000518008E0,-8.541571695E-1,3.127012803E0
5.152716167E0,6.004823696E-1,2.432478841E0,-2.434989343E0,3.493809596E0
5.162687167E0,2.736066424E-1,1.995354740E0,-2.796660097E0,3.446390696E0
5.172657167E0,6.001322675E-1,1.245392907E0,-2.225650837E0,2.620054175E0
5.182628167E0,7.374514959E-1,1.108156709E0,-6.857737309E-1,1.497374907E0
5.192598167E0,5.697339090E-1,4.607079685E-1,-3.108964562E-3,7.327060972E-1
5.202569167E0,7.245237406E-1,-1.414213425E-1,5.893519753E-1,9.446006551E-1
5.212539167E0,5.992236102E-1,-7.647909567E-1,-1.628671753E-1,9.851395126E-1
5.222510167E0,9.737726368E-1,3.898660272E-1,-1.425564625E0,1.769876596E0
5.232480167E0,1.480069299E0,4.680275130E-1,-8.733833992E-1,1.781138244E0
5.242451167E0,1.933794669E0,1.054516399E0,-4.190816402E-2,2.203025863E0
5.252421167E0,1.842749136E0,9.171220341E-1,5.021039164E-1,2.118713182E0
5.262392167E0,2.128572000E0,3.404526696E-1,-2.933898926E-2,2.155826421E0
5.272362167E0,1.487762188E0,-9.578619245E-1,4.774426997E-1,1.832726746E0
5.282333167E0,1.473193704E0,-4.619078171E-1,6.958473140E-1,1.693476308E0
5.292303167E0,3.247565500E-1,7.669602737E-1,1.071336207E0,1.357002634E0
5.302274167E0,2.918293804E-1,1.146170627E0,9.828573096E-1,1.537816629E0
5.312244167E0,-4.899188306E-2,4.536129570E-1,2.051355278E-1,5.002454439E-1
5.322215167E0,1.653660926E-1,-1.286305583E-1,-1.001338019E0,1.023019841E0
5.332185167E0,-1.242346581E-1,-2.311851659E-1,-6.662235653E-1,7.160549352E-1
5.342156167E0,-1.228682734E-3,-1.890346348E-2,-4.096038884E-1,4.100417003E-1
5.352126167E0,-2.100899833E-1,-8.358939761E-1,1.487905299E0,1.719511186E0
5.362097167E0,1.557133994E-1,-2.226880506E0,1.428294690E0,2.650145123E0
5.372067167E0,1.620540835E-1,-1.370406085E0,1.115934091E0,1.774706528E0
5.382037167E0,1.238422003E-2,-1.045994667E0,1.277382147E0,1.651049170E0
5.392008167E0,7.445657301E-1,-8.890603691E-2,1.299451877E0,1.500285837E0
5.401978167E0,6.784718741E-1,-2.350764880E-1,8.977510858E-1,1.149583425E0
5.411949167E0,8.909627607E-1,-5.474648613E-1,5.930760670E-1,1.202194509E0
5.421919167E0,5.758645684E-1,-4.996957406E-1,-4.500473249E-1,8.853577972E-1
5.431890167E0,8.301913328E-1,-2.728369296E-2,-4.820275015E-1,9.603710539E-1
5.441860167E0,5.779134693E-1,-9.079196861E-1,-7.897834182E-2,1.079138412E0
5.451831167E0,1.229204452E0,-8.635092062E-1,-3.711765718E-1,1.547373187E0
5.461801167E0,1.333550793E0,-3.584714493E-1,-1.549512148E-2,1.380977768E0
5.471772167E0,1.166104297E0,-7.214657199E-1,5.940923131E-1,1.494408811E0
5.481742167E0,1.465718478E0,3.854665822E-1,1.421668625E-1,1.522211076E0
5.491713167E0,1.061096856E0,4.700222906E-1,-5.055502653E-3,1.160548598E0
5.501683167E0,1.280772362E0,5.263631371E-1,-3.293555313E-1,1.423345026E0
5.511654167E0,9.203407802E-1,5.335198367E-1,-9.869924605E-1,1.451145990E0
5.521624167E0,1.178774629E0,-2.344675004E-2,-8.905473161E-1,1.477543197E0
5.531595167E0,1.131944937E0,-7.373341861E-1,-4.115802473E-1,1.412217880E0
5.541565167E0,1.506285291E0,-8.148100859E-1,-5.707666004E-1,1.805155219E0
5.551536167E0,1.000636500E0,-5.241865110E-1,-4.211690962E-1,1.205582146E0
5.561506167E0,1.418141438E0,-3.397457412E-1,-2.658366430E-1,1.482302745E0
5.571477167E0,1.270352039E0,-2.385605514E-1,7.123399705E-1,1.475850153E0
5.581447167E0,8.825196737E-1,2.446255758E-1,1.697049678E0,1.928382809E0
5.591418167E0,6.793219131E-1,2.108681381E-2,1.956249146E0,2.070949936E0
5.601388167E0,3.201532930E-1,3.431391728E-1,1.060139374E0,1.159369706E0
5.611359167E0,4.885871273E-2,3.532826301E-1,-4.344457841E-1,5.620844508E-1
5.621329167E0,1.777584987E-1,-3.364791942E-1,-7.310487217E-1,8.241653750E-1
5.631300167E0,1.697934216E-1,-8.642743143E-1,-9.695180565E-1,1.309872192E0
5.641270167E0,8.588426895E-2,-2.814852539E-1,-1.949543560E-1,3.530116949E-1
5.651241167E0,-2.006499095E-1,-9.895798534E-2,2.376881468E-1,3.264180206E-1
5.661211167E0,-4.513133933E-1,4.512492201E-1,7.305949777E-1,9.700920879E-1
5.671181167E0,-5.732734479E-2,5.160316917E-1,9.621885717E-1,1.093335255E0
5.681152167E0,-2.976378947E-3,1.099880560E0,7.867294174E-1,1.352290384E0
5.691122167E0,1.545821093E-1,1.031007084E0,3.496284127E-2,1.043117269E0
5.701093167E0,4.580610070E-1,6.544621834E-1,-5.056736416E-1,9.454345390E-1
5.711063167E0,3.413008082E-1,6.915373313E-1,-1.528417148E0,1.711948919E0
5.721034167E0,6.608501934E-1,2.308545059E-1,-1.019759088E0,1.236901523E0
5.731004167E0,3.556859089E-1,5.312467316E-1,-9.288389772E-1,1.127598067E0
5.740975167E0,4.398261727E-1,2.515296757E-1,-3.054339874E-1,5.916114946E-1
5.750945167E0,4.031204957E-1,-5.732923052E-1,4.177338570E-1,8.158871102E-1
5.760916167E0,2.830885604E-1,-8.269360417E-1,8.582777023E-1,1.224991006E0
5.770886167E0,4.118642027E-1,-1.174643352E0,1.188612058E0,1.721109453E0
5.780857167E0,1.170965599E-1,4.034754217E-1,5.484501171E-1,6.908701406E-1
5.790827167E0,7.125940320E-1,-1.810026070E-1,8.814835471E-1,1.147852535E0
5.800798167E0,2.143079089E-1,-9.615102947E-1,-1.824436533E-1,1.001856084E0
5.810768167E0,4.542314462E-1,-1.318807915E0,-1.796714884E-1,1.406364948E0
5.820739167E0,-7.543419823E-2,-1.415134361E0,-5.440606123E-1,1.517991281E0
5.830709167E0,-2.744105615E-2,-1.622290687E0,1.143002021E-1,1.626543765E0
5.840680167E0,-1.561741965E-1,-8.687114739E-1,-2.942237055E-1,9.303857230E-1
5.850650167E0,5.541838237E-1,-9.029401973E-1,2.026066071E-1,1.078642734E0
5.860621167E0,7.870967688E-1,-1.354816824E0,7.835532099E-1,1.751857752E0
5.870591167E0,7.097055805E-1,-4.862603009E-2,1.704094988E-1,7.314956590E-1
5.880562167E0,1.409519573E0,1.512087044E-1,1.106556326E0,1.798353803E0
5.890532167E0,1.071313038E0,6.305502874E-1,4.902545339E-1,1.336283951E0
5.900503167E0,1.398371856E0,4.215020952E-1,6.181910276E-2,1.461824020E0
5.910473167E0,7.370688687E-1,-1.081954166E-1,-4.254089123E-1,8.578749956E-1
5.920444167E0,8.927402412E-1,1.560510761E-1,-4.595478809E-1,1.016130568E0
5.930414167E0,5.386481737E-1,1.721554774E-1,-2.421454793E-1,6.151534740E-1
5.940384167E0,5.466142010E-1,-3.175038099E-3,-5.052561504E-1,7.443661351E-1
5.950355167E0,3.889112135E-1,-1.007948881E-1,-8.195551014E-1,9.127333157E-1
5.960325167E0,9.124012846E-1,-4.277451673E-1,4.355953467E-1,1.097809336E0
5.970296167E0,1.255227047E0,4.487755555E-1,-4.398047572E-1,1.403717444E0
5.980266167E0,4.636986000E-1,3.491811007E-1,3.577209592E-1,6.818417099E-1
5.990237167E0,1.081509047E0,1.505453378E-1,7.019933224E-1,1.298121852E0
6.000207167E0,6.823144450E-1,-4.882062542E-1,9.758839202E-1,1.286952903E0
6.010178167E0,1.014048258E0,-3.359839350E-2,8.309934247E-1,1.311477333E0
6.020148167E0,5.103672381E-1,2.299946728E-1,-1.913583183E-1,5.915997577E-1
6.030119167E0,8.014104603E-1,-1.335135680E-1,8.310296774E-2,8.166949871E-1
6.040089167E0,7.402740931E-1,-3.143021670E-1,-4.583000851E-1,9.256514209E-1
6.050060167E0,4.980194535E-1,-5.787229067E-1,7.696163714E-2,7.673764868E-1
6.060030167E0,4.800572821E-1,1.656007487E-1,2.250815499E-1,5.554640458E-1
6.070001167E0,2.641851335E-1,5.959678075E-1,4.184782076E-1,7.746582618E-1
6.079971167E0,7.559604916E-1,-1.197302189E-1,8.184230804E-2,7.697465515E-1
6.089942167E0,9.670556478E-1,-7.292501181E-2,-6.916156840E-1,1.191153616E0
6.099912250E0,1.241266819E0,-2.824938986E-1,-8.214455062E-1,1.515030970E0
6.109883250E0,1.108689537E0,-2.942231208E-2,-3.206525356E-1,1.154502581E0
6.119853250E0,1.269691596E0,9.701086253E-2,-4.129087347E-1,1.338664066E0
6.129824250E0,1.027217065E0,9.151184857E-3,-7.919351935E-2,1.030305904E0
6.139794250E0,1.397154319E0,-7.265984058E-2,3.554481465E-1,1.443489879E0
6.149765250E0,5.325922855E-1,3.745083153E-2,4.066639084E-1,6.711427879E-1
6.159735250E0,4.167697974E-1,6.597375414E-1,-2.270292574E-1,8.127071866E-1
6.169705250E0,1.339351523E-1,1.343930477E0,-1.202596843E-1,1.355931468E0
6.179676250E0,4.282973637E-1,5.683677801E-1,-4.341545928E-1,8.336490723E-1
6.189646250E0,4.304719067E-1,1.196620989E-1,-2.578996325E-1,5.158849686E-1
6.199617250E0,1.101234264E-1,6.614118916E-1,-8.018023700E-1,1.045217633E0
6.209587250E0,-2.463680827E-1,7.321433204E-1,7.140970588E-2,7.757773005E-1
6.219558250E0,-5.227119894E-1,-2.584787992E-1,1.194057570E0,1.328838814E0
6.229528250E0,-7.933271963E-2,1.100565854E-1,2.569383502E-1,2.905571341E-1
6.239499250E0,-1.326081632E-1,-1.179230492E0,2.410099500E-1,1.210890282E0
6.249469250E0,6.043563692E-1,-1.205703761E0,5.957897598E-1,1.474426539E0
6.259440250E0,-6.461513165E-2,-4.369051230E-1,5.600644416E-1,7.132554805E-1
6.269410250E0,7.098717146E-2,-8.073776901E-1,1.131663685E0,1.391962862E0
6.279381250E0,-4.378518603E-1,-1.053602772E0,4.597800153E-1,1.230118171E0
6.289351250E0,2.421862271E-1,-6.155594882E-1,-9.273508608E-2,6.679576696E-1
6.299322250E0,-7.299385547E-1,-1.322999200E0,3.165986609E-1,1.543817310E0
6.309292250E0,-2.789719013E-1,-8.278464532E-1,-3.537319887E-1,9.424868124E-1
6.319263250E0,-7.282518522E-1,-4.133019599E-1,-1.218033493E-2,8.374470914E-1
6.329233250E0,-4.758624531E-1,-4.831320405E-1,-1.232704157E-1,6.892439613E-1
6.339204250E0,-1.549425171E-1,-7.149802807E-1,6.561277628E-2,7.345127785E-1
6.349174250E0,4.389440471E-1,-9.203260159E-1,2.392791742E-1,1.047342530E0
6.359145250E0,3.120399524E-1,-3.008567870E-1,6.065685171E-1,7.455260586E-1
6.369115250E0,3.661713552E-1,-2.211069050E-1,6.438141114E-1,7.729594652E-1
6.379085250E0,2.123738327E-1,2.794545159E-1,6.222665370E-1,7.144320221E-1
6.389056250E0,1.201196983E-1,7.840025684E-1,-5.975035787E-2,7.953985633E-1
6.399026250E0,1.070678396E0,8.355083522E-1,-3.030500776E-1,1.391497676E0
6.408997250E0,6.290618055E-1,3.052038994E-1,-3.229259330E-1,7.701618879E-1
6.418967250E0,9.712249319E-1,2.178915212E-1,-1.186774278E-1,1.002416538E0
6.428938250E0,6.311929695E-1,5.509927788E-1,-5.264616627E-1,9.895248806E-1
6.438908250E0,1.249096095E0,9.707871947E-1,-6.733764642E-1,1.719332630E0
6.448879250E0,8.113625675E-1,6.000292835E-1,-1.000774348E-1,1.014080791E0
6.458849250E0,1.331031227E0,7.421967307E-1,7.720429659E-2,1.525929428E0
6.468820250E0,6.059818952E-1,7.098934954E-1,2.198915613E-1,9.589135158E-1
6.478790250E0,1.040265346E0,1.029513705E0,-4.425406694E-1,1.529016907E0
6.488761250E0,3.209784813E-1,3.334450740E-1,-5.992916572E-1,7.572075628E-1
6.498731250E0,4.412272752E-1,-4.340066582E-1,-5.741790354E-2,6.215626303E-1
6.508702250E0,-9.507484943E-2,-7.599599871E-1,3.559819973E-1,8.445718391E-1
6.518672250E0,-3.371506007E-1,-2.684868935E-1,1.752024615E-1,4.652436373E-1
6.528643250E0,-4.394547648E-1,-5.529244065E-1,-1.927727598E-1,7.321251441E-1
6.538613250E0,-4.513602075E-1,-7.635814601E-1,-3.065110445E-1,9.384730703E-1
6.548584250E0,-2.426157051E-1,-5.104747903E-1,-4.132812023E-1,7.001772948E-1
6.558554250E0,4.028053673E-1,-1.933612821E-1,6.366401625E-1,7.777862468E-1
6.568524250E0,6.453675704E-1,-4.280132622E-2,7.537698323E-1,9.932271716E-1
6.578495250E0,2.902067780E-1,1.149007112E-1,4.566745591E-1,5.531489857E-1
6.588465250E0,3.116630993E-1,3.187875661E-1,-2.277671760E-1,5.006368806E-1
6.598436250E0,1.025000824E-1,4.261354288E-1,6.200223756E-1,7.592927083E-1
6.608406250E0,1.592896661E-1,6.962800080E-1,1.149873084E0,1.353656957E0
6.618377250E0,2.882148509E-1,1.344031634E0,5.747526473E-1,1.489909205E0
6.628347250E0,-8.705246955E-2,1.101178350E0,-7.157810569E-1,1.316250133E0
6.638318250E0,5.158727571E-1,8.813882375E-1,-6.675596541E-1,1.220084349E0
6.648288250E0,3.431538639E-1,-1.181839228E-1,-1.169422665E0,1.224447379E0
6.658259250E0,3.348196082E-2,5.455686092E-2,-1.050077485E0,1.052026719E0
6.668229250E0,-5.512173850E-2,-3.261857557E-1,-6.480007178E-1,7.275578901E-1
6.678200250E0,-3.078189936E-2,-7.822317392E-1,4.367168427E-1,8.964126392E-1
6.688170250E0,-4.273799722E-1,-1.041238834E0,7.763699055E-2,1.128210731E0
6.698141250E0,-3.252853576E-1,-9.208853021E-1,-1.045955783E-1,9.822324259E-1
6.708111250E0,-3.997796890E-1,-8.704869810E-1,-8.324154675E-2,9.615095106E-1
6.718082250E0,-8.085844092E-1,-1.969243121E0,7.075236189E-1,2.243282615E0
6.728052250E0,-1.430067054E-1,-1.951479865E0,5.346442562E-1,2.028440056E0
6.738022250E0,-2.998458947E-1,-1.524171192E0,1.374614326E0,2.074263708E0
6.747993250E0,3.910097426E-1,-1.117518101E0,1.537244105E0,1.940323366E0
6.757963250E0,3.344899714E-1,1.884031355E-2,1.545954702E0,1.581838942E0
6.767934250E0,7.306620745E-1,1.511189497E-1,1.044577594E0,1.283684679E0
6.777904250E0,8.948944286E-1,2.979597840E-1,-1.644570333E-1,9.574247683E-1
6.787875250E0,1.169053340E0,-1.526596910E-1,-5.318054330E-1,1.293370679E0
6.797845250E0,7.272117788E-1,-6.364939821E-1,-8.264659256E-1,1.271616092E0
6.807816250E0,7.628581595E-1,-2.180683994E-1,-9.122170973E-1,1.208985703E0
6.817786250E0,7.084642167E-1,-8.102048188E-2,-7.897588599E-1,1.064051184E0
6.827757250E0,3.974725970E-1,-8.063982815E-2,4.899346912E-1,6.360214217E-1
6.837727250E0,4.826860807E-1,-6.570367125E-1,7.949938720E-1,1.138726636E0
6.847698250E0,-1.488824445E-1,-6.206401339E-1,5.167769194E-2,6.403364287E-1
6.857668250E0,-1.441119936E-1,-1.709921739E-1,-6.950205177E-1,7.301096563E-1
6.867639250E0,-6.176655091E-2,6.744242853E-1,-8.842013329E-1,1.113766232E0
6.877609250E0,-6.254978545E-1,3.399650118E-1,-6.997491610E-1,9.982347738E-1
6.887580250E0,-2.127592921E-1,-8.556271595E-1,-3.118822968E-1,9.352191826E-1
6.897550250E0,-7.027562378E-1,-8.175743571E-1,3.682845390E-1,1.139266282E0
6.907520250E0,1.733625620E-1,1.945456356E-2,7.922714084E-1,8.112502959E-1
6.917491250E0,-8.565443683E-2,6.620761353E-1,-1.262910873E-1,6.794342722E-1
6.927461250E0,4.064180329E-1,7.019667175E-1,8.512318075E-2,8.155849716E-1
6.937432250E0,6.957067616E-1,3.146848673E-1,3.651597869E-1,8.463900601E-1
6.947402250E0,1.133950531E0,6.503448665E-1,1.838879156E-1,1.320078414E0
6.957373250E0,8.278053765E-1,5.069176367E-1,-2.050209224E-1,9.920991938E-1
6.967343250E0,1.263416657E0,1.178097010E-2,-8.459470940E-1,1.520521925E0
6.977314250E0,1.195208813E0,5.331754357E-2,-1.600749545E0,1.998440885E0
6.987284250E0,5.515960653E-1,-1.665488747E-1,-2.014141259E0,2.094937173E0
6.997255250E0,3.543203647E-1,-5.522133851E-1,-1.695876142E0,1.818372468E0
7.007225250E0,5.631402963E-1,-2.815150747E-1,-6.800095457E-1,9.267096162E-1
7.017196250E0,1.520195670E-1,-4.732002524E-1,2.642347398E0,2.688685217E0
7.027166250E0,9.649921289E-2,5.055128431E-1,2.425241450E0,2.479244123E0
7.037137250E0,-3.195084182E-1,1.498266858E0,4.719451475E-1,1.603003876E0
7.047107250E0,1.591135553E-1,1.010706721E0,-6.400479198E-1,1.206858127E0
7.057077250E0,5.569885869E-1,1.932840988E-1,-1.203240622E0,1.339919036E0
7.067048250E0,6.050958227E-2,-5.617218348E-1,-1.267852355E0,1.388035454E0
7.077018250E0,-5.328087056E-2,5.629497501E-1,-7.482909912E-1,9.379182693E-1
7.086989250E0,-2.145533092E-1,1.683726212E-1,-2.287389833E-1,3.559550316E-1
7.096958667E0,-2.548853014E-1,-2.114189458E-1,3.373790807E-1,4.727463713E-1
7.106929667E0,2.732002061E-1,-4.992645085E-2,7.861610681E-1,8.337746866E-1
7.116899667E0,-3.986078339E-1,2.200392035E-1,1.557530435E0,1.622715783E0
7.126870667E0,1.930326503E-1,6.465582097E-1,1.162874953E0,1.344461706E0
7.136840667E0,-1.460184783E-1,4.265002951E-1,1.387796874E0,1.459179242E0
7.146811667E0,2.175466999E-1,1.845085976E-1,5.152537197E-1,5.889451459E-1
7.156781667E0,-1.333406732E-1,-3.531098449E-1,4.358105242E-2,3.799547418E-1
7.166752667E0,-2.593527752E-1,-8.197281790E-1,-1.078173941E-1,8.665118233E-1
7.176722667E0,-3.876497863E-1,-1.589141067E0,-6.624088418E-1,1.764773969E0
7.186693667E0,-1.085806020E-1,-1.338725286E0,-8.870816714E-1,1.609623879E0
7.196663667E0,-8.234926164E-2,-2.724191460E-1,-2.811048925E-2,2.859786559E-1
7.206634667E0,-5.325260293E-2,-2.497263944E-1,1.462196261E0,1.484323758E0
7.216604667E0,-3.710171256E-1,3.092299998E-3,2.054761282E0,2.087991186E0
7.226574667E0,-3.509801428E-1,2.124980494E-1,1.454415956E0,1.511181080E0
7.236545667E0,-4.372721454E-2,5.539424068E-1,1.189523638E0,1.312909268E0
7.246515667E0,4.705840984E-2,-3.158449548E-1,1.441977174E0,1.476912557E0
7.256486667E0,2.990372614E-1,-8.205988294E-1,1.120552222E0,1.420719185E0
7.266456667E0,1.740074916E-1,-1.165522572E-1,5.813067913E-2,2.173527356E-1
7.276427667E0,3.540681670E-1,5.925387079E-1,-8.420271206E-1,1.088795692E0
7.286397667E0,1.543101041E-1,3.209685776E-1,-1.750199114E0,1.786065333E0
7.296368667E0,2.400692427E-1,3.330340147E-2,-1.634351739E0,1.652225155E0
7.306338667E0,4.186911924E-1,-6.239812329E-1,-1.406546556E0,1.594687464E0
7.316309667E0,6.865773576E-1,-6.649208057E-1,-5.070869136E-1,1.081963624E0
7.326279667E0,7.963187049E-1,-9.536422813E-1,7.096818262E-1,1.430805848E0
7.336250667E0,1.163119513E0,-1.302276375E0,1.528227698E0,2.320398814E0
7.346220667E0,1.366767655E0,-7.606865036E-1,1.142779827E0,1.937174105E0
7.356190667E0,1.382427961E0,4.497005850E-2,2.039516421E0,2.464296371E0
7.366161667E0,1.238045150E0,-3.543170026E-1,2.092191648E0,2.456738127E0
7.376131667E0,1.203075145E0,1.109228504E-1,3.025735295E-1,1.245489633E0
7.386102667E0,9.099157063E-1,4.414413929E-2,-6.475481433E-1,1.117682377E0
7.396072667E0,5.035141186E-1,2.357319608E-1,-1.218769657E0,1.339587810E0
7.406043667E0,2.401406153E-1,6.490383062E-1,-1.882649074E0,2.005812995E0
7.416013667E0,1.822417417E-1,2.433944446E-1,-1.337842357E0,1.371960305E0
7.425984667E0,4.467658309E-1,1.261159632E-1,1.421434736E-1,4.854994448E-1
7.435954667E0,6.532787070E-2,3.885363704E-1,9.964754748E-1,1.071537033E0
7.445925667E0,3.888705388E-2,1.094655780E0,1.219095347E0,1.638895038E0
7.455895667E0,-4.157878306E-2,1.235882703E0,2.053337485E-1,1.253513781E0
7.465866667E0,-1.750659290E-1,2.899055368E-1,-4.552712274E-1,5.674197654E-1
7.475836667E0,4.202437744E-2,-6.996690542E-2,-6.986241567E-1,7.033755245E-1
7.485807667E0,5.506496935E-1,-1.075402361E-1,-3.062052351E-1,6.391726162E-1
7.495777667E0,1.253020673E-1,1.773764563E-1,-3.273581225E-1,3.928439329E-1
7.505747667E0,8.914146043E-1,9.884747297E-1,-4.380043995E-1,1.401267334E0
7.515718667E0,5.797938243E-1,6.346526939E-1,-1.137774611E-1,8.671160425E-1
7.525688667E0,9.162665865E-1,2.947312438E-1,1.147878599E-1,9.693230712E-1
7.535659667E0,7.656244773E-1,-7.097174942E-2,4.038496435E-1,8.685115796E-1
7.545629667E0,7.784867437E-1,-1.274526367E-1,6.942317283E-1,1.050829899E0
7.555600667E0,8.234060776E-1,2.014240077E-1,5.115986252E-1,9.901021931E-1
7.565570667E0,4.456197767E-1,-4.301036417E-2,-1.052873039E-1,4.599046566E-1
7.575541667E0,6.638625327E-2,-6.598901537E-1,-3.403623301E-1,7.454586946E-1
7.585511667E0,-3.084400775E-1,-1.034410456E0,-2.189665318E-1,1.101402113E0
7.595482667E0,-1.630672598E-1,-1.849434550E0,-4.988095951E-1,1.922448984E0
7.605452667E0,-2.621563689E-1,-1.268245580E0,-7.340249544E-1,1.488611919E0
7.615423667E0,8.427142415E-2,-6.989445841E-1,-8.512054950E-1,1.104615770E0
7.625393667E0,1.996736803E-1,-9.850675571E-1,2.417344201E-1,1.033761675E0
7.635363667E0,7.299185280E-1,-5.646428114E-1,6.703669024E-1,1.140611391E0
7.645334667E0,3.375017625E-1,4.912947536E-2,-7.659355491E-1,8.384380779E-1
7.655304667E0,9.069991151E-1,-3.287623313E-1,-4.358899294E0,4.464385190E0
7.665275667E0,1.081184088E0,-2.716311752E0,-2.791665405E-1,2.936876321E0
7.675245667E0,1.355446861E0,-3.839015457E0,5.302287313E0,6.685022560E0
7.685216667E0,-4.398494884E-3,-6.011092642E-1,5.428783638E0,5.461963336E0
7.695186667E0,-1.722199795E-1,2.582445597E0,2.304760741E0,3.465632274E0
7.705157667E0,8.364325047E-1,1.027467472E0,5.947846234E-1,1.452266329E0
7.715127667E0,1.190839554E0,-1.873285635E0,-1.693542518E0,2.792021521E0
7.725098667E0,1.540591855E-1,-2.318126891E0,-2.024568014E0,3.081610319E0
7.735068667E0,4.229444936E-1,-4.732566780E-1,-4.821964860E-2,6.365367723E-1
7.745039667E0,-5.243359439E-1,4.770059127E-1,1.502954278E0,1.661726327E0
7.755009667E0,-7.567232609E-2,-1.160672307E-3,1.032019529E0,1.034790779E0
7.764979667E0,-5.483621531E-1,-7.543387663E-1,6.748447001E-2,9.350305765E-1
7.774950667E0,2.222146600E-1,-6.841096133E-2,3.577963883E-1,4.267056014E-1
7.784920667E0,-6.332381062E-2,3.125982884E-1,4.441995245E-1,5.468462421E-1
7.794891667E0,-3.912558373E-1,6.339176989E-1,-3.225113654E-1,8.117551108E-1
7.804861667E0,-4.655513634E-1,7.253719524E-1,-1.175989673E0,1.458030950E0
7.814832667E0,-5.547116080E-1,4.009821689E-1,-1.007358313E0,1.217892622E0
7.824802667E0,1.607085295E-2,3.446424919E-1,-5.041165280E-1,6.108765779E-1
7.834773667E0,3.524472092E-1,-3.570496988E-1,-2.369595838E-1,5.548453542E-1
7.844743667E0,3.896964580E-1,-1.688082388E-1,-1.074193742E0,1.155098154E0
7.854714667E0,1.023227364E0,-1.428749895E0,-1.150290576E0,2.100354472E0
7.864684667E0,8.968844553E-1,1.087023410E0,-2.270591952E0,2.672378983E0
7.874655667E0,2.515012254E-1,2.120154787E0,-1.878803945E-1,2.143270452E0
7.884625667E0,4.405713272E-1,3.049513874E0,2.414676701E0,3.914626615E0
7.894595667E0,-8.394226246E-4,1.079391624E0,2.234525741E0,2.481570525E0
7.904566667E0,-2.363187655E-1,-9.964953554E-1,-1.181651532E0,1.563697508E0
7.914536667E0,-7.180200288E-1,-1.482247533E0,-2.259730749E0,2.796246335E0
7.924507667E0,-7.161283815E-1,5.934798172E-1,-1.126020538E0,1.460472664E0
7.934477667E0,-1.837716437E0,1.963854035E0,5.619817436E-1,2.747680450E0
7.944448667E0,-1.531219134E0,1.258268768E0,6.994380891E-1,2.101686458E0
7.954418667E0,-1.230908331E0,-6.305920950E-1,8.576561433E-1,1.627376960E0
7.964389667E0,-4.803604968E-1,-1.013541158E0,8.740739554E-1,1.421976500E0
7.974359667E0,-5.861036643E-1,-5.832129836E-1,1.181953833E0,1.442452687E0
7.984330667E0,-1.027934573E-1,-3.037950128E-2,1.351212015E0,1.355456867E0
7.994300667E0,-2.365129113E-1,-5.895303154E-1,1.132030306E0,1.298066625E0
8.004271667E0,2.647720843E-1,-9.280069184E-1,8.259291512E-1,1.270220477E0
8.014241667E0,-1.580311900E-2,-1.507226838E0,1.212684460E0,1.934576460E0
8.024212667E0,3.003174179E-1,6.523329198E-2,7.636229753E-2,3.166656507E-1
8.034182667E0,-4.637127064E-1,-2.310422015E-1,9.632223594E-1,1.093712616E0
8.044152667E0,-1.096051621E-1,-1.501758522E0,1.003250644E0,1.809365581E0
8.054123667E0,-7.934720611E-1,-1.060893957E0,5.556024313E-3,1.324811220E0
8.064093667E0,-2.567784471E-1,-1.182102352E-1,-6.310513937E-1,6.914728427E-1
8.074064667E0,-4.330363858E-1,-1.927242279E-3,-7.374011368E-1,8.551518358E-1
8.084034667E0,1.846912500E-2,-3.702761006E-1,-8.397461218E-1,9.179428350E-1
8.094006042E0,-5.045043446E-1,-8.690395027E-1,-1.301052260E-1,1.013253009E0
8.103976042E0,-4.344720600E-1,-1.241628177E0,1.057357854E0,1.687723950E0
8.113947042E0,8.523878203E-2,2.480438581E-1,1.821594787E-1,3.193328689E-1
8.123917042E0,1.916249514E-1,3.365692413E-1,2.385482723E-1,4.548672931E-1
8.133888042E0,-7.521881970E-2,4.047129849E-1,3.532443309E-1,5.424315885E-1
8.143858042E0,5.738791098E-1,2.288951039E-2,-6.454741359E-1,8.640011704E-1
8.153828042E0,9.297121310E-2,-3.111686441E-1,-3.451319039E-1,4.739046345E-1
8.163799042E0,2.838185122E-1,-1.561060399E-2,-3.422954196E-1,4.449300991E-1
8.173769042E0,1.714779313E-1,-1.308419752E-1,-1.001257328E0,1.024226801E0
8.183740042E0,9.134891225E-2,-1.306062155E0,-2.143443078E-1,1.326682501E0
8.193710042E0,4.019082217E-1,-1.333565411E0,-1.555295044E-1,1.401469354E0
8.203681042E0,4.589421093E-1,-1.220390505E0,4.145681745E-1,1.368154822E0
8.213651042E0,4.749292740E-1,-9.160250965E-1,2.121071631E-1,1.053398899E0
8.223622042E0,6.220424424E-1,-9.847073686E-1,2.247967905E-1,1.186220468E0
8.233592042E0,5.090406876E-2,-9.723790991E-1,7.275877547E-1,1.215523047E0
8.243563042E0,4.728495291E-1,-1.010748528E0,1.508787460E0,1.876603012E0
8.253533042E0,-1.647130134E-1,-6.603903830E-2,2.573719797E0,2.579830445E0
8.263504042E0,-3.833642889E-1,-5.417682114E-1,7.255580692E0,7.285872093E0
8.273474042E0,-2.484263756E-1,4.203291437E-1,5.970127634E0,5.990059784E0
8.283445042E0,-4.851086918E-1,2.894762050E0,1.824076345E0,3.455753504E0
8.293415042E0,-1.515511174E0,3.785211132E0,-2.184923810E0,4.625850137E0
8.303385042E0,-5.873386328E-1,2.857089316E0,-5.346745448E0,6.090616793E0
8.313356042E0,-4.176932920E-1,2.856475943E-1,-7.533125215E0,7.550101837E0
8.323326042E0,1.001232441E-2,-5.167354041E-1,-7.292928613E0,7.311219014E0
8.333297042E0,9.176585162E-1,-5.349798864E-1,-5.736540724E0,5.834055203E0
8.343267042E0,9.410135380E-1,-1.645236038E0,-2.373522828E0,3.037419746E0
8.353238042E0,7.052293177E-1,-3.209648646E0,2.829519110E0,4.336516022E0
8.363208042E0,1.099448012E0,-2.126244370E0,6.654361793E0,7.071791281E0
8.373179042E0,5.092498717E-1,1.227170644E0,4.344996369E0,4.543597327E0
8.383149042E0,4.211582423E-1,2.040275974E0,1.615004472E0,2.635970364E0
8.393120042E0,9.397320476E-1,3.113262266E-1,2.517056769E-1,1.021457825E0
8.403090042E0,5.033541242E-1,-1.801517202E0,-3.371767670E-1,1.900662457E0
8.413061042E0,-1.242553791E-1,-5.774520144E-1,-1.842741827E0,1.935093710E0
8.423031042E0,-3.118153462E-1,-9.762715906E-2,-1.579641096E0,1.613079621E0
8.433001042E0,-2.845558461E-1,-7.960311681E-1,-1.689351234E0,1.889059354E0
8.442972042E0,1.715233934E-1,-2.139175780E0,-5.151052004E-1,2.206994939E0
8.452942042E0,3.126304480E-1,-4.451444346E-1,1.121171442E0,1.246160811E0
8.462913042E0,1.027595453E0,1.766648209E0,3.043236011E0,3.665826473E0
8.472883042E0,1.189997994E0,5.984055117E-1,3.748340637E0,3.977969572E0
8.482854042E0,1.785518636E0,-9.344224834E-1,1.777857029E0,2.687377493E0
8.492824042E0,1.909022209E0,-2.894350113E0,4.282793105E-1,3.493572890E0
8.502795042E0,1.656160245E0,-1.467646159E0,-1.179128458E0,2.507428150E0
8.512765042E0,1.382722660E0,-6.337589470E-1,-1.125711805E0,1.892300036E0
8.522736042E0,4.108402821E-1,-7.496437445E-1,-5.138778698E-1,9.974096181E-1
8.532706042E0,4.235011486E-1,-1.695817962E0,-3.314412332E-1,1.779046114E0
8.542677042E0,-6.687920279E-1,-6.702303699E-1,-9.843974662E-1,1.365844024E0
8.552647042E0,-1.003316425E0,1.505761234E0,-7.717780870E-1,1.967130437E0
8.562617042E0,2.310155967E-1,2.550838765E0,4.031924164E-1,2.592819071E0
8.572588042E0,-4.961828066E-1,1.082393292E0,5.985864830E-1,1.332695912E0
8.582558042E0,1.209612771E-1,-6.434656173E-1,6.618001467E-1,9.309452537E-1
8.592529042E0,5.609679826E-1,-1.083963854E0,4.778438187E-1,1.310724010E0
8.602499042E0,7.809534647E-1,-9.801687598E-2,9.755786955E-2,7.931034989E-1
8.612470042E0,5.376037148E-1,2.669113612E-1,-3.578455049E-1,6.987938425E-1
8.622440042E0,-1.474396440E-1,-6.242575139E-1,-5.477338332E-1,8.434739144E-1
8.632411042E0,-3.989170054E-1,-5.844028920E-1,-1.447160731E0,1.610880411E0
8.642381042E0,-8.547951738E-1,-1.393870962E-1,-1.613926245E0,1.831628094E0
8.652352042E0,-5.487982457E-1,-1.086737189E-1,-1.726337796E0,1.814726337E0
8.662322042E0,-1.564410305E-1,-1.167992729E0,-8.953203982E-1,1.479959265E0
8.672293042E0,1.916263401E-1,-1.698522299E0,2.701413631E-2,1.709511164E0
8.682263042E0,5.908169952E-1,-2.417416706E0,1.403042319E0,2.856833212E0
8.692233042E0,1.237838012E0,-1.849213817E0,3.099706666E0,3.815758915E0
8.702204042E0,1.076491624E0,-7.560902998E-1,3.583756135E0,3.817566606E0
8.712174042E0,1.535373434E0,-3.804987878E-2,2.291791032E0,2.758826836E0
8.722145042E0,1.320868767E0,1.169465058E0,-8.586560172E-1,1.962048158E0
8.732115042E0,8.756633748E-1,1.410188202E0,-4.085548979E0,4.409889746E0
8.742086042E0,-3.156538971E-1,9.272871262E-1,-5.230222135E0,5.321157992E0
8.752056042E0,-1.229386593E0,2.472670555E-2,-4.136301641E0,4.315204986E0
8.762027042E0,-1.397836251E0,-1.877748815E0,1.821058597E0,2.965828924E0
8.771997042E0,-1.731385259E0,-4.193354094E-1,4.116484843E0,4.485419107E0
8.781968042E0,-1.249933562E0,1.857767417E0,3.331816569E0,4.014303842E0
8.791938042E0,-6.836074837E-1,2.015333799E0,1.110409641E0,2.400395610E0
8.801909042E0,6.118074213E-2,8.519422442E-2,1.150142641E0,1.154915250E0
8.811879042E0,6.598975358E-1,6.082159701E-1,7.094075918E-1,1.143962655E0
8.821849042E0,1.380418437E-1,1.720979993E0,1.318541282E0,2.172413128E0
8.831820042E0,1.909578206E-1,1.582823735E0,-4.670989752E-1,1.661317947E0
8.841790042E0,2.204251014E-1,-4.187308073E-2,-6.935043347E-1,7.288956321E-1
8.851761042E0,6.483026808E-2,-8.968988541E-1,-1.778279198E0,1.992713583E0
8.861731042E0,9.634861054E-2,-1.017088079E-1,-1.141919702E0,1.150481787E0
8.871702042E0,1.768388779E-1,-9.313766688E-2,-4.783016557E-1,5.183812183E-1
8.881672042E0,-3.537982449E-1,-6.011633509E-1,-1.834482050E-1,7.212654272E-1
8.891643042E0,-8.620877115E-2,-3.922347343E-1,-3.240351498E-1,5.160221093E-1
8.901613042E0,-1.833326128E-1,7.285344189E-1,-1.205695868E-3,7.512487605E-1
8.911584042E0,-3.255694592E-1,1.462719002E-1,-7.064407146E-1,7.914855809E-1
8.921554042E0,-2.315682865E-2,-2.057426735E0,-7.799250126E-1,2.200414514E0
8.931525042E0,-3.283263666E-2,-3.806889977E0,-1.985316825E0,4.293596648E0
8.941495042E0,-5.148631257E-1,-3.365420517E0,-9.116452396E-1,3.524519306E0
8.951465042E0,-1.011445516E-1,-1.380339335E0,1.945207849E0,2.387341718E0
8.961436042E0,3.816294931E-1,2.027391342E0,3.635368922E0,4.179935876E0
8.971406042E0,2.632200688E-1,3.642363069E0,2.407178231E0,4.373854201E0
8.981377042E0,-1.699971970E-2,2.052066300E0,9.203786409E-1,2.249080241E0
8.991347042E0,-2.455186649E-1,-1.116523782E0,-1.071784104E0,1.567043693E0
9.001318042E0,-4.574919999E-1,-2.382024972E0,-2.562630553E0,3.528514878E0
9.011288042E0,-6.044219311E-1,-2.712405812E0,-1.020073083E0,2.960239898E0
9.021259042E0,-1.684592879E-1,-1.666873075E0,7.455205804E-1,1.833751705E0
9.031229042E0,7.481117740E-2,-5.857851738E-1,1.650794109E0,1.753243330E0
9.041200042E0,-9.923691580E-2,-4.348352087E-1,2.296461203E0,2.339372497E0
9.051170042E0,-4.776725318E-1,-4.123766381E-1,1.902717302E0,2.004634299E0
9.061141042E0,-6.072554918E-1,-1.105497980E-1,1.429897411E0,1.557429644E0
9.071111042E0,-7.146855810E-1,1.399867281E-1,1.004425934E0,1.240662412E0
9.081081042E0,-6.574260639E-1,-2.778842461E-1,5.083464038E-1,8.762675106E-1
9.091052042E0,-9.993462384E-1,3.245146215E-2,-3.761145455E-1,1.068273445E0
9.101021875E0,-1.644965605E0,-1.838867462E-1,-3.293374050E-1,1.687657934E0
9.110992875E0,-2.003021171E0,-2.501941717E-1,-9.585574508E-1,2.234619279E0
9.120962875E0,-1.911674067E0,6.947050604E-1,-1.036987324E0,2.283080281E0
9.130933875E0,-1.269599503E0,2.988666871E-1,-7.752963567E-1,1.517329442E0
9.140903875E0,-1.202970188E0,1.781042007E0,-4.970606929E-1,2.205973082E0
9.150874875E0,-1.271274145E0,1.383641258E0,-2.411672401E-1,1.894402998E0
9.160844875E0,-1.335620415E0,1.441860815E0,-2.721761942E-1,1.984168436E0
9.170815875E0,-1.084398302E0,-3.205335447E-1,1.263782108E-1,1.137819355E0
9.180785875E0,-1.010529404E0,-6.515736589E-1,-1.363236229E0,1.817726857E0
9.190756875E0,-1.159881910E0,-1.897655368E-2,-2.763134501E0,2.996764659E0
9.200726875E0,-1.160550977E0,-1.165774003E-1,-4.762352496E-1,1.259868594E0
9.210697875E0,-1.286989268E0,1.094227472E-1,2.135897831E0,2.496071765E0
9.220667875E0,-1.024632888E0,6.897641632E-1,1.296421850E0,1.790630272E0
9.230637875E0,-8.376399547E-1,9.134739563E-1,7.220516109E-1,1.434375785E0
9.240608875E0,-6.706678147E-1,-1.446495903E-1,3.704363143E-1,7.797062810E-1
9.250578875E0,-5.685689609E-1,-1.487686613E0,1.060591364E-1,1.596161227E0
9.260549875E0,-4.245480194E-1,-1.615305896E0,2.767019391E-1,1.692931812E0
9.270519875E0,9.138394073E-3,-5.495306826E-1,2.926747781E-1,6.226764867E-1
9.280490875E0,-8.068122643E-1,-8.820963353E-2,-7.328900099E-3,8.116530552E-1
9.290460875E0,-2.553673130E-1,-1.191699387E0,3.541787159E-1,1.269173927E0
9.300431875E0,-2.927624863E-1,-1.136236208E0,6.658165991E-2,1.175234322E0
9.310401875E0,1.371472837E-1,-8.293050411E-1,1.176471484E-1,8.487620869E-1
9.320372875E0,5.889216933E-1,-8.145639181E-2,1.038474271E0,1.196617197E0
9.330342875E0,4.870488345E-1,-2.921102294E-1,1.884416687E0,1.968139020E0
9.340313875E0,8.534263406E-2,-7.182895124E-2,8.964021331E-1,9.033158626E-1
9.350283875E0,-3.391239994E-1,-2.297309634E-1,2.283559906E-1,4.689646693E-1
9.360254875E0,-6.053270436E-1,-6.448739192E-1,-3.787107092E-1,9.621356467E-1
9.370224875E0,-4.411262645E-1,-1.497366386E0,2.555888128E-1,1.581778783E0
9.380195875E0,-4.674501005E-1,-1.559973694E0,-1.482941598E-1,1.635242697E0
9.390165875E0,-4.184115859E-1,-7.904768980E-1,-3.801473701E-1,9.718199444E-1
9.400135875E0,-6.357477312E-1,4.656620219E-1,5.854992449E-2,7.902179383E-1
9.410106875E0,-1.075809839E0,9.747024903E-1,9.226953077E-1,1.720109992E0
9.420076875E0,-1.238455478E0,1.139873761E-1,9.973356003E-1,1.594190513E0
9.430047875E0,-1.035342210E0,-5.404979038E-1,3.328550899E-1,1.214439783E0
9.440017875E0,-8.647472810E-1,-5.024556264E-1,-3.356377798E-1,1.054941816E0
9.449988875E0,-6.328339174E-1,-2.875660658E-1,-9.607969344E-2,7.017152676E-1
9.459958875E0,-4.013020847E-1,-2.617818913E-1,2.673089719E-1,5.486594647E-1
9.469929875E0,-5.427081513E-1,-4.362125203E-1,5.768746018E-2,6.986711268E-1
9.479899875E0,-6.711172828E-2,-7.471896681E-1,-8.275535077E-1,1.116978600E0
9.489870875E0,3.706137042E-2,-5.862646455E-1,-8.836914557E-1,1.061126933E0
9.499840875E0,-8.434042130E-3,-9.488022485E-1,6.319214594E-1,1.140009461E0
9.509811875E0,1.603442480E-1,-8.418400097E-1,6.233225441E-1,1.059686687E0
9.519781875E0,9.246545635E-2,-5.015191948E-1,9.025224137E-1,1.036637869E0
9.529752875E0,7.267938490E-1,-2.532174745E-1,6.753165704E-1,1.023914478E0
9.539722875E0,1.119720236E0,-1.529409420E-1,1.030055450E0,1.529110384E0
9.549693875E0,7.811862570E-1,-1.999607420E-1,9.101881135E-1,1.216009321E0
9.559663875E0,3.950897104E-1,8.613176697E-1,-3.346542782E-1,1.004966414E0
9.569633875E0,3.965549496E-1,1.258774845E0,-6.597027504E-1,1.475458456E0
9.579604875E0,1.981157262E-2,1.412131231E0,-1.418426929E0,2.001609868E0
9.589574875E0,-4.880208610E-2,6.838681233E-1,-1.533221220E0,1.679531055E0
9.599545875E0,-3.504464382E-1,2.965336481E-1,-6.898638582E-1,8.286477257E-1
9.609515875E0,-4.979558651E-1,7.152685484E-1,-2.383044434E-1,9.035253996E-1
9.619486875E0,-4.039248167E-1,7.237195292E-1,3.681991696E-1,9.069155656E-1
9.629456875E0,3.616871256E-1,7.765187171E-1,3.835504496E-1,9.385679742E-1
9.639427875E0,2.004737438E-1,-2.000274003E-1,4.405175328E-1,5.236949298E-1
9.649397875E0,6.568965986E-1,-1.630633494E-1,-2.308843267E-1,7.151296172E-1
9.659368875E0,6.121921864E-1,-3.594567052E-1,1.937182546E-2,7.101856543E-1
9.669338875E0,6.737196958E-1,-7.924544263E-1,-5.924691260E-2,1.041821694E0
9.679309875E0,1.319734845E0,-1.147441227E0,1.495366931E-2,1.748869648E0
9.689279875E0,1.280039122E0,-8.791443685E-1,3.830896890E-1,1.599422609E0
9.699250875E0,9.897568779E-1,-8.184295124E-1,1.121224067E0,1.704872122E0
9.709220875E0,7.112591857E-1,-6.854419014E-1,1.072634874E0,1.458172076E0
9.719191875E0,1.053059328E-1,-1.047818706E0,8.037173331E-1,1.324754668E0
9.729161875E0,6.818362159E-1,-9.893284231E-1,3.864717185E-2,1.202150140E0
9.739131875E0,1.283158136E-1,-1.177561989E-1,6.127712435E-1,6.370400829E-1
9.749102875E0,2.521417330E-1,-2.678916469E-1,1.613681831E0,1.655086234E0
9.759072875E0,7.062075203E-3,1.626060972E-1,5.611730736E-1,5.842994389E-1
9.769043875E0,2.841256372E-1,-1.658173880E-1,-4.465805107E-1,5.546683121E-1
9.779013875E0,9.222460588E-2,-1.605835453E-1,-1.057363701E-1,2.132431310E-1
9.788984875E0,9.096272193E-2,-3.892336509E-1,1.856970441E-1,4.407498655E-1
9.798954875E0,-4.137271256E-1,-2.879663077E-1,-8.017012131E-1,9.470055776E-1
9.808925875E0,-1.279636194E-1,-1.158304185E-1,-1.064222485E0,1.078128411E0
9.818895875E0,-5.463402590E-2,-3.479572785E-1,-2.335974348E-1,4.226427640E-1
9.828866875E0,-2.401907369E-2,-5.301228967E-1,5.070968539E-1,7.339989242E-1
9.838836875E0,-1.320312806E-1,-4.095582801E-1,3.083271897E-1,5.293731196E-1
9.848807875E0,-8.103223113E-2,-6.524799773E-1,4.630503631E-1,8.041840473E-1
9.858777875E0,-1.444958450E-2,-3.102441993E-1,8.701756167E-1,9.239403973E-1
9.868748875E0,-2.407916114E-1,-4.826031598E-1,5.164091295E-1,7.467026175E-1
9.878718875E0,-8.601543662E-1,-1.047320231E0,3.506861740E-1,1.399902137E0
9.888689875E0,-7.298959431E-1,-5.629348397E-1,-5.356920773E-1,1.066119000E0
9.898659875E0,-1.055047692E0,7.455667734E-2,-7.571378285E-1,1.300746717E0
9.908630875E0,-1.023235988E0,-9.344128355E-1,1.435087985E-1,1.393102297E0
9.918600875E0,-1.295570203E0,-1.001017007E0,7.706215078E-1,1.809528864E0
9.928571875E0,-1.156073984E0,-1.720934969E-1,5.777505147E-1,1.303809374E0
9.938541875E0,-1.739249472E0,3.530820706E-1,8.750293905E-1,1.978719815E0
9.948511875E0,-1.543372571E0,4.599864221E-1,1.434062383E0,2.156413996E0
9.958482875E0,-1.506520495E0,8.199550509E-2,4.719609350E-1,1.580846099E0
9.968452875E0,-1.523409593E0,-3.615888923E-2,-1.708667511E-1,1.533388306E0
9.978423875E0,-1.649687962E0,1.046172422E0,-7.504176235E-1,2.092623645E0
9.988393875E0,-1.507201988E0,1.009362738E0,-5.653959328E-1,1.900037771E0
9.998364875E0,-1.723113203E0,5.268086949E-1,-5.757314712E-1,1.891590135E0
1.000833487E1,-1.802586073E0,1.013000876E-1,-3.797661316E-1,1.844939179E0
1.001830587E1,-1.878176685E0,3.230452162E-1,-9.958860755E-2,1.908356298E0
1.002827587E1,-1.923814787E0,8.429655987E-1,-4.906936598E-1,2.156950302E0
1.003824687E1,-9.269605592E-1,4.584246308E-2,-7.059284985E-2,9.307742799E-1
1.004821688E1,-7.642562288E-1,-6.979412019E-1,6.563505417E-1,1.225563355E0
1.005818787E1,-4.874031026E-1,-1.229065142E0,1.915093519E0,2.327175562E0
1.006815787E1,-9.138228889E-1,-4.429643002E-1,1.772362400E0,2.042684048E0
1.007812888E1,-1.191741560E0,-3.949297160E-1,6.329113930E-1,1.405985156E0
1.008809887E1,-1.133353385E0,-4.586827853E-1,-2.497965610E-1,1.247909497E0
1.009806937E1,-9.204735120E-1,-8.857838818E-1,3.806344432E-1,1.332954294E0
1.010803937E1,-7.486636781E-1,-1.137273796E0,2.869217026E-1,1.391478729E0
1.011801037E1,-2.763710963E-1,8.286410898E-2,-1.046020103E-1,3.069023037E-1
1.012798037E1,-3.873213921E-1,-2.637819314E-1,8.918880826E-1,1.007503409E0
1.013795137E1,-1.704879977E-2,-7.870039442E-1,1.729441499E0,1.900166773E0
1.014792137E1,-5.044615503E-1,-2.966891840E-1,1.615222573E0,1.717978430E0
1.015789137E1,-1.721575605E-1,-6.466903567E-2,1.096666346E0,1.111979039E0
1.016786237E1,-5.614072181E-1,7.095596194E-2,1.729781806E-1,5.917214413E-1
1.017783237E1,5.896997385E-2,-3.118820044E-1,-1.387503344E-1,3.464094366E-1
1.018780337E1,-1.437783551E-1,-2.074299753E-1,-4.502642566E-1,5.161756589E-1
1.019777337E1,-2.691538781E-1,-3.634059146E-1,-8.870752394E-1,9.956958116E-1
1.020774437E1,-1.578036510E-1,-4.193450573E-1,-5.332040870E-1,6.964616772E-1
1.021771438E1,2.009466556E-1,-8.182672521E-1,1.257911503E-1,8.519179936E-1
1.022768537E1,2.672721892E-1,-1.204857084E0,9.276636869E-1,1.543915455E0
1.023765537E1,6.524365617E-1,-7.495104280E-1,6.805755562E-1,1.204417883E0
1.024762637E1,7.028495740E-2,9.115019828E-2,-1.223822236E-1,1.680051860E-1
1.025759637E1,7.367355774E-1,1.885434687E-2,-1.935089242E-1,7.619583330E-1
1.026756737E1,7.728804334E-1,-3.617470595E-1,-1.691181997E0,1.894281301E0
1.027753737E1,1.122659924E-2,-1.597230398E0,-1.387105733E0,2.115498356E0
1.028750837E1,-2.638926082E-1,-1.634534464E0,-1.063456500E0,1.967811462E0
1.029747837E1,-2.163260388E-1,-7.699701279E-1,-9.727305168E-1,1.259307592E0
1.030744937E1,-1.365837034E-1,-2.428664410E-1,5.356973398E-1,6.038301550E-1
1.031741938E1,3.443651146E-1,-4.699661574E-1,2.717025697E-2,5.832613000E-1
1.032739037E1,5.687113041E-1,-1.015154698E0,-7.498060048E-2,1.166016165E0
1.033736037E1,7.852576733E-1,-4.260991761E-1,4.625065720E-1,1.006033027E0
1.034733138E1,1.300972154E0,-4.251203522E-1,4.644583726E-1,1.445329526E0
1.035730137E1,1.407886738E0,-1.026678975E0,5.732265240E-1,1.834340053E0
1.036727237E1,1.519475586E0,-5.596975288E-1,5.427882582E-1,1.707830926E0
1.037724237E1,1.292185689E0,3.736443892E-1,-2.979928207E-1,1.377734991E0
1.038721237E1,1.298146048E0,2.845775539E-1,-4.546444058E-2,1.329749812E0
1.039718337E1,1.873053208E0,-1.862770879E-1,-8.972610891E-2,1.884430484E0
1.040715337E1,1.906650871E0,-4.502326816E-2,4.826771271E-1,1.967313357E0
1.041712438E1,1.640887025E0,5.866382825E-1,1.435374498E-1,1.748501560E0
1.042709437E1,1.138884193E0,5.470494166E-1,3.772015429E-1,1.318560303E0
1.043706537E1,7.128669508E-1,7.276585060E-1,5.713472289E-1,1.167948563E0
1.044703537E1,2.564003515E-1,6.738126665E-1,9.390277505E-2,7.270367123E-1
1.045700637E1,2.716306901E-2,3.903761968E-1,-4.040969807E-1,5.625173572E-1
1.046697637E1,3.547770688E-1,3.462694797E-1,-2.752342880E-1,5.670301883E-1
1.047694737E1,1.604700910E-1,6.611195308E-1,-8.770823479E-4,6.803164362E-1
1.048691737E1,8.188438516E-3,9.864846298E-1,-8.976586998E-2,9.905942089E-1
1.049688837E1,6.469087137E-2,8.087503240E-1,-8.681045330E-1,1.188220298E0
1.050685837E1,-3.043064797E-1,3.529180562E-1,-1.500648721E0,1.571337065E0
1.051682938E1,-1.477258378E-1,-8.136979455E-1,-2.164284309E0,2.316906092E0
1.052679937E1,-2.283199389E-1,-9.881984487E-1,-1.114428433E0,1.506856629E0
1.053677037E1,-2.768063119E-1,-9.263664821E-1,-3.467106521E-2,9.674599093E-1
1.054674037E1,-1.551842629E-1,5.034192476E-1,2.472921985E-1,5.819506214E-1
1.055671137E1,-2.124962587E-1,-2.089794874E-1,6.770654726E-1,7.397599207E-1
1.056668137E1,-9.663753608E-2,-6.494461495E-1,5.813126385E-1,8.769512519E-1
1.057665237E1,-2.916270667E-1,-1.094277173E0,3.873569870E-1,1.196885255E0
1.058662237E1,-7.379369610E-1,-5.873349783E-1,-6.091278434E-2,9.451051277E-1
1.059659237E1,-4.545883457E-1,-4.917473280E-1,-4.648314250E-1,8.151897032E-1
1.060656337E1,-4.515145375E-1,-6.508298931E-1,-3.321434838E-1,8.589320235E-1
1.061653337E1,-6.582540297E-1,-1.502163442E0,-2.656682432E-1,1.661437026E0
1.062650437E1,-6.711957452E-1,-1.178384400E0,6.333411634E-1,1.496734630E0
1.063647437E1,-1.129110133E0,-1.194233863E0,2.504480578E0,2.995581275E0
1.064644537E1,-7.089499741E-1,-7.005437976E-1,2.612289201E0,2.795966121E0
1.065641537E1,-6.382879809E-1,-3.645440751E-1,1.770918138E0,1.917408402E0
1.066638637E1,-1.395843520E0,-1.819668129E-1,1.335470726E0,1.940353863E0
1.067635637E1,-5.924582355E-1,-3.629395992E-1,1.701884741E-1,7.153293159E-1
1.068632737E1,-2.612300786E-1,-1.015096518E0,-9.333033264E-2,1.052317749E0
1.069629737E1,-1.122302001E0,-1.359084999E0,-3.729395074E-1,1.801598649E0
1.070626837E1,-9.398857563E-1,-1.143950440E0,-3.670010751E-1,1.525351642E0
1.071623837E1,-1.443431231E0,-7.954131174E-1,5.716623938E-1,1.744412118E0
1.072620837E1,-1.441065301E0,-1.836765388E-1,8.930955327E-1,1.705293495E0
1.073617937E1,-1.749642167E0,5.635283321E-1,-6.735817015E-2,1.839388218E0
1.074614937E1,-1.705035074E0,6.608724859E-1,-1.006520991E0,2.087338390E0
1.075612037E1,-5.690742700E-1,-3.825274792E-1,-2.563740939E-1,7.320522339E-1
1.076609037E1,-5.946445095E-1,-5.118056166E-1,-1.251239830E-1,7.944829092E-1
1.077606137E1,-9.461576991E-1,4.529510522E-1,-1.143931729E-1,1.055208437E0
1.078603137E1,-9.942756792E-1,5.717866471E-1,1.932990092E-1,1.163137396E0
1.079600237E1,-9.609123438E-1,9.216536263E-1,-2.612834162E-1,1.356859227E0
1.080597237E1,-6.406261363E-1,1.534994681E0,-1.269926362E0,2.092683321E0
1.081594337E1,-2.264805328E-1,2.413963341E0,-2.416555996E0,3.423193731E0
1.082591337E1,5.427447695E-1,2.139250332E0,-1.194707195E0,2.509639247E0
1.083588437E1,9.774821104E-1,1.205220489E0,1.490132504E0,2.151400144E0
1.084585437E1,7.550073954E-1,1.154262004E0,2.330206069E0,2.707806726E0
1.085582438E1,4.882384505E-1,1.801473641E0,5.737948734E-1,1.952671150E0
1.086579537E1,1.121663046E0,4.613821524E-1,3.017040485E-1,1.249810711E0
1.087576537E1,1.236244353E0,-9.042909041E-1,8.027332467E-1,1.729283900E0
1.088573637E1,1.452109522E0,-1.015552601E0,2.678808296E-1,1.792129819E0
1.089570637E1,1.174632096E0,5.192248562E-1,-6.562037766E-1,1.442206091E0
1.090567737E1,1.704710700E0,3.658459577E-1,-5.940800339E-1,1.841958990E0
1.091564737E1,1.538558120E0,-1.457281677E0,-3.273809266E-1,2.144296912E0
1.092561837E1,1.398136505E0,-2.745893401E0,-3.294736451E-1,3.098914187E0
1.093558837E1,9.185881504E-1,-1.604246179E0,4.598876041E-1,1.904968924E0
1.094555937E1,6.653844899E-1,-7.657832292E-1,1.430706666E0,1.753876289E0
1.095552938E1,2.874140930E-1,-6.415193716E-1,1.270342684E0,1.451869312E0
1.096549937E1,-1.897200747E-1,-1.366017165E0,4.127292252E-1,1.439563134E0
1.097547037E1,-4.665913638E-1,-5.669857907E-1,-2.037941766E-1,7.620449160E-1
1.098544037E1,-1.503404386E-1,-1.470352542E-1,9.505643070E-2,2.307755153E-1
1.099541137E1,-6.843977349E-1,-1.401867029E-1,-4.671574473E-2,7.001677884E-1
1.100538137E1,-3.656906228E-2,-9.537337902E-1,-9.331548071E-1,1.334812096E0
1.101535237E1,-2.619678327E-1,-7.185748565E-1,-8.857596159E-1,1.170276492E0
1.102532237E1,-5.026680265E-1,6.860508889E-2,1.595044416E-1,5.318114986E-1
1.103529337E1,-1.119739057E-1,1.195907044E0,-1.404968977E-2,1.201219883E0
1.104526337E1,-5.013758650E-1,2.681936556E-1,6.995784223E-2,5.728871569E-1
1.105523337E1,-1.596033692E-1,-1.349366049E0,9.106278241E-2,1.361820253E0
1.106520437E1,-2.873392669E-1,-1.770698283E0,-1.436491317E-1,1.799603105E0
1.107517437E1,-6.815941411E-1,-7.912022451E-1,8.091377020E-2,1.047434296E0
1.108514537E1,-6.474236341E-2,-6.250001103E-1,5.251349294E-1,8.188915713E-1
1.109511575E1,-5.571412540E-2,-1.382331482E0,1.502535617E-1,1.391589207E0
1.110508675E1,5.401684132E-1,-1.836232706E0,-3.332550395E-1,1.942830767E0
1.111505675E1,1.264754938E0,-1.025084732E0,2.621534818E-1,1.648977929E0
1.112502675E1,7.011411638E-1,-5.315092716E-1,1.384565118E0,1.640463838E0
1.113499775E1,4.087137960E-1,-8.585229930E-1,1.600878768E0,1.861967112E0
1.114496775E1,-6.415340262E-2,-5.722509161E-1,9.560940188E-1,1.116110453E0
1.115493875E1,4.065072030E-1,2.749802265E-1,2.570909625E-1,5.540378995E-1
1.116490875E1,9.032123121E-1,5.342308581E-3,-4.153745055E-2,9.041827143E-1
1.117487975E1,1.082859900E0,-1.980621511E-1,-7.688223195E-1,1.342721839E0
1.118484975E1,1.033788020E0,8.620900869E-2,-7.643994856E-1,1.288586915E0
1.119481975E1,6.779283755E-1,6.250840178E-1,-2.677925366E-1,9.602238042E-1
1.120479075E1,6.571027403E-2,1.041081252E0,5.227200294E-1,1.166792287E0
1.121476075E1,-3.590149115E-1,1.002125639E0,7.267808390E-1,1.288936729E0
1.122473175E1,-6.326292649E-1,1.125722037E0,-8.737833488E-1,1.559155936E0
1.123470175E1,-7.362678002E-1,8.608484307E-1,-1.755414246E0,2.089169564E0
1.124467275E1,-5.954944754E-1,1.262480810E0,-1.516695235E0,2.061270458E0
1.125464275E1,-6.737154566E-1,1.065488407E0,-6.337183088E-1,1.410941869E0
1.126461275E1,-5.435959779E-1,1.019873401E0,-8.967231452E-1,1.462788686E0
1.127458375E1,-5.545095867E-1,7.224594542E-1,-7.828076899E-2,9.140877548E-1
1.128455375E1,-1.021960857E0,2.154310128E-1,5.608842212E-1,1.185498049E0
1.129452475E1,-1.421821676E0,-4.457469901E-1,8.085143888E-1,1.695276607E0
1.130449475E1,-1.089819548E0,4.092293742E-1,1.433123320E-1,1.172908246E0
1.131446575E1,-1.443688654E0,-1.791548869E-1,-3.287444973E-1,1.491444383E0
1.132443575E1,-1.133726875E0,-7.885356224E-1,4.667411256E-1,1.457728484E0
1.133440575E1,-1.264487574E0,-1.256378656E0,9.023142529E-1,1.997895684E0
1.134437675E1,-1.643376039E0,-5.544642708E-1,7.893711895E-1,1.905576634E0
1.135434675E1,-1.128532063E0,-1.474723336E-1,1.200807595E-1,1.144444011E0
1.136431775E1,-7.762716722E-1,-3.893006015E-1,-1.214875996E-2,8.685046113E-1
1.137428775E1,-6.678330114E-1,-1.256421925E0,5.432279688E-1,1.523054041E0
1.138425875E1,-7.163385158E-1,-7.718488383E-1,1.088899489E0,1.514791601E0
1.139422875E1,-6.915944148E-1,-1.759333634E-1,1.052396491E0,1.271532051E0
1.140419875E1,-3.290246520E-1,-1.753252530E-1,1.406326700E0,1.454905823E0
1.141416975E1,-2.905794284E-1,-1.138715720E0,8.667088026E-1,1.460237667E0
1.142413975E1,-6.663682839E-1,-3.338760138E-1,-1.035076454E0,1.275501136E0
1.143411075E1,-5.654679632E-1,-1.120226239E0,-8.038734537E-1,1.490259499E0
1.144408075E1,-7.399175591E-1,-8.438938442E-1,-3.461686152E-1,1.174507354E0
1.145405075E1,-5.182076599E-1,-1.156550605E0,1.762701631E-2,1.267461712E0
1.146402175E1,3.219949832E-1,-6.810594133E-1,1.228985327E-1,7.632999037E-1
1.147399175E1,5.507595115E-1,-5.262116942E-1,1.341299230E0,1.542503942E0
1.148396275E1,4.459453935E-1,-1.448157974E0,2.021497056E0,2.526356895E0
1.149393275E1,-1.819379423E-1,-9.975729972E-1,1.271026808E0,1.625965082E0
1.150390275E1,-2.767482417E-1,3.728155464E-1,-2.383512211E-1,5.219121818E-1
1.151387375E1,-3.186871402E-1,2.614506465E-1,-1.719060352E0,1.767791398E0
1.152384375E1,1.186618230E-1,-6.785319543E-1,-6.180822694E-1,9.254792991E-1
1.153381475E1,-8.524878625E-2,-1.117182179E0,6.834225655E-2,1.122512379E0
1.154378475E1,-3.123897986E-1,5.340963721E-2,-1.580233419E-1,3.541346526E-1
1.155375475E1,-6.178266730E-2,5.035607502E-1,7.853354412E-1,9.349557649E-1
1.156372575E1,-5.373424539E-1,-2.954200459E-1,1.692354949E0,1.800020885E0
1.157369575E1,-3.547149056E-1,-1.070417610E-1,8.638992155E-1,9.400013071E-1
1.158366675E1,-7.042279820E-1,4.063285705E-1,-1.898532450E-1,8.349156919E-1
1.159363675E1,-9.727219652E-1,1.801556086E0,-6.779413855E-1,2.156709734E0
1.160360675E1,-4.932715510E-1,1.213564173E0,-4.744115031E-1,1.393241221E0
1.161357775E1,-5.240842944E-1,-9.390803754E-2,-1.948149583E0,2.019596461E0
1.162354775E1,-5.851572924E-1,1.396487591E-1,-1.914554991E0,2.006846194E0
1.163351875E1,-1.903267599E-1,4.128868076E-1,-1.510838664E-1,4.790888499E-1
1.164348875E1,2.539345624E-1,6.265274030E-1,1.261902228E0,1.431578353E0
1.165345875E1,2.568478645E-1,8.972438398E-1,1.030457153E0,1.390273095E0
1.166342975E1,6.401370898E-1,7.885955563E-1,4.890511769E-1,1.127310737E0
1.167339975E1,4.319695614E-1,4.251510501E-1,-2.951463962E-1,6.741383482E-1
1.168337075E1,7.690947998E-1,-1.081077084E-1,-3.722688317E-2,7.775473802E-1
1.169334075E1,2.864142191E-1,-8.021836084E-1,-4.159767687E-1,9.479284354E-1
1.170331175E1,5.956333833E-1,-1.011489955E0,-1.173862456E0,1.660073529E0
1.171328175E1,-4.268832877E-4,-4.046384329E-1,-1.747872507E0,1.794098867E0
1.172325175E1,4.292623005E-1,-1.378235215E0,-6.487064767E-1,1.582598661E0
1.173322275E1,-6.699973583E-2,-1.478792998E0,1.972752328E0,2.466387934E0
1.174319275E1,4.742071063E-1,-7.279210460E-1,2.733331828E0,2.868073275E0
1.175316275E1,4.057045265E-1,6.045977131E-1,1.438071819E0,1.611888679E0
1.176313375E1,5.833974633E-1,3.481224623E-1,9.650659865E-1,1.180209391E0
1.177310375E1,-9.248281527E-2,-4.450605270E-1,4.881279016E-1,6.670088396E-1
1.178307475E1,-2.968921007E-1,-8.569252414E-1,-7.643316579E-1,1.186030637E0
1.179304475E1,-7.133532199E-1,1.480085233E-1,-1.553374819E0,1.715736771E0
1.180301475E1,-4.312284999E-1,-1.169826123E-1,-8.899836445E-1,9.958483008E-1
1.181298575E1,-2.013899842E-1,-6.271287891E-1,-3.212179613E-1,7.328229135E-1
1.182295575E1,-2.160418276E-1,-6.644313937E-1,1.904467374E-1,7.241637301E-1
1.183292675E1,-3.648957121E-1,1.471811423E-1,1.180795500E0,1.244624112E0
1.184289675E1,6.901987575E-2,4.608933252E-1,1.381964276E0,1.458427805E0
1.185286675E1,-2.109828714E-1,1.027762172E-1,1.272055333E0,1.293522900E0
1.186283775E1,1.128603527E-1,-8.757649702E-1,-1.342684436E-1,8.931571850E-1
1.187280775E1,2.809998984E-1,-8.103436902E-1,-1.008029573E0,1.323533702E0
1.188277875E1,7.280688344E-1,-7.666328296E-1,9.794805425E-1,1.441246771E0
1.189274875E1,3.390707898E-1,-5.116003793E-1,2.088963985E0,2.177263071E0
1.190271875E1,-6.754523720E-1,-3.214193979E-1,2.455421269E-1,7.872974484E-1
1.191268975E1,-8.139799275E-1,-2.968078825E-1,-1.129452853E0,1.423489371E0
1.192265975E1,-7.687683789E-1,-2.108359784E-1,-9.348832440E-1,1.228602177E0
1.193263075E1,-8.244919787E-1,-8.796483985E-1,-7.732276118E-1,1.432288123E0
1.194260075E1,-6.345430586E-1,-1.163450612E0,-2.483815348E-1,1.348315840E0
1.195257075E1,-9.342050767E-2,-1.407975908E0,6.440988708E-1,1.551124400E0
1.196254175E1,3.756692069E-1,-1.427484266E0,9.842793524E-1,1.774160231E0
1.197251175E1,7.360347886E-1,-1.170883007E0,5.598942876E-1,1.492044182E0
1.198248275E1,7.984207790E-1,-7.518270949E-1,3.045440412E-1,1.138185747E0
1.199245275E1,8.504083733E-1,-5.500586861E-1,1.172904097E0,1.549665442E0
1.200242275E1,7.248563741E-1,4.280483454E-1,1.151377573E0,1.426293260E0
1.201239375E1,2.078207703E-1,1.253771382E0,2.508683556E-1,1.295402286E0
1.202236375E1,9.932944799E-2,1.394027082E0,-5.090737975E-1,1.487391669E0
1.203233375E1,8.381239031E-3,6.748195571E-1,-3.114946264E-1,7.432903753E-1
1.204230475E1,-9.076227938E-1,8.317059079E-1,2.100390029E-1,1.248851567E0
1.205227475E1,-1.365008228E0,1.500752217E0,5.058075428E-1,2.090776399E0
1.206224575E1,-1.423472783E0,2.012349965E0,-8.714128876E-1,2.614419164E0
1.207221575E1,-1.031921735E0,1.441937413E0,-1.325453861E0,2.213791749E0
1.208218575E1,-9.858248446E-1,-1.604975912E-1,2.694537306E-1,1.034512162E0
1.209215675E1,-6.631436907E-1,2.380141291E-1,6.529059470E-2,7.075826043E-1
1.210212637E1,-5.849025000E-1,-1.166449648E0,-1.566907614E-1,1.314255573E0
1.211209737E1,1.972878701E-1,-1.042255957E0,-4.822806859E-1,1.165253039E0
1.212206737E1,-2.540419319E-1,-1.013414566E0,-1.267091632E-3,1.044771741E0
1.213203737E1,-9.679577636E-2,-7.907400227E-1,9.887688446E-1,1.269764952E0
1.214200837E1,-2.032709239E-1,-7.007443571E-1,1.649507137E0,1.803672786E0
1.215197837E1,-9.958420387E-2,-5.424073121E-1,5.785685402E-1,7.992898483E-1
1.216194937E1,2.732815738E-1,-7.447043091E-1,4.789951354E-1,9.266626497E-1
1.217191937E1,5.702020517E-1,-1.241174433E0,5.037002063E-1,1.455801584E0
1.218188937E1,-1.125438630E-1,-7.496589473E-1,3.006872177E-1,8.155166836E-1
1.219186037E1,1.584402849E-1,3.296180713E-1,5.531559563E-1,6.631235999E-1
1.220183037E1,1.871378346E-1,1.928777173E-1,-6.192201376E-3,2.688135531E-1
1.221180037E1,2.104358096E-3,-3.255820307E-1,-5.312821072E-1,6.231121605E-1
1.222177137E1,2.396884976E-1,-5.240163571E-1,-8.540431488E-1,1.030258908E0
1.223174137E1,1.412543314E-1,-1.216659397E-2,1.494080544E-2,1.425624067E-1
1.224171237E1,3.750090197E-1,4.157338169E-1,6.839897454E-2,5.640432529E-1
1.225168237E1,-5.470962309E-1,-7.522016090E-1,5.917200977E-1,1.102385695E0
1.226165237E1,-5.766811321E-1,-1.509619227E0,6.108434165E-1,1.727611362E0
1.227162337E1,-4.227941471E-1,-6.879252139E-1,6.528679401E-1,1.038379766E0
1.228159337E1,-5.224270473E-1,-4.589611128E-1,5.148824215E-1,8.652625213E-1
1.229156437E1,-1.692223130E-1,-6.227430850E-1,-7.984431446E-2,6.502463039E-1
1.230153438E1,2.159757175E-1,-1.768855240E0,-6.149452382E-1,1.885113264E0
1.231150437E1,4.183439409E-1,-1.521420954E0,-2.028410804E-1,1.590873307E0
1.232147537E1,4.138806516E-1,-3.022928631E-1,7.135678858E-1,8.785540942E-1
1.233144537E1,4.068775875E-1,3.151415348E-1,1.362504158E0,1.456461856E0
1.234141637E1,3.339819214E-1,-5.689001691E-1,2.029405416E0,2.133934785E0
1.235138637E1,-2.407075211E-1,-6.835023800E-1,1.769381490E0,1.912021566E0
1.236135637E1,-5.932377425E-1,2.110643122E-1,8.906052035E-1,1.090713891E0
1.237132737E1,-1.334043713E0,9.175775322E-1,-2.267614549E-1,1.634944009E0
1.238129737E1,-1.950879210E0,-2.330437034E-1,-9.076381427E-1,2.164265708E0
1.239126737E1,-2.309170419E0,-6.314335093E-1,-2.180729603E0,3.238295524E0
1.240123837E1,-2.322388781E0,-3.053728840E-1,-2.473033082E0,3.406264064E0
1.241120837E1,-1.791339246E0,-4.805855781E-2,-1.137444243E0,2.122495071E0
1.242117937E1,-1.741191917E0,-5.710765028E-1,-3.264594054E-1,1.861304222E0
1.243114937E1,-1.419035770E0,-8.180620149E-1,1.197697461E0,2.029129662E0
1.244111937E1,-1.054012296E0,4.424170008E-1,1.031114380E0,1.539438725E0
1.245109037E1,-1.120044245E0,1.014711186E0,9.706997788E-1,1.796217126E0
1.246106037E1,-9.743561889E-1,6.392714095E-1,7.424437755E-1,1.381759993E0
1.247103137E1,-1.080677573E0,-2.861130327E-2,-4.480007994E-1,1.170208246E0
1.248100137E1,-1.192459891E0,2.947490779E-1,-1.175047687E0,1.699874900E0
1.249097137E1,-5.533188743E-1,4.385806426E-1,-7.039234883E-1,9.970070381E-1
1.250094237E1,-5.813451637E-1,5.421959352E-1,-6.424575573E-1,1.022100946E0
1.251091238E1,2.675090380E-1,-1.771180093E-1,-4.225151253E-1,5.305194678E-1
1.252088337E1,4.226535947E-1,-5.986034399E-1,2.959386939E-1,7.902796024E-1
1.253085337E1,5.872003461E-1,4.759808958E-2,1.548677750E0,1.656946770E0
1.254082337E1,6.246406527E-1,8.459839314E-2,1.490606713E0,1.618406996E0
1.255079437E1,3.359196887E-1,-1.463271564E-1,3.176032126E-1,4.848973857E-1
1.256076437E1,2.545134551E-1,-8.609720993E-1,-4.204522276E-1,9.913778948E-1
1.257073437E1,2.453938634E-1,-1.202366755E0,-5.335385478E-1,1.338120826E0
1.258070538E1,2.706916958E-1,-1.180161369E0,1.142072314E-1,1.216181789E0
1.259067537E1,9.270749453E-2,-6.984148264E-1,6.450449502E-1,9.552282121E-1
1.260064637E1,-4.087181814E-1,-4.638420761E-1,9.786707032E-1,1.157582122E0
1.261061637E1,-1.862772524E-1,-2.833280039E-1,1.184696177E0,1.232265801E0
1.262058637E1,-4.568837798E-1,-4.517763466E-2,8.629192221E-1,9.774525005E-1
1.263055737E1,-3.694417761E-1,2.413505504E-1,3.357330894E-1,5.544853663E-1
1.264052737E1,-2.162152341E-2,-2.666330338E-2,-1.002292285E0,1.002879976E0
1.265049837E1,2.774599941E-1,-1.087214321E0,-1.144842140E0,1.603022943E0
1.266046837E1,3.896603149E-1,-1.498468879E0,-3.162367183E-1,1.580268902E0
1.267043837E1,1.854378298E-1,-9.676510406E-1,-4.890464991E-1,1.099955546E0
1.268040937E1,3.944224700E-1,-9.163475704E-1,-1.811905950E-1,1.013948710E0
1.269037937E1,4.398484652E-1,-9.558917052E-1,9.051612622E-1,1.387988665E0
1.270035037E1,2.531434159E-1,-1.033309425E0,1.324929950E0,1.699190787E0
1.271032037E1,-3.200901979E-2,-7.776478145E-1,1.602897227E-1,7.946404821E-1
1.272029038E1,2.511993446E-1,-6.839771739E-1,-1.138482124E-1,7.374871528E-1
1.273026137E1,-3.883028107E-1,-9.895871624E-1,4.133314884E-1,1.140572113E0
1.274023137E1,-6.916164149E-1,-6.700070062E-1,-4.881314099E-2,9.641708233E-1
1.275020237E1,-7.860815459E-1,-5.254802075E-1,-2.803061628E-1,9.862176181E-1
1.276017237E1,-7.213750881E-1,-8.618626302E-1,-2.447504139E-1,1.150257352E0
1.277014237E1,-8.135149276E-1,-5.787462956E-1,-2.182023007E-1,1.021942296E0
1.278011337E1,-5.376770608E-1,-1.404121131E-1,8.624163616E-1,1.025950371E0
1.279008338E1,-4.821785058E-1,2.507949731E-1,6.717129314E-1,8.640558386E-1
1.280005337E1,-2.137472888E-1,-1.873769492E-2,6.420687175E-1,6.769721136E-1
1.281002437E1,4.047600549E-1,1.194954532E-1,-6.485439241E-2,4.269847276E-1
1.281999437E1,6.771281840E-1,7.768493772E-2,-1.209228755E0,1.388082026E0
1.282996537E1,5.267248239E-1,5.670957184E-1,-5.386805892E-1,9.429811086E-1
1.283993537E1,9.689085574E-1,6.977011737E-1,-4.229302776E-1,1.266665204E0
1.284990537E1,4.730882051E-1,7.199977764E-1,-4.841898018E-1,9.882555399E-1
1.285987637E1,4.621540580E-1,4.461171189E-1,-8.159432763E-1,1.038446093E0
1.286984637E1,6.904335232E-1,1.297947389E-1,2.225198847E-1,7.369261994E-1
1.287981737E1,2.356370349E-1,2.330732319E-1,8.178711033E-1,8.824744105E-1
1.288978737E1,-2.322058157E-2,5.914452785E-1,1.243380588E0,1.377077339E0
1.289975737E1,5.410925200E-2,9.801412779E-1,5.778382230E-1,1.139079342E0
1.290972837E1,-1.978359369E-1,3.650720787E-1,-1.462581593E-1,4.402364475E-1
1.291969837E1,3.712567152E-1,2.003706318E-1,-5.250606698E-1,6.735492897E-1
1.292966937E1,3.638259640E-1,2.014392105E-1,9.621850634E-1,1.048211421E0
1.293963937E1,7.304510631E-1,9.045204073E-2,8.274330550E-1,1.107423039E0
1.294960937E1,3.899011836E-1,-3.903221101E-1,2.353919452E-1,5.998196816E-1
1.295958037E1,5.064543910E-1,-4.172812825E-1,-2.245365894E-1,6.935678762E-1
1.296955037E1,5.151726992E-1,-5.442471385E-1,1.206865311E-3,7.494059743E-1
1.297952137E1,5.801931891E-1,5.368854940E-2,-5.649527138E-1,8.115899001E-1
1.298949137E1,4.913340761E-1,-5.499277085E-1,-4.731344712E-1,8.761768581E-1
1.299946138E1,8.573026060E-1,-1.119914583E0,-7.319392526E-1,1.588997011E0
1.300943237E1,9.071474882E-1,-1.256101498E0,-3.234936976E-1,1.582831548E0
1.301940237E1,1.061465450E0,-7.521279341E-1,-1.634133053E-1,1.311148061E0
1.302937338E1,1.325613782E0,-6.172844169E-1,1.940954000E-1,1.475115241E0
1.303934337E1,1.124742775E0,-5.975377849E-1,6.218537235E-1,1.417321335E0
1.304931337E1,6.642560504E-1,-7.078952095E-1,7.951716274E-1,1.254850447E0
1.305928437E1,5.428580228E-1,-3.076103210E-2,3.231937355E-1,6.325308409E-1
1.306925437E1,1.606470424E-1,3.695817438E-1,-2.617242962E-1,4.805182044E-1
1.307922537E1,-1.673028731E-1,-1.235230154E-1,6.247732383E-1,6.584753496E-1
1.308919537E1,-2.340647552E-1,-3.288272354E-1,1.075466096E0,1.148712751E0
1.309916562E1,-8.980028084E-1,2.600227565E-2,9.341476643E-1,1.296038974E0
1.310913662E1,-1.156097226E0,8.467133716E-1,1.651516825E-1,1.442483764E0
1.311910662E1,-1.168704920E0,4.511360765E-1,7.461631894E-2,1.254975117E0
1.312907762E1,-1.204522478E0,-4.527879149E-1,1.062934343E0,1.669047846E0
1.313904762E1,-1.488396611E0,-1.065386665E0,7.039936548E-1,1.961117101E0
1.314901762E1,-1.216470386E0,-1.360735960E0,1.376867259E-1,1.830398915E0
1.315898862E1,-7.508162574E-1,-1.682117643E0,2.518120962E-1,1.859207936E0
1.316895862E1,-6.489395613E-1,-1.651961798E0,-1.241270328E-1,1.779187415E0
1.317892962E1,-3.613565021E-1,-1.025901880E0,-5.157828927E-3,1.087694715E0
1.318889962E1,3.478358757E-1,-3.948472703E-1,6.518534482E-2,5.302294715E-1
1.319886962E1,5.890085245E-1,-4.221619534E-1,-2.963585240E-1,7.829304769E-1
1.320884062E1,3.641110157E-1,-1.081396927E0,-5.207530260E-1,1.254264669E0
1.321881062E1,4.621720747E-1,-1.318886560E0,-1.480456531E-1,1.405340635E0
1.322878162E1,-4.654246250E-1,-7.627189958E-1,3.073957282E-1,9.449087161E-1
1.323875163E1,-9.213133914E-1,2.661380669E-1,8.672286201E-1,1.292955264E0
1.324872162E1,-1.450278905E0,5.367931080E-1,6.137798882E-1,1.663785291E0
1.325869262E1,-1.412989457E0,-2.261907667E-1,-5.280661386E-1,1.525304990E0
1.326866262E1,-7.290954593E-1,-1.071487066E0,-8.838616097E-1,1.568717969E0
1.327863362E1,-5.301742791E-1,-1.747667562E0,-2.852061296E-1,1.848450489E0
1.328860362E1,-1.441728229E-1,-1.025799554E0,8.254748225E-1,1.324560006E0
1.329857362E1,-1.254337393E0,-2.035535637E-1,1.614675273E0,2.054743922E0
1.330854462E1,-9.637540175E-1,-3.203879490E-1,2.691266958E0,2.876523611E0
1.331851462E1,-8.531296675E-1,-1.717210293E-1,1.935119063E0,2.121792669E0
1.332848562E1,-1.253856605E0,9.838978216E-1,1.442274213E-2,1.593869294E0
1.333845562E1,-4.915774664E-1,1.314583595E0,-1.077348315E0,1.769309985E0
1.334842562E1,-3.485668507E-1,1.453565186E-1,-1.139513572E0,1.200465972E0
1.335839662E1,-6.675057136E-1,-5.605860132E-1,-5.186907130E-1,1.014327665E0
1.336836662E1,-1.448731439E0,4.432189465E-4,-3.030360442E-1,1.480085749E0
1.337833762E1,-1.220055167E0,1.601306784E-1,2.244336784E-1,1.250818501E0
1.338830762E1,-1.096689734E0,-5.285608131E-1,7.520203453E-1,1.430957549E0
1.339827762E1,-1.167251886E0,-1.502697878E0,1.243252534E0,2.272939669E0
1.340824862E1,-1.303490257E0,-7.175700125E-1,8.839615971E-1,1.730717099E0
1.341821862E1,-9.559563900E-1,3.527429321E-1,1.592074031E-1,1.031323030E0
1.342818962E1,-4.735434108E-1,2.980624026E-1,-6.231026888E-2,5.629983369E-1
1.343815962E1,-3.424380916E-1,-3.861141613E-1,9.215387285E-2,5.242521611E-1
1.344812963E1,-6.469319198E-1,-5.818529212E-1,1.397595638E-1,8.812527824E-1
1.345810062E1,-6.536223771E-1,-2.589936465E-1,3.302788067E-1,7.767779676E-1
1.346807062E1,-4.601502903E-1,-1.512888113E-1,-1.462704384E-1,5.059858054E-1
1.347804162E1,4.236636646E-3,-2.858826524E-1,1.798463202E-1,3.377743905E-1
1.348801162E1,1.697900046E-1,-1.133982691E-1,-6.516832942E-1,6.829194162E-1
1.349798162E1,4.708721834E-1,-6.134606302E-3,-1.523296741E0,1.594425040E0
1.350795262E1,8.805675077E-1,-6.403815034E-1,-1.140716929E0,1.576934596E0
1.351792262E1,1.212188981E0,-1.266974688E0,-6.397479576E-1,1.866522016E0
1.352789362E1,8.813103233E-1,-5.393474641E-1,-4.201721460E-1,1.115413917E0
1.353786362E1,7.527876462E-1,1.590591761E-1,7.690988928E-1,1.087888859E0
1.354783463E1,3.549658243E-1,-2.050296932E-1,1.379852262E0,1.439454819E0
1.355780462E1,1.000100822E-1,-1.215864176E0,7.728048581E-1,1.444145096E0
1.356777462E1,1.051445588E-1,-1.983096929E0,7.037065566E-1,2.106877246E0
1.357774562E1,1.168462900E-1,-1.376849717E0,8.344456208E-1,1.614208070E0
1.358771562E1,2.045049787E-1,-3.549026012E-1,1.058749491E0,1.135221841E0
1.359768662E1,7.236903662E-1,2.820878094E-1,1.545886874E-1,7.919589261E-1
1.360765662E1,1.257133970E0,-7.609946519E-2,-6.210830605E-1,1.404251087E0
1.361762662E1,1.667878796E0,-4.863319293E-1,-8.623929727E-1,1.939603069E0
1.362759762E1,1.534514332E0,-1.199778485E-1,-4.898440593E-1,1.615263484E0
1.363756762E1,1.006217813E0,5.308453202E-2,2.249745458E-1,1.032427141E0
1.364753862E1,1.445416909E-1,-3.136101490E-1,6.423850518E-1,7.293162420E-1
1.365750862E1,-6.152332136E-1,-6.374388921E-1,9.293044156E-1,1.283918590E0
1.366747862E1,-1.159117021E0,-8.387538493E-1,1.415844213E0,2.012877325E0
1.367744962E1,-1.307375293E0,-1.677522317E-1,1.240638244E0,1.810125471E0
1.368741962E1,-8.422321386E-1,-5.733165711E-2,2.389757037E-2,8.445193829E-1
1.369739062E1,-5.032285552E-2,-4.439720678E-1,-9.400363952E-1,1.040822757E0
1.370736062E1,6.327839237E-1,-3.540269807E-1,-8.644272190E-1,1.128266376E0
1.371733162E1,5.618445533E-1,1.259186196E-1,1.033828658E-1,5.849895877E-1
1.372730162E1,7.702946484E-1,1.861829478E-1,6.319869483E-1,1.013619967E0
1.373727162E1,5.007548907E-1,-1.756532818E-1,9.717516929E-1,1.107208602E0
1.374724262E1,-2.183638117E-2,-5.808132863E-1,7.048134345E-1,9.135550769E-1
1.375721263E1,-2.372535891E-1,-7.454545069E-1,2.497339958E-1,8.211934949E-1
1.376718362E1,-3.024678228E-1,-5.530384272E-1,-2.787373549E-1,6.892262320E-1
1.377715362E1,-3.916796874E-1,-4.408771366E-1,-5.163529962E-1,7.838405729E-1
1.378712362E1,1.625358209E-1,-2.200932902E-1,-5.626810706E-1,6.256747851E-1
1.379709462E1,2.096766217E-1,-5.437580189E-1,2.018488079E-1,6.167495522E-1
1.380706462E1,-5.973911659E-1,-9.478301489E-1,8.008159447E-1,1.377158079E0
1.381703562E1,-4.944119042E-1,-1.081254547E0,2.733134776E-1,1.219940484E0
1.382700562E1,4.714865796E-4,-8.874368897E-1,-2.604121810E-1,9.248561832E-1
1.383697662E1,-5.525445202E-3,-9.326767972E-1,6.398801047E-1,1.131089336E0
1.384694662E1,8.964517065E-2,-7.953157613E-1,2.022920269E-1,8.255213388E-1
1.385691662E1,-1.264887962E-2,-8.523401472E-1,3.392355716E-1,9.174554451E-1
1.386688762E1,8.690217784E-2,-7.443841740E-1,8.372201246E-1,1.123653561E0
1.387685762E1,-6.170210363E-3,-2.346741995E-1,-2.963561851E-1,3.780701520E-1
1.388682862E1,1.840432688E-1,1.851552996E-1,-7.537832808E-1,7.977115044E-1
1.389679862E1,5.091574126E-1,-2.789981407E-1,-3.823090857E-1,6.951557167E-1
1.390676862E1,2.890747205E-1,-6.911154547E-1,-1.621725261E-1,7.664885479E-1
1.391673962E1,-4.121105897E-1,-1.199891044E0,1.546050596E0,1.999961525E0
1.392670962E1,-5.682100881E-1,-7.549296275E-1,3.175504122E0,3.313096418E0
1.393668062E1,-6.144292945E-1,3.996256149E-1,2.216795229E0,2.334824421E0
1.394665062E1,-1.426553699E-1,9.346718672E-1,7.138280869E-3,9.455226115E-1
1.395662062E1,6.345124338E-1,1.993198872E-2,-1.493002902E0,1.622362776E0
1.396659162E1,1.271929033E0,-4.780341455E-1,-1.889252334E0,2.327142989E0
1.397656162E1,8.998632462E-1,-2.032816681E-1,-1.311462058E0,1.603436943E0
1.398653262E1,9.642961275E-1,7.529219860E-1,-4.003173405E-1,1.287249980E0
1.399650262E1,5.377718223E-1,2.213100958E-1,6.311829561E-1,8.582357575E-1
1.400647362E1,-1.964559209E-1,-5.228594854E-1,6.774747777E-1,8.780370407E-1
1.401644362E1,-9.289634498E-1,-7.791286218E-1,1.357982506E0,1.820475484E0
1.402641362E1,-8.903683182E-1,-3.156376711E-1,1.808896388E0,2.040707972E0
1.403638462E1,-2.963374557E-1,3.837708896E-1,1.023711805E0,1.132732026E0
1.404635462E1,5.002655518E-1,4.630322367E-1,-1.151558252E0,1.338189404E0
1.405632562E1,8.750079750E-1,-9.714417905E-2,-1.743611056E0,1.953267893E0
1.406629563E1,9.773268668E-1,-5.190485626E-1,-6.631619632E-1,1.290101936E0
1.407626662E1,4.285673955E-1,-7.564118966E-1,5.960189706E-1,1.054071906E0
1.408623662E1,9.860838580E-2,-8.458710802E-1,7.044169933E-1,1.105180889E0
1.409620662E1,-3.640295202E-1,-8.419391200E-1,4.373629600E-1,1.016201423E0
1.410617762E1,-7.027270018E-1,6.712662041E-2,-6.046325040E-1,9.294684971E-1
1.411614762E1,-8.024229788E-1,6.269098109E-1,4.729806894E-1,1.122768578E0
1.412611862E1,-6.144857202E-1,6.603667018E-1,4.656722546E-2,9.032415998E-1
1.413608862E1,-1.079331178E0,-1.246588370E0,4.058979231E-1,1.698143540E0
1.414605962E1,-1.070755213E0,-2.300960928E0,5.902542007E-1,2.605635803E0
1.415602962E1,-1.816334339E0,-1.239591007E0,6.390065306E-1,2.289975031E0
1.416599962E1,-1.896926074E0,1.835215876E-1,1.118071833E0,2.209545955E0
1.417597062E1,-1.164461814E0,8.425896227E-2,7.938092262E-1,1.411808761E0
1.418594062E1,-4.114869111E-1,-2.794507152E-1,-6.277518100E-1,8.009285331E-1
1.419591162E1,-1.680780860E-1,-2.742604342E-1,-7.323561591E-1,7.998840994E-1
1.420588162E1,1.544443526E-1,5.952377826E-2,-7.038182384E-1,7.230188455E-1
1.421585262E1,-3.294595387E-3,-9.801453710E-2,-3.922692329E-1,4.043424970E-1
1.422582262E1,-2.793636282E-1,-4.392931259E-1,-5.436682642E-2,5.234293066E-1
1.423579262E1,-7.077132149E-1,-2.885217932E-1,3.925399590E-1,8.591800970E-1
1.424576362E1,-7.587099255E-1,-3.400059423E-1,9.361667079E-1,1.252059462E0
1.425573362E1,-8.970348018E-1,-5.149689603E-1,1.132851255E-1,1.040527744E0
1.426570462E1,-1.300002978E0,-9.202842084E-1,-3.669864571E-1,1.634505988E0
1.427567462E1,-1.098171711E0,-1.406989482E0,3.542214006E-1,1.819635489E0
1.428564562E1,-4.830610334E-1,-7.269425145E-1,1.031609640E0,1.351300052E0
1.429561562E1,-5.446213603E-1,-4.565020663E-1,1.496515324E0,1.656672773E0
1.430558562E1,-2.387248947E-1,-8.393239528E-2,8.715923971E-1,9.075833455E-1
1.431555662E1,-6.823863292E-2,-1.943725580E-1,3.188276196E-1,3.795895854E-1
1.432552662E1,5.557149902E-1,-5.611192793E-2,-3.907273221E-1,6.816417967E-1
1.433549762E1,4.307684336E-1,4.380883071E-1,-4.493415660E-1,7.611771483E-1
1.434546762E1,8.009161513E-1,4.134487250E-1,-3.798631954E-1,9.781117405E-1
1.435543862E1,7.107544249E-1,-3.605665067E-1,-3.377907246E-1,8.656111320E-1
1.436540862E1,5.983137835E-1,-4.078193182E-1,1.452851826E-1,7.385145659E-1
1.437537863E1,-1.063651833E-1,-2.614290118E-1,6.339913738E-1,6.939767593E-1
1.438534962E1,-3.937238739E-1,-5.932292640E-2,1.448286320E0,1.502022291E0
1.439531962E1,-3.730815216E-1,-2.994943857E-2,1.041286197E0,1.106509708E0
1.440529062E1,-4.836294193E-2,-1.245255205E-1,-6.603208011E-1,6.736981073E-1
1.441526062E1,4.905133463E-1,2.714014381E-2,-1.108727397E0,1.212689726E0
1.442523162E1,8.293117654E-1,-3.303343552E-1,-7.925725400E-2,8.961922243E-1
1.443520162E1,3.672523958E-1,-6.451604328E-1,2.352317315E-1,7.787427520E-1
1.444517162E1,2.634464839E-2,-6.566630754E-1,2.615424478E-1,7.073223361E-1
1.445514262E1,-9.587056411E-2,-6.152250275E-1,7.501995224E-1,9.749319581E-1
1.446511262E1,-2.570389040E-1,-7.333633420E-1,1.078370408E0,1.329200333E0
1.447508363E1,-6.591627601E-1,-4.833334771E-1,5.312423462E-1,9.748462570E-1
1.448505362E1,-2.130925834E-1,1.652247727E-2,-2.850219423E-1,3.562568580E-1
1.449502462E1,3.320193766E-1,5.465538651E-2,-9.159020126E-1,9.757564114E-1
1.450499462E1,7.701326805E-1,-6.314817488E-1,-7.335858285E-1,1.236940464E0
1.451496462E1,3.002996021E-1,-1.084435432E0,-1.333545238E-1,1.133121126E0
1.452493562E1,-2.450564791E-1,-1.127523272E0,8.168197739E-1,1.413702921E0
1.453490562E1,-5.009504069E-1,-9.475524062E-1,1.505867361E0,1.848362351E0
1.454487662E1,-4.343569064E-1,-8.883993414E-1,1.357463273E0,1.679471896E0
1.455484662E1,-5.333451146E-1,-1.287313935E0,1.812907578E0,2.286540633E0
1.456481762E1,-1.329350409E-1,-1.060698660E0,6.004248476E-1,1.226076413E0
1.457478762E1,4.130372638E-2,-1.306284934E0,3.736955523E-2,1.307471915E0
1.458475762E1,9.276419060E-1,-1.368786991E0,-2.296102184E-1,1.669376586E0
1.459472862E1,1.023290148E0,-1.755603696E0,-2.160698211E-1,2.043514920E0
1.460469862E1,1.489998310E0,-1.789197996E0,6.308829939E-1,2.412330364E0
1.461466962E1,1.083747361E0,-1.452501578E0,1.235365224E0,2.193261593E0
1.462463962E1,5.885529533E-1,-1.215342312E0,1.264315374E0,1.849849961E0
1.463461062E1,9.790572772E-1,-1.415534896E0,1.722728310E0,2.435176590E0
1.464458062E1,1.427731749E0,-8.389108470E-1,1.470871775E0,2.214870907E0
1.465455162E1,1.447829652E0,1.805371687E-1,7.277684337E-1,1.630475779E0
1.466452162E1,1.979614766E0,7.424914303E-1,3.447249377E-1,2.142195936E0
1.467449162E1,2.137897286E0,2.769505920E0,-8.914600664E-1,3.610466576E0
1.468446262E1,-1.768814164E0,6.170385414E0,-1.872080231E0,6.686332635E0
1.469443262E1,2.184334850E-1,9.885065970E-1,-1.695860354E0,1.975044511E0
1.470440362E1,-1.401937927E0,-2.016502073E0,-1.578756997E0,2.919620560E0
1.471437363E1,-4.200961614E0,-5.706528720E-1,-2.620829644E0,4.984222227E0
1.472434362E1,-3.124872497E0,7.320012331E-1,-2.320409644E0,3.960423569E0
1.473431462E1,-1.144451400E0,-8.351788616E-1,2.356088769E-1,1.436246595E0
1.474428462E1,6.893218213E-1,9.390628338E-1,3.597834476E0,3.781721366E0
1.475425562E1,2.716734798E-1,3.884074101E0,3.256222596E0,5.075709181E0
1.476422562E1,1.220356299E-1,2.875399580E0,-2.182835770E-1,2.886254174E0
1.477419662E1,-1.442373469E0,-3.341394308E-1,-4.736642289E0,4.962647535E0
1.478416663E1,-2.066708897E0,-1.069801313E0,-4.580037482E0,5.137363512E0
1.479413762E1,-2.026663364E0,8.217159399E-1,-1.270154988E0,2.529006756E0
1.480410762E1,-1.547928722E0,2.514619065E0,1.825542827E0,3.471598909E0
1.481407762E1,-4.356259715E-1,1.529520225E0,1.361344655E0,2.093432917E0
1.482404862E1,-1.152392796E0,2.069244835E-1,1.247002353E0,1.710509213E0
1.483401862E1,-1.521546377E0,1.364325273E0,8.324815410E-1,2.206697158E0
1.484398962E1,-2.258523299E0,1.624200972E0,4.085917354E-2,2.782198009E0
1.485395962E1,-2.506349055E0,8.642816234E-1,-8.403314281E-1,2.781173353E0
1.486393062E1,-2.553611223E0,-7.191344351E-1,-1.090564191E0,2.868347062E0
1.487390062E1,-2.535840072E0,-9.152556029E-1,-1.290175855E0,2.988767543E0
1.488387163E1,-1.838199125E0,-6.531430516E-1,-2.744039834E-2,1.950980483E0
1.489384162E1,-1.370703416E0,-1.481682985E0,1.187084180E0,2.341662053E0
1.490381162E1,-5.424916947E-1,-2.286989298E0,1.604459603E0,2.845858027E0
1.491378262E1,-3.973040510E-1,-2.491715814E0,2.070891995E0,3.264213820E0
1.492375262E1,-6.911092786E-2,-7.176238069E-1,1.546410785E0,1.706208242E0
1.493372362E1,-6.150836711E-1,-7.388790205E-1,3.958038747E-1,1.039678237E0
1.494369362E1,1.030724335E-1,-1.638650612E0,-2.151447916E-1,1.655924828E0
1.495366462E1,-1.885484023E-2,-2.339823570E0,-8.808953172E-1,2.500221271E0
1.496363462E1,1.956176495E-1,-1.919751119E0,-5.513725555E-1,2.006918613E0
1.497360562E1,2.379323412E-1,-1.223497131E0,3.974311548E-1,1.308246365E0
1.498357562E1,7.028747901E-2,-1.625143543E0,1.369488072E0,2.126388828E0
1.499354562E1,-1.823397100E-2,-1.245513360E0,1.537014894E0,1.978396015E0
1.500351662E1,3.879175157E-1,-7.570062661E-1,1.477510704E0,1.704868431E0
1.501348662E1,2.928433150E-2,2.854268619E-1,1.170725425E0,1.205373007E0
1.502345762E1,1.563349218E-1,-1.441771352E-1,-9.005530715E-2,2.309493721E-1
1.503342762E1,-4.568614507E-1,-1.857020143E-1,-3.673012712E0,3.705972208E0
1.504339862E1,6.708680818E-1,-7.962010297E-1,-2.419883646E0,2.634357023E0
1.505336862E1,-3.795830407E-1,-1.008145348E0,6.100288993E-1,1.237972368E0
1.506333962E1,-4.163917749E-1,-3.429804209E-1,3.754863791E0,3.793417953E0
1.507330962E1,-9.226988161E-1,1.395673658E0,2.827651509E0,3.285557962E0
1.508327962E1,2.766007092E-1,2.274056427E0,8.461154938E-2,2.292378612E0
1.509325062E1,1.061509231E0,1.532665150E0,-2.138626142E0,2.837179248E0
1.510322075E1,1.700223839E0,6.469757009E-1,-2.590523525E0,3.165462177E0
1.511319175E1,1.069025242E0,-8.200135231E-2,-1.873122205E0,2.158269210E0
1.512316175E1,5.533026848E-1,-2.420720968E-1,1.281060630E-1,6.173766472E-1
1.513313275E1,1.130748596E0,-2.345376670E-1,1.141570038E0,1.623817249E0
1.514310275E1,1.767219628E0,-8.908048859E-1,1.461585227E0,2.460249974E0
1.515307375E1,2.547982693E0,-1.041808938E0,5.969282126E-1,2.816718828E0
1.516304375E1,2.954875812E0,1.303490549E-1,-7.359551203E-1,3.047935675E0
1.517301375E1,2.798926477E0,-3.364686692E-1,-5.056134152E-1,2.864061018E0
1.518298475E1,2.125418743E0,1.270015240E-2,4.933430332E-1,2.181960925E0
1.519295475E1,1.158362949E0,-1.850439101E-2,7.368105680E-1,1.372966477E0
1.520292575E1,5.867567983E-1,6.440190563E-1,-4.129344624E-1,9.641363780E-1
1.521289575E1,5.429438672E-1,9.168697268E-1,-1.240106732E0,1.635023806E0
1.522286675E1,8.201056167E-1,-1.614346075E-1,-8.370751137E-1,1.182932416E0
1.523283675E1,6.994231787E-1,3.408786392E-1,-5.247110063E-1,9.384629293E-1
1.524280775E1,4.560030795E-1,1.589872846E0,1.475971717E-1,1.660547922E0
1.525277775E1,5.927283038E-1,2.495983112E0,5.888339120E-1,2.632106364E0
1.526274775E1,1.278226485E0,1.762073640E0,6.359320647E-1,2.267857149E0
1.527271875E1,1.119824682E0,-7.603906345E-1,1.249043616E0,1.841822790E0
1.528268875E1,1.088701853E0,-4.421834046E-1,5.342203331E-1,1.290809534E0
1.529265975E1,7.924243862E-1,6.013343820E-1,2.115943623E-1,1.017011121E0
1.530262975E1,1.833294627E0,6.563195515E-1,7.028762519E-2,1.948503244E0
1.531260075E1,1.436178344E0,-8.554777631E-1,-8.738318807E-1,1.886274793E0
1.532257075E1,8.035841627E-1,-7.532032371E-1,-9.928010845E-1,1.482807006E0
1.533254175E1,1.284650820E-1,-1.432151513E0,-4.264304209E-1,1.499801366E0
1.534251175E1,-2.801315869E-1,-1.705156842E0,3.601867300E-1,1.765153830E0
1.535248175E1,-4.230918800E-1,-1.968945498E0,9.330741155E-1,2.219545093E0
1.536245275E1,2.437607361E-1,-1.399611466E0,1.739018068E0,2.245554585E0
1.537242275E1,4.137782522E-1,-7.553889263E-1,2.327600550E0,2.481843910E0
1.538239375E1,1.198379685E0,2.815940121E-1,2.353390279E0,2.655909423E0
1.539236375E1,1.040117996E0,-5.056449902E-1,1.692347932E0,2.049771652E0
1.540233475E1,1.076535259E0,-6.067003718E-1,-1.537320703E-1,1.245249796E0
1.541230475E1,1.646689218E-2,-5.269186226E-1,-1.371884846E0,1.469687866E0
1.542227575E1,-8.165015392E-3,-5.402765867E-1,-1.811335847E0,1.890212424E0
1.543224575E1,-1.410166055E-1,-8.410827953E-1,-1.683618624E0,1.887293729E0
1.544221675E1,1.678231291E-2,-9.293479773E-1,-9.231560683E-1,1.310032990E0
1.545218675E1,-3.151796513E-1,-3.933021435E-1,7.078323519E-1,8.689369523E-1
1.546215675E1,2.397945332E-1,5.179443160E-1,1.761765491E0,1.851913977E0
1.547212775E1,8.815168762E-1,3.234559831E-1,1.311353300E0,1.612868021E0
1.548209775E1,6.716360405E-1,-1.239986864E-1,2.767095405E-1,7.369116738E-1
1.549206875E1,5.497455312E-1,-6.436343095E-1,-6.131203222E-1,1.045180273E0
1.550203875E1,3.297759827E-1,-6.978739589E-1,-6.311700922E-1,9.970736917E-1
1.551200975E1,3.175191589E-2,-1.994160739E-1,-1.707129693E-1,2.644198793E-1
1.552197975E1,-3.681882061E-2,-7.689088583E-2,-3.842965543E-1,3.936390168E-1
1.553195075E1,-6.250729081E-1,7.888537109E-2,-5.111232466E-1,8.112866419E-1
1.554192075E1,-1.284205116E0,2.367140007E-1,-4.725281149E-1,1.388704115E0
1.555189075E1,-1.380682274E0,-4.666999027E-1,-7.162616980E-1,1.623922154E0
1.556186175E1,-1.505985475E0,-1.709728780E-1,-7.267252904E-1,1.680878824E0
1.557183175E1,-1.279020829E0,2.384348363E-2,-4.776502758E-1,1.365508176E0
1.558180275E1,-9.813998180E-1,3.434253940E-1,-2.127591276E-1,1.061297814E0
1.559177275E1,-6.087206214E-1,6.105282515E-1,3.530811936E-1,9.316393455E-1
1.560174375E1,-5.909788900E-1,5.192619860E-1,1.059811930E0,1.319882717E0
1.561171375E1,-4.008541149E-1,1.011492002E0,-2.137595862E-1,1.108825167E0
1.562168475E1,-3.222922410E-1,8.331998715E-1,-4.314923555E-1,9.921088485E-1
1.563165475E1,1.131978923E-2,1.034022785E0,5.347559381E-1,1.164171453E0
1.564162575E1,4.397549828E-1,1.331468892E0,-3.295490742E-1,1.440415373E0
1.565159575E1,1.754752341E-1,1.610328746E0,-1.061299462E0,1.936570880E0
1.566156675E1,4.603008561E-1,6.614645165E-1,-6.436837184E-1,1.031378163E0
1.567153675E1,2.037144717E-1,-5.698328000E-1,-4.010043883E-1,7.259569722E-1
1.568150675E1,2.401590523E-1,-1.247477439E0,1.611247051E-1,1.280561401E0
1.569147775E1,-3.436106046E-1,-1.392691578E0,7.094917917E-1,1.600323930E0
1.570144775E1,-1.044789702E0,-9.906072092E-1,4.518827659E-1,1.509001723E0
1.571141875E1,-7.314061327E-1,-1.137898864E0,4.368460661E-1,1.421479244E0
1.572138875E1,-4.959858285E-1,-1.821447729E0,8.946251643E-1,2.089025600E0
1.573135975E1,-6.171562897E-1,-1.728013316E0,7.814944053E-1,1.994403523E0
1.574132975E1,-6.374334104E-1,-6.859298515E-1,4.139793599E-1,1.023816402E0
1.575130075E1,-4.035903925E-1,-8.447946078E-1,-1.804462445E-1,9.534799324E-1
1.576127075E1,-8.917404039E-2,-6.830416194E-1,-4.353263748E-1,8.148661950E-1
1.577124175E1,1.110801039E-1,-5.082119179E-1,-1.647850621E-1,5.456851287E-1
1.578121175E1,1.056331302E0,-3.018455511E-1,8.692418164E-1,1.400902527E0
1.579118175E1,1.544330930E0,2.857890970E-1,1.123225569E0,1.930872628E0
1.580115275E1,1.564895149E0,5.595332220E-1,1.249107351E0,2.079000584E0
1.581112275E1,1.446392845E0,8.811964488E-1,1.278917626E0,2.122307644E0
1.582109375E1,1.555798343E0,9.680056742E-1,5.372638088E-1,1.909501472E0
1.583106375E1,7.641260552E-1,6.298246479E-1,-5.618647993E-1,1.138534043E0
1.584103475E1,7.194002641E-1,2.991470611E-1,-1.117226910E0,1.362065223E0
1.585100475E1,4.473946259E-1,-7.598959601E-1,-1.399714669E0,1.654329162E0
1.586097575E1,3.669809753E-1,-4.536398542E-1,-8.724495989E-1,1.049586803E0
1.587094575E1,-3.399854770E-1,-2.986234429E-1,-3.840860546E-2,4.541379815E-1
1.588091675E1,-2.884595934E-1,-6.862929636E-1,1.372029272E0,1.560984078E0
1.589088675E1,-4.934755457E-1,1.620123124E-1,1.349939661E0,1.446410451E0
1.590085675E1,-2.789934812E-1,-2.018561170E-1,1.271943651E0,1.317734384E0
1.591082775E1,1.515906920E-1,-2.644988000E-2,3.016473305E-1,3.386302498E-1
1.592079775E1,4.206597307E-1,2.615848401E-1,-2.571570361E-1,5.581316859E-1
1.593076875E1,4.664201865E-1,-5.712817401E-2,-8.779588455E-1,9.958027682E-1
1.594073875E1,9.421165422E-1,-3.877192220E-1,-9.546064872E-1,1.396131555E0
1.595070975E1,5.709202360E-1,-7.439161044E-1,-4.933541429E-1,1.059603415E0
1.596067975E1,9.255760116E-1,-3.826309749E-1,-1.952028626E-1,1.020392853E0
1.597065075E1,1.157937857E0,-5.254041937E-1,-2.390341759E-3,1.271564139E0
1.598062075E1,1.694648519E0,-5.262786448E-1,5.360148436E-1,1.853676004E0
1.599059175E1,1.917816129E0,-1.910837916E-1,3.152678347E-1,1.952927425E0
1.600056175E1,1.993750118E0,2.101325583E-1,-4.601817191E-1,2.056930344E0
1.601053275E1,1.920668693E0,-2.888018748E-1,-5.439465916E-1,2.016990988E0
1.602050275E1,2.109310395E0,-7.354250702E-1,-5.791088229E-1,2.307684425E0
1.603047275E1,1.207909039E0,-6.717377821E-1,-2.670090097E-1,1.407682388E0
1.604044375E1,6.675330493E-1,-2.531686503E-1,-8.640781403E-2,7.191391018E-1
1.605041375E1,1.043550750E-1,4.653588438E-1,1.916097486E-1,5.139680252E-1
1.606038475E1,-2.125586047E-1,7.637410891E-1,9.215562701E-2,7.981066791E-1
1.607035475E1,-1.149278733E-1,9.164940432E-1,9.057003754E-1,1.293623947E0
1.608032575E1,-1.415876958E-1,1.065001919E0,9.911796516E-1,1.461750069E0
1.609029575E1,-7.414811046E-1,1.177588010E0,6.640367067E-1,1.541898990E0
1.610026679E1,-4.749342442E-1,7.728715163E-1,5.743076742E-2,9.089506093E-1
1.611023679E1,-5.173867474E-1,5.852843598E-1,-2.318245590E-1,8.148554806E-1
1.612020779E1,-6.023153621E-1,-7.293787569E-2,-7.797782475E-1,9.880070062E-1
1.613017779E1,-1.028134055E0,-6.845627725E-1,-9.165218174E-1,1.538082594E0
1.614014779E1,-7.807203070E-1,-9.824731475E-1,1.129951036E-1,1.259978403E0
1.615011879E1,-3.988808989E-1,-6.472999290E-1,8.628361917E-1,1.150038896E0
1.616008879E1,-6.134865772E-1,-7.299342424E-2,1.231104943E0,1.377429926E0
1.617005979E1,-6.555400445E-1,-9.053343397E-1,1.461976406E0,1.840309221E0
1.618002979E1,-2.874944557E-1,-5.972977567E-1,8.762298238E-1,1.098724887E0
