"Time (s)","Linear Acceleration x (m/s^2)","Linear Acceleration y (m/s^2)","Linear Acceleration z (m/s^2)","Absolute acceleration (m/s^2)"
1.634208311E-3,9.171165524E-1,-8.269842812E-1,-8.979551536E-1,1.526869094E0
1.160420832E-2,7.831982108E-1,-2.536960691E-2,-2.814393532E-1,8.326170572E-1
2.157320833E-2,1.185633778E0,1.476466391E0,5.605807507E-1,1.974824356E0
3.154320834E-2,1.632890519E0,1.693750971E0,-6.078841406E-1,2.429947927E0
4.151320836E-2,1.211184868E0,-6.395865744E-1,-9.335155803E-1,1.657555764E0
5.148320831E-2,8.292026418E-1,-1.349301730E0,1.551268067E0,2.216895305E0
6.145320833E-2,-4.142326539E-1,5.049015167E-1,1.820524746E0,1.934121140E0
7.142320834E-2,5.190892373E-1,1.748482956E0,-9.352165353E-1,2.049701503E0
8.139283332E-2,8.357885800E-1,3.612281191E-1,-3.452630569E0,3.570670267E0
9.136283334E-2,3.885353837E-1,-5.236526603E-1,-3.362837217E0,3.425470187E0
1.013328334E-1,-4.871400510E-1,-8.558025759E-1,-7.064769673E-1,1.211946032E0
1.113028333E-1,-6.943643139E-1,-3.051749557E-2,1.663829892E0,1.803164725E0
1.212728333E-1,-1.105333162E-1,8.366810113E-2,7.753624302E-1,7.876578339E-1
1.312418333E-1,-3.037257051E-1,-1.139568244E0,-4.721702653E-1,1.270358157E0
1.412118333E-1,3.102470864E-1,-8.833391610E-1,-1.223900004E0,1.540932363E0
1.511818334E-1,1.439860482E0,1.232563239E0,-2.975955609E0,3.528274668E0
1.611518333E-1,1.237119243E0,1.788639295E0,-9.028837717E-1,2.354759787E0
1.711218333E-1,-3.783548331E-1,-1.273044682E0,2.835514260E0,3.131123802E0
1.810918333E-1,-9.619983179E-1,-1.407913635E0,3.154685696E0,3.586042862E0
1.910618333E-1,-1.150298616E0,-1.049525508E-1,4.295717205E0,4.448301727E0
2.010318333E-1,-2.070367208E0,1.859499070E0,2.591735069E0,3.802794740E0
2.110018333E-1,-7.250697975E-1,1.264691935E0,-9.265193868E-1,1.727312964E0
2.209718333E-1,3.274679405E-1,5.689399302E-2,-1.961422178E0,1.989384111E0
2.309418333E-1,1.308605547E0,-3.282121083E-1,1.151831317E0,1.773946744E0
2.409108334E-1,7.358051392E-1,1.671995236E0,1.460584769E0,2.338864070E0
2.508808333E-1,1.459897428E0,3.287598462E0,-8.387257826E-1,3.693651999E0
2.608508333E-1,9.343683967E-1,4.665949452E-1,-1.831583585E0,2.108424429E0
2.708208333E-1,-8.879697172E-1,-6.815277752E-1,-1.034032141E0,1.523874272E0
2.807908333E-1,-3.546997906E0,6.094690284E-1,-1.194418927E0,3.792002533E0
2.907608333E-1,-2.542649447E0,2.660322031E0,-2.044813998E0,4.209945820E0
3.007308333E-1,-1.759138191E0,4.008699024E-1,-2.692716483E0,3.241293864E0
3.107008333E-1,-1.188706856E0,-1.995849414E0,-1.556891919E0,2.796489106E0
3.206708333E-1,2.811540456E-1,-1.951243053E0,1.444135382E0,2.443752043E0
3.306408334E-1,1.040913217E0,9.018552464E-1,2.446145246E0,2.807217444E0
3.406108333E-1,3.061012424E0,8.263989750E-1,-5.087077618E-3,3.170608491E0
3.505798333E-1,2.310534866E0,-1.145643501E0,-1.659781864E0,3.066911514E0
3.605498333E-1,1.193608357E0,8.474281937E-2,-2.688460879E0,2.942737527E0
3.705198333E-1,8.755817331E-1,3.227696369E0,-3.118678542E0,4.572835343E0
3.804898333E-1,1.318145718E0,1.900140727E0,-1.692725662E0,2.865896558E0
3.904598333E-1,6.739013980E-1,-1.330533922E0,1.221344771E0,1.927730962E0
4.004298333E-1,9.788560599E-1,-2.465926961E0,6.137141070E0,6.686064274E0
4.103998333E-1,1.475539607E0,5.263023260E-1,5.688898196E0,5.900658773E0
4.203698334E-1,1.217278178E0,3.105956755E0,-1.036456397E0,3.493275739E0
4.303398333E-1,9.291487335E-1,9.948695371E-1,-4.101575028E0,4.321573842E0
4.403098333E-1,7.199549456E-1,-1.520123165E0,-1.813843718E0,2.473689267E0
4.502798333E-1,1.754501057E0,-8.190040013E-1,1.173140910E0,2.263912787E0
4.602488333E-1,2.801289045E0,6.119362611E-1,2.568422220E0,3.849477757E0
4.702188333E-1,2.587803401E0,2.259443066E-1,1.564790922E0,3.032548087E0
4.801888333E-1,9.263820503E-1,-2.317880431E0,6.980768573E-1,2.591922972E0
4.901588333E-1,-9.659746438E-3,-2.178254476E0,1.153710612E0,2.464940983E0
5.001288333E-1,-7.296165924E-1,8.152328396E-1,-9.521980190E-1,1.450388231E0
5.100988334E-1,-2.058777588E-1,-4.221601993E-1,-2.491109165E0,2.535000938E0
5.200688333E-1,-3.342164679E-1,-2.456851206E0,-2.602861735E0,3.594816783E0
5.300388333E-1,-5.697097161E-1,-3.090924733E0,7.071844804E-1,3.221567127E0
5.400088333E-1,-7.009685978E-1,6.303760403E-1,1.665442554E0,1.913747587E0
5.499788334E-1,-8.148882193E-1,1.296046459E0,-3.160244644E-1,1.563218058E0
5.599488333E-1,-1.824584614E0,-1.652315847E0,-1.832807407E0,3.068947648E0
5.699178333E-1,-1.977221940E0,-3.428928296E0,-4.705675435E-1,3.986024294E0
5.798878333E-1,-1.541327215E0,-6.882476878E-1,1.539161407E0,2.284380069E0
5.898578333E-1,3.895267060E-1,3.228832483E0,5.317837983E-1,3.295433851E0
5.998278334E-1,4.681089355E-1,1.057730614E0,9.178783715E-2,1.160321091E0
6.097978333E-1,3.298921596E-1,-2.269254109E0,1.079503598E0,2.534496215E0
6.197678333E-1,1.190748338E0,-9.542843056E-1,3.659084644E0,3.964522742E0
6.297378333E-1,8.542331102E-1,3.494513883E0,1.630769734E0,3.949778653E0
6.397078334E-1,-9.125742160E-2,2.480677148E0,-1.399195436E0,2.849532400E0
6.496778333E-1,-1.848420935E0,-3.504505312E-1,-2.077815683E0,2.802997243E0
6.596478333E-1,-1.148064394E0,-1.064456081E0,-6.559552699E-1,1.697467501E0
6.696178333E-1,-1.140711448E0,1.815145893E0,1.709306027E0,2.741843232E0
6.795878334E-1,-3.453854538E-1,1.287317443E0,1.778057588E0,2.222153482E0
6.895568334E-1,-5.698798701E-1,-1.751446618E0,2.907118678E-1,1.864629108E0
6.995268333E-1,2.508908674E-2,-2.334607269E0,-5.398751754E-1,2.396348423E0
7.094968333E-1,-7.523787796E-1,2.357719850E0,-7.363316810E-1,2.582073017E0
7.194668333E-1,-1.080269657E0,2.600070567E0,-5.815506202E-1,2.874987062E0
7.294368334E-1,-9.594752444E-1,-1.854553495E0,-6.378370875E-1,2.183299695E0
7.394068333E-1,-4.680758256E-1,-3.503914159E0,-7.679990315E-1,3.617503549E0
7.493768333E-1,1.244996173E0,8.455044597E-2,1.114210916E0,1.672910702E0
7.593468333E-1,-1.770006265E-1,3.421261719E0,1.924179507E0,3.929227373E0
7.693168333E-1,4.253138220E-1,7.367099959E-1,3.638465023E-1,9.252122688E-1
7.792868333E-1,7.771676850E-1,-2.456840681E0,-1.635455693E0,3.052010987E0
7.892568333E-1,1.166329927E0,-1.480802101E0,-2.481854777E0,3.116521056E0
7.992268333E-1,-1.688652492E-1,2.762798578E0,-7.206055945E-1,2.860217453E0
8.091958333E-1,-9.992479321E-1,2.607982434E0,4.454742175E-1,2.828164791E0
8.191658334E-1,-1.029649360E-1,-5.524060509E-1,2.575774509E-1,6.181426747E-1
8.291358333E-1,3.749850096E-1,-1.186851461E0,-4.357157993E-1,1.318741220E0
8.391058333E-1,-7.794841325E-1,2.571627371E0,-9.078258383E-1,2.836372789E0
8.490758333E-1,-1.480117685E0,2.523641903E0,-7.670196229E-1,3.024538960E0
8.590458333E-1,-1.622963701E0,-1.195164740E0,-1.395685353E0,2.451605094E0
8.690158333E-1,-6.786040943E-1,-2.587051156E0,-7.915820217E-1,2.789254255E0
8.789858333E-1,5.450146586E-1,2.519706143E0,-7.604567081E-1,2.687797319E0
8.889558333E-1,-1.751981930E0,3.215559888E0,4.799552482E-1,3.693186039E0
8.989258333E-1,-2.652389114E0,-8.084939235E-1,1.166615417E0,3.008292201E0
9.088958334E-1,1.950513759E0,-2.702614650E0,3.082780731E-1,3.347187661E0
9.188658333E-1,1.598866741E0,1.130395132E0,-2.438166136E-1,1.973224405E0
9.288348333E-1,-8.600711896E-1,3.120197064E0,-1.543765504E0,3.585884005E0
9.388048333E-1,-1.876361124E0,-3.091598332E-1,-8.520211816E-1,2.083806844E0
9.487748333E-1,2.225279977E-1,-2.929054215E0,1.235698516E0,3.186821007E0
9.587448333E-1,1.267203898E0,-2.051352355E-1,2.168852738E0,2.520279426E0
9.687148333E-1,-2.823608744E-1,3.131684504E0,9.341020560E-1,3.280201540E0
9.786848333E-1,-1.680887389E0,2.133135314E0,-5.369714481E-1,2.768390691E0
9.886548333E-1,2.537262554E-1,-9.698074937E-1,-5.937379718E-1,1.165087279E0
9.986248334E-1,1.515470682E0,3.165878436E-1,-1.512031496E0,2.164051407E0
1.008594833E0,-1.139036147E-1,2.110205750E0,-7.387670463E-1,2.238686912E0
1.018564833E0,-8.689733561E-1,4.020858309E-1,-1.460985303E-2,9.576017736E-1
1.028534833E0,8.363542981E-1,-8.789277291E-1,2.150103056E-1,1.232165531E0
1.038504833E0,9.515916628E-1,4.980243140E-1,-7.436950797E-1,1.306383283E0
1.048474833E0,-1.584638565E-1,8.331238577E-1,-1.261051458E-1,8.573847817E-1
1.058443833E0,-2.655399699E-1,-7.747177747E-1,9.754488873E-1,1.273656012E0
1.068413833E0,1.240194440E0,-2.067409394E0,1.307683003E-1,2.414407629E0
1.078383833E0,2.041713512E0,9.550052673E-1,7.535891533E-1,2.376662731E0
1.088353833E0,1.044767994E0,1.446438892E0,1.078489691E0,2.084913822E0
1.098323833E0,4.651020779E-1,4.191772422E-1,1.191118174E0,1.345656720E0
1.108293833E0,1.318990349E0,-5.899568698E-1,-6.728046066E-1,1.593879132E0
1.118263833E0,1.733096885E0,1.583686492E0,-3.072638735E0,3.866884601E0
1.128233833E0,3.262998495E-1,2.519877758E0,-2.570862263E0,3.614635290E0
1.138203833E0,-2.977902878E-1,1.405082705E0,-1.233430381E0,1.893221321E0
1.148173833E0,9.023355952E-1,-5.093898395E-1,-6.221484232E-1,1.208617473E0
1.158143833E0,1.532411673E0,1.009974942E-1,-7.970310420E-1,1.730244062E0
1.168113833E0,7.224720988E-1,1.456336474E0,-1.179731306E0,2.008643277E0
1.178083833E0,2.269782405E-1,6.542066601E-1,-1.090327964E0,1.291634834E0
1.188052833E0,6.346079627E-1,-5.608874372E-1,-6.883593696E-1,1.091403044E0
1.198022833E0,1.655520121E0,-7.541154027E-3,-1.552784835E0,2.269789524E0
1.207992833E0,1.031075277E0,-6.923723137E-1,-3.462136388E-1,1.289325223E0
1.217962833E0,7.911635803E-1,-1.529818726E-1,5.531401688E-1,9.773982354E-1
1.227932833E0,1.172250086E0,-4.343361488E-1,8.168139267E-1,1.493319506E0
1.237902833E0,1.984474826E0,7.236943862E-1,4.005576611E-2,2.112694574E0
1.247872833E0,1.618442634E0,-2.020207161E-1,-1.024607599E-1,1.634217592E0
1.257842833E0,7.340932938E-1,2.304925632E-1,1.963769835E-1,7.940930080E-1
1.267812833E0,7.095784767E-1,4.303129721E-1,-3.108093327E-1,8.861564816E-1
1.277782833E0,1.380848920E0,8.086219776E-1,-2.808394289E-1,1.624648894E0
1.287752833E0,7.149343070E-1,2.355375409E-2,8.038985968E-2,7.198252372E-1
1.297722833E0,2.774076249E-1,-5.963636640E-1,4.590993994E-1,8.021077662E-1
1.307692833E0,2.893391608E-1,-8.702522153E-1,1.527668704E0,1.781804630E0
1.317661833E0,1.735110082E-1,-7.684188616E-1,2.325004386E0,2.454835842E0
1.327631833E0,4.053633414E-1,-8.242410600E-1,1.355301558E0,1.637233971E0
1.337601833E0,8.353953548E-1,-3.430067334E-1,7.215382254E-1,1.155922328E0
1.347571833E0,7.894320005E-1,-4.331909716E-2,1.539518672E0,1.730663794E0
1.357541833E0,8.827911307E-1,5.698725611E-2,-2.999826282E-1,9.341077588E-1
1.367511833E0,5.647033666E-1,-9.766557527E-1,-1.028483718E0,1.526605748E0
1.377481833E0,6.290332273E-1,-6.571346533E-1,2.114458430E-1,9.339261738E-1
1.387451833E0,5.703631425E-1,6.356411657E-1,1.680875695E-1,8.704063630E-1
1.397421833E0,4.994558952E-1,5.096626121E-1,-6.121824288E-1,9.402018377E-1
1.407391833E0,4.435025364E-1,-8.780184871E-1,-4.480101550E-1,1.080890403E0
1.417361833E0,-1.454424727E-1,-1.150526218E0,-2.821924746E-1,1.193522804E0
1.427331833E0,-8.707012083E-2,1.082556430E-1,4.630094326E-1,4.834027563E-1
1.437300833E0,1.403428236E-1,6.175589436E-1,8.207795084E-2,6.386015557E-1
1.447270833E0,-3.135609593E-1,-1.023847461E-1,-2.844863373E-1,4.355864869E-1
1.457240833E0,-6.022298100E-1,-3.601767898E-2,-1.759012038E-1,6.284260105E-1
1.467210833E0,-7.125022307E-1,5.365045479E-1,-1.700229979E-1,9.079671682E-1
1.477180833E0,-2.393998461E-1,-4.861977357E-1,-4.148675519E-1,6.825068572E-1
1.487150833E0,1.021668642E-1,-7.395447260E-1,2.222058892E-2,7.468990725E-1
1.497120833E0,-8.619238067E-2,-6.287508067E-1,3.306389952E-1,7.155968478E-1
1.507090833E0,-3.815114524E-1,1.579968248E0,-1.501366174E-1,1.632296436E0
1.517060833E0,8.531164382E-2,2.338877490E-1,-2.800664270E-1,3.747249114E-1
1.527030833E0,5.503326282E-2,-8.570059329E-1,-1.466943616E-1,8.712101152E-1
1.537000833E0,-4.238356824E-1,-1.064542620E0,1.958174050E-1,1.162425108E0
1.546970833E0,-6.243447836E-1,1.082504974E0,8.093809462E-1,1.488865657E0
1.556940833E0,-1.908540325E-1,1.369877205E0,9.676147878E-1,1.687977250E0
1.566909833E0,8.245129555E-2,4.547897092E-1,7.374315423E-1,8.703086666E-1
1.576879833E0,4.334872062E-1,-1.009181182E0,8.828243136E-1,1.409161660E0
1.586849833E0,-2.441405493E-1,4.393197307E-1,-2.342692798E-1,5.545164822E-1
1.596819833E0,-4.538319718E-1,1.873185355E0,-1.698293965E0,2.568849787E0
1.606789833E0,-3.581130150E-1,1.398804258E0,-1.668943866E0,2.206869256E0
1.616759833E0,-1.986576900E-2,-1.371131140E-1,-1.029442077E0,1.038723083E0
1.626729833E0,-6.223414544E-2,-4.809215006E-1,-5.266043347E-1,7.158705916E-1
1.636699833E0,-1.418446809E-2,-4.266257179E-1,-7.619799078E-2,4.336090821E-1
1.646669833E0,-3.579602199E-1,-5.402072972E-1,-3.443583173E-1,7.338542728E-1
1.656639833E0,-5.135984095E-1,3.029009736E-1,-2.364597638E0,2.438617296E0
1.666609833E0,-3.972133461E-1,4.890117082E-1,-2.222993277E0,2.310543227E0
1.676579833E0,7.254050622E-1,-1.324468605E0,3.152877152E-1,1.542671687E0
1.686549833E0,9.138949558E-1,-1.181408580E0,1.725164845E0,2.281912348E0
1.696519833E0,7.124545759E-1,4.839965513E-1,2.727581091E0,2.860339629E0
1.706488833E0,6.161460371E-1,1.005474340E0,1.542298438E0,1.941468274E0
1.716458833E0,2.746701413E-1,7.110149914E-1,-1.124379224E0,1.358386780E0
1.726428833E0,2.058041570E-1,3.123649845E-1,-8.575006074E-1,9.355396978E-1
1.736398833E0,2.550434869E-1,1.552356818E-1,3.111443782E-1,4.312262993E-1
1.746368833E0,3.768705174E-1,-5.665092427E-1,-3.871266067E-2,6.815150614E-1
1.756338833E0,6.756837755E-2,-7.749961022E-1,-2.372496057E-1,8.133091782E-1
1.766308833E0,-3.643060204E-2,-6.218724346E-1,-3.115484208E-1,6.965019255E-1
1.776278833E0,-3.632037106E-1,1.594222882E0,-1.593670321E0,2.283253955E0
1.786248833E0,-4.158876352E-1,8.807163924E-1,-2.787861207E0,2.953099049E0
1.796218833E0,1.081527685E-1,-1.440732010E0,-1.186269663E0,1.869396014E0
1.806188833E0,-1.401351378E-1,-1.449400507E0,3.570253159E0,3.855788805E0
1.816158833E0,1.949043988E-1,1.316388045E0,3.085037756E0,3.359809990E0
1.826127833E0,4.424273796E-2,1.231401982E0,-7.565700638E-1,1.445927565E0
1.836097833E0,1.746500458E-1,-7.667719933E-1,-7.129755628E-1,1.061497094E0
1.846067833E0,5.357702472E-1,8.002168974E-1,-7.896366531E-1,1.245360544E0
1.856037833E0,6.111467408E-1,1.622597081E0,-1.540945977E-1,1.740708698E0
1.866007833E0,6.197814703E-1,2.549251539E-1,3.314260304E-2,6.709801317E-1
1.875977833E0,5.369944715E-1,-1.201459267E0,-2.578394061E-1,1.341025202E0
1.885947833E0,-3.602168797E-1,4.653591362E-1,-5.506515938E-1,8.059357939E-1
1.895917833E0,-2.772875378E-1,1.312305227E0,-1.524544537E-1,1.349916941E0
1.905887833E0,2.143683545E-1,7.948845291E-1,1.904327041E-1,8.450206038E-1
1.915857833E0,1.667490687E-1,-1.768753499E-2,-5.930357212E-1,6.162868386E-1
1.925827833E0,-7.444813840E-2,5.250258788E-1,-1.184716058E-1,5.433509180E-1
1.935797833E0,1.930290871E-1,-1.852748752E-1,6.094172806E-1,6.655647449E-1
1.945767833E0,6.795420608E-1,-1.210224536E-1,5.563748485E-1,8.865533366E-1
1.955736833E0,2.357394891E-1,5.314110383E-1,-5.869318128E-1,8.261112221E-1
1.965706833E0,-4.375100175E-1,-3.827870956E-1,1.918857372E-1,6.121773534E-1
1.975676833E0,-3.470062289E-1,-6.387498379E-2,2.260276294E-1,4.190248509E-1
1.985646833E0,-4.492515188E-1,2.219135284E-1,-3.724033177E-2,5.024533646E-1
1.995616833E0,-3.844712399E-2,-6.699956042E-1,4.231062788E-1,7.933418015E-1
2.005586833E0,1.130469976E-1,-8.683808139E-1,1.731110294E0,1.940001987E0
2.015556833E0,1.594785677E-1,1.658045241E-1,2.169164979E-1,3.161919051E-1
2.025526833E0,7.311468818E-1,7.464631516E-1,-9.995867783E-1,1.446014082E0
2.035496833E0,-1.381593271E-1,1.427741251E0,-2.554882407E-1,1.456985696E0
2.045466833E0,-6.649703608E-1,-2.157146028E-1,-5.594001979E-1,8.953473918E-1
2.055436833E0,-6.275785862E-1,-6.136644056E-1,-1.086231405E0,1.396544861E0
2.065406833E0,-7.483452241E-1,3.716291463E-1,-1.124503770E0,1.400941657E0
2.075375833E0,-7.312139786E-1,1.500548149E0,-7.622553116E-1,1.835034547E0
2.085345583E0,-5.371653564E-1,-6.696845323E-2,-1.535575309E0,1.628196218E0
2.095315583E0,-4.122197134E-1,-1.286842942E0,-1.989664230E0,2.405130682E0
2.105285583E0,-4.325195651E-1,-7.766406316E-1,1.986088657E0,2.175957720E0
2.115255583E0,-2.004111238E-1,6.460538873E-1,2.136852681E0,2.241358879E0
2.125225583E0,-4.654113226E-2,-2.495498085E-1,-1.313401580E-1,2.858171111E-1
2.135195583E0,-1.395775692E-1,-1.566197470E0,-4.619142491E-1,1.638847518E0
2.145165583E0,2.245335196E-1,1.830254513E-1,9.425430965E-1,9.860532978E-1
2.155135583E0,2.707935470E-1,1.157887278E0,2.809019941E-1,1.221858431E0
2.165105583E0,5.942162740E-1,1.064283881E-1,1.724226952E-2,6.039182709E-1
2.175075583E0,2.324525499E-1,-1.159695822E0,3.196626019E-1,1.225199072E0
2.185045583E0,-5.053404965E-1,-7.662521759E-1,5.473332989E-1,1.068683842E0
2.195015583E0,-5.202775012E-1,2.003779408E-1,-3.020168746E-1,6.340774321E-1
2.204985583E0,-3.181991901E-1,1.974350372E-1,-7.484026730E-2,3.818800650E-1
2.214954583E0,-9.775565162E-2,-8.937118292E-1,-6.579444927E-1,1.114077177E0
2.224924583E0,-7.698332300E-1,-7.716675746E-1,-1.784559107E0,2.091115792E0
2.234894583E0,1.785860990E-1,-1.537340584E0,-1.223354459E0,1.972791220E0
2.244864583E0,1.149227844E-1,-7.874848777E-1,-7.466561097E-1,1.091253877E0
2.254834583E0,3.175641824E-1,2.180564126E-1,-4.457466978E-1,5.891398201E-1
2.264804583E0,1.478057711E0,-1.466763229E0,1.193717262E0,2.400210380E0
2.274774583E0,3.825292334E-1,-1.149728366E0,2.193257847E0,2.505710261E0
2.284744583E0,-1.114552394E-2,4.824502552E-1,2.394611980E0,2.442754390E0
2.294714583E0,4.793973508E-1,8.417224807E-1,2.692452773E0,2.861401840E0
2.304684583E0,6.175317541E-2,1.230303875E-1,2.276257319E0,2.280416039E0
2.314654583E0,-1.138098400E-1,8.246369165E-1,6.460682130E-1,1.053747057E0
2.324624583E0,-3.566614437E-1,2.069409434E0,-5.370486313E-1,2.167506407E0
2.334593583E0,-2.377131437E-1,1.342109947E0,-7.626862514E-1,1.561876105E0
2.344563583E0,-2.708333080E-1,-4.216275179E-1,-1.884037787E0,1.949543236E0
2.354533583E0,-1.040887051E0,-4.591558251E-1,-2.121594372E0,2.407370475E0
2.364503583E0,-1.477741084E0,1.537460159E0,-7.241291267E-1,2.252080248E0
2.374473583E0,-1.037936035E0,1.059541496E0,2.292114383E-1,1.500825532E0
2.384443583E0,-1.241491060E0,-8.201366070E-1,1.709667385E-2,1.488024329E0
2.394413583E0,-9.356234284E-1,-3.821909720E-1,-4.633438933E-1,1.111822244E0
2.404383583E0,-1.185948358E-1,1.475482012E0,-1.024727467E0,1.800327272E0
2.414353583E0,4.725278956E-1,2.872023690E-1,1.025313942E0,1.164919093E0
2.424323583E0,1.034193378E-1,-8.435605529E-1,1.478404158E0,1.705276758E0
2.434293583E0,-2.424922923E-1,5.569823742E-2,-2.506408989E-2,2.500660194E-1
2.444263583E0,-2.742190652E-2,6.144333145E-1,5.611473459E-1,8.325662753E-1
2.454232583E0,-9.226906300E-3,3.200447175E-1,9.760020339E-1,1.027177554E0
2.464202583E0,-1.204976879E0,2.043873766E-1,-1.159306982E0,1.684558149E0
2.474172583E0,-7.835055551E-1,-1.157678825E0,-1.971768826E-1,1.411729414E0
2.484142583E0,-5.293156886E-1,-8.685848817E-1,1.880752822E0,2.138187543E0
2.494112583E0,-6.857783356E-1,1.873906901E-1,-1.337954038E-1,7.234005850E-1
2.504082583E0,-1.270885890E0,4.997439802E-1,-1.757713956E0,2.225860135E0
2.514052583E0,-1.290077914E0,-9.186618984E-2,-1.520867808E0,1.996441662E0
2.524022583E0,-1.042622724E0,-2.346112250E0,3.526882607E-1,2.591465578E0
2.533992583E0,-1.967860840E0,-9.069218588E-1,1.036513115E0,2.401945665E0
2.543962583E0,-1.754649284E0,1.199687561E0,1.256329247E0,2.469090426E0
2.553932583E0,-7.901001911E-1,-4.718749809E-1,1.214501190E0,1.523790487E0
2.563902583E0,-5.946891676E-1,-1.239315019E0,3.744486737E-1,1.424699523E0
2.573872583E0,-9.487613180E-1,-3.893260369E-1,1.813221574E-3,1.025536976E0
2.583841583E0,-1.244196567E0,1.971963831E0,-1.274733943E-1,2.335147942E0
2.593811583E0,-1.049736300E0,9.590582648E-1,-3.260962933E-1,1.458793285E0
2.603781583E0,-1.057600952E0,-3.491284758E-2,-6.097745454E-1,1.221295900E0
2.613751583E0,-1.053501323E0,1.337816629E-1,-3.877639532E-1,1.130541221E0
2.623721583E0,-1.597839093E0,1.233361968E0,-5.818967754E-1,2.100684500E0
2.633691583E0,-1.572427825E0,6.156705853E-1,-1.000962043E0,1.963034525E0
2.643661583E0,-1.453651725E0,8.961793542E-1,-5.349114740E-1,1.789516990E0
2.653631583E0,-1.001759019E0,1.355621400E-1,1.191196527E0,1.562321155E0
2.663601583E0,-7.061382674E-1,-1.365763396E0,1.764562799E0,2.340432178E0
2.673571583E0,-1.012607943E0,-8.576497114E-1,3.402056247E-1,1.369918881E0
2.683541583E0,-7.513167791E-1,1.205825383E0,-1.255774931E0,1.896170466E0
2.693511583E0,1.601311170E-1,-5.556951097E-1,8.171366930E-2,5.840514988E-1
2.703480583E0,-3.606961687E-1,-1.547177062E0,2.043376168E0,2.588289928E0
2.713450583E0,-1.359165106E0,1.608744442E-2,3.818113707E0,4.052848489E0
2.723420583E0,-1.796601156E0,2.160800537E0,2.303704734E0,3.633715753E0
2.733390583E0,-1.528392005E0,-2.448398763E-1,1.090681136E0,1.893545359E0
2.743360583E0,-1.286602329E0,-6.450926051E-1,-5.081663096E-1,1.526343022E0
2.753330583E0,-1.055732182E0,1.542794282E0,-2.441798426E0,3.075250264E0
2.763300583E0,-4.662942521E-2,2.419507670E-1,-1.964589030E0,1.979980943E0
2.773270583E0,1.259628392E-1,-1.504808722E0,-1.536409122E0,2.154267606E0
2.783240583E0,4.353997573E-2,-1.149073185E0,7.767762870E-1,1.387676589E0
2.793210583E0,2.983398530E-1,-3.738315001E-1,8.819513243E-1,1.003291980E0
2.803180583E0,6.073795259E-2,-1.100042528E0,1.191519878E0,1.622806914E0
2.813150583E0,6.080657697E-1,-9.687345296E-1,1.446560807E0,1.844106487E0
2.823120583E0,9.336567906E-1,7.028905776E-1,-5.066360933E-1,1.273754410E0
2.833089583E0,1.109953339E0,-9.137756726E-1,-7.454632777E-1,1.619474573E0
2.843059583E0,1.013575584E0,-1.287157229E0,4.920923138E-1,1.710632644E0
2.853029583E0,4.277994002E-1,-2.544676092E-1,1.734643766E0,1.804648189E0
2.862999583E0,2.198735811E-1,3.629814067E-1,-9.073124528E-3,4.244787567E-1
2.872969583E0,-4.634837879E-1,-2.089534673E-1,-4.462384486E-1,6.764669439E-1
2.882939583E0,4.868527700E-1,8.634779236E-1,-2.889512712E-1,1.032527279E0
2.892909583E0,1.008937134E0,1.667668881E0,-1.371329361E0,2.383194883E0
2.902879583E0,7.381144971E-1,-1.085328302E0,-1.179672250E0,1.764759800E0
2.912849583E0,1.252816824E0,-1.325180796E0,-8.446051580E-1,2.009729337E0
2.922819583E0,1.321853730E0,2.907443199E-1,-6.369231677E-1,1.495827752E0
2.932789583E0,1.178283609E0,2.204932398E-1,-6.112679243E-3,1.198752225E0
2.942759583E0,7.473658155E-1,-1.105374896E0,4.911105663E-1,1.421829424E0
2.952728583E0,2.547887675E-1,-6.829129806E-1,1.666712569E0,1.819125681E0
2.962698583E0,6.204370894E-1,1.022201470E0,4.536047709E-1,1.278903950E0
2.972668583E0,6.202562642E-1,-3.881089389E-1,2.888863671E-1,7.866395076E-1
2.982638583E0,9.326029761E-1,-1.084505014E0,1.615114399E0,2.157427625E0
2.992608583E0,1.280285435E0,1.064592321E0,-3.274926084E-1,1.696979380E0
3.002578583E0,1.525038627E0,8.881198445E-1,-1.020211662E0,2.038463026E0
3.012548583E0,2.320069044E0,-7.304487973E-1,-3.114683139E-1,2.452200711E0
3.022518583E0,2.306098730E0,-4.436566105E-1,-6.950211024E-1,2.449076739E0
3.032488583E0,1.410925389E0,2.153237456E0,-1.831118731E0,3.159135611E0
3.042458583E0,1.787869801E0,2.847979939E-1,-5.099631590E-1,1.880864361E0
3.052428583E0,1.826723379E0,-1.824357888E0,6.748014307E-1,2.668437180E0
3.062398583E0,1.370218682E0,-2.608083299E-1,5.405458510E-2,1.395866082E0
3.072367583E0,1.182378487E0,-3.565521008E-1,-8.792510802E-1,1.515991672E0
3.082337833E0,2.326363279E0,-1.519465646E0,1.182094166E0,3.019617289E0
3.092307833E0,2.285866048E0,-8.249485731E-2,1.582871098E0,2.781630800E0
3.102277833E0,1.296852059E0,2.036638421E0,-5.720909947E-1,2.481332188E0
3.112247833E0,1.000668659E0,-5.289794737E-1,-2.637141037E-1,1.162197134E0
3.122217833E0,9.667684034E-1,-1.270586805E0,1.606434792E-1,1.604630270E0
3.132187833E0,8.251950333E-1,1.452444860E0,-1.542791358E0,2.273927899E0
3.142157833E0,1.390008145E0,8.094552058E-1,-1.633958806E0,2.292850137E0
3.152127833E0,1.964180310E0,-4.457218471E-1,-6.253983057E-1,2.108979681E0
3.162097833E0,2.556926594E0,6.699920958E-1,-8.281961167E-1,2.769958812E0
3.172067833E0,2.642104446E0,1.001556121E0,-1.404073768E0,3.155194719E0
3.182037833E0,2.839539483E0,-1.697981724E-1,-1.285036737E-1,2.847512790E0
3.192006833E0,3.465252369E0,-5.521332783E-1,2.083620214E0,4.080967819E0
3.201976833E0,2.721343574E0,1.287694296E0,5.731891018E-1,3.064704422E0
3.211946833E0,2.511034722E0,8.434938946E-1,-1.648920661E-1,2.654047233E0
3.221916833E0,2.821749037E0,3.711680934E-1,9.025879025E-2,2.847486617E0
3.231886833E0,2.832493004E0,1.982308432E0,-8.785423976E-1,3.567127707E0
3.241856833E0,2.606340829E0,1.146262721E0,-1.816372054E0,3.377297467E0
3.251826833E0,3.115240087E0,-1.345367723E0,-9.415022922E-1,3.521528315E0
3.261796833E0,3.301629149E0,-7.765906379E-1,1.884270507E0,3.879990128E0
3.271766833E0,2.429433758E0,1.858769045E0,7.983595294E-1,3.161415614E0
3.281736833E0,2.895105866E0,8.797603726E-1,-6.369442177E-1,3.092137485E0
3.291706833E0,3.436866476E0,-1.685515460E-1,3.745790666E-1,3.461324930E0
3.301676833E0,2.313297383E0,6.590993178E-1,3.534466445E-1,2.431189262E0
3.311645833E0,2.250617571E0,-6.037600994E-2,6.433258688E-1,2.341536437E0
3.321615833E0,2.683267967E0,2.389499760E-1,9.867246580E-1,2.868910878E0
3.331585833E0,2.069361048E0,1.544953659E0,-2.147348433E0,3.358607189E0
3.341555833E0,2.185599164E0,-9.177935869E-1,-1.372775962E0,2.739288706E0
3.351525833E0,1.498916191E0,-2.301979513E0,3.918806854E0,4.785698129E0
3.361495833E0,2.001668563E0,9.810937893E-1,2.006113032E0,2.998951743E0
3.371465833E0,2.029004004E0,1.187976758E0,-5.368872482E-1,2.411720121E0
3.381435833E0,1.920105460E0,-4.361224732E-1,7.237572438E-1,2.097816087E0
3.391405833E0,2.412540128E0,6.262365040E-1,-2.832537442E-1,2.508536369E0
3.401375833E0,3.132347578E0,9.922830212E-1,-9.262533385E-1,3.413820761E0
3.411345833E0,2.280928659E0,-2.805116925E-1,-1.263525415E0,2.622559596E0
3.421315833E0,1.468660358E0,1.767972896E-1,-2.739160332E0,3.113072414E0
3.431285833E0,9.708604310E-1,2.972139716E-3,-5.230059582E-1,1.102775608E0
3.441254833E0,2.012894048E0,-1.885190566E0,2.918814279E0,4.015614861E0
3.451224833E0,2.350065553E0,-1.808705769E0,4.671373914E0,5.533168975E0
3.461194833E0,1.873508121E0,8.600888774E-1,3.821116253E0,4.341741007E0
3.471164833E0,5.928820856E-2,1.504645000E0,1.556926417E-1,1.513840106E0
3.481134833E0,1.769019839E0,4.852955103E-1,-6.072631663E-1,1.932281418E0
3.491104833E0,1.703945299E0,9.809221736E-1,8.987287402E-2,1.968175558E0
3.501074833E0,1.819022304E0,1.685508444E0,-3.126395112E-1,2.499504815E0
3.511044833E0,1.326492326E0,5.920080730E-1,-4.349463058E-1,1.516322439E0
3.521014833E0,1.720821679E0,7.191320962E-1,-2.686859912E-1,1.884295727E0
3.530984833E0,1.870355595E0,1.505266852E0,-1.100257705E0,2.640951602E0
3.540954833E0,2.500396298E0,1.962705642E-1,-9.648484701E-1,2.687273032E0
3.550924833E0,1.064132292E0,-5.324147129E-1,-4.492643827E-1,1.271881066E0
3.560893833E0,1.312033478E0,-6.617516148E-1,-1.938199961E-1,1.482198785E0
3.570863833E0,1.207950042E0,-1.016478215E0,5.768763560E-1,1.680820513E0
3.580833833E0,1.876272393E0,-2.342143160E-1,4.752096480E-1,1.949635516E0
3.590803833E0,1.168882017E0,-7.684410810E-1,1.518673348E0,2.064741050E0
3.600773833E0,8.651000874E-1,-1.329254259E0,1.654238704E0,2.291685130E0
3.610743833E0,2.407755936E0,-1.214528087E-1,-6.920530558E-1,2.508181984E0
3.620713833E0,2.926361280E0,-7.926488462E-1,1.140333937E0,3.239173355E0
3.630683833E0,9.542955615E-1,-6.702751011E-1,1.287514202E0,1.737136019E0
3.640653833E0,1.898635361E0,-8.128714415E-1,9.544772637E-1,2.275214949E0
3.650623833E0,3.311320032E0,-1.443995633E0,1.716591657E0,3.999581310E0
3.660593833E0,2.206441564E0,-1.409456715E-1,-2.531645572E-1,2.225385888E0
3.670563833E0,2.079089499E0,-1.292133795E0,1.108286517E0,2.687102881E0
3.680532833E0,8.666156126E-1,-2.733169860E-1,1.776979362E0,1.995840787E0
3.690502833E0,1.694024913E0,-1.982556939E-2,4.710154402E-1,1.758399558E0
3.700472833E0,1.376852641E0,-1.029408163E-1,1.014725804E-1,1.384419261E0
3.710442833E0,-1.234300447E-1,-2.946379808E-1,-1.653734674E0,1.684305461E0
3.720412833E0,9.958371782E-1,3.243073377E-1,-1.314645283E0,1.680820976E0
3.730382833E0,1.926211415E0,1.381481296E0,-1.151788632E0,2.635412309E0
3.740352833E0,6.240487683E-1,3.227636728E-1,-1.241808856E0,1.426780463E0
3.750322833E0,2.148511152E-1,-2.687658057E-1,-2.185316743E0,2.212239889E0
3.760292833E0,4.118771397E-2,4.220982188E-1,-5.645206046E-1,7.060784993E-1
3.770262833E0,3.167020105E-1,1.741972959E0,3.061777532E-1,1.796806826E0
3.780232833E0,-1.100024255E-1,1.539048555E-1,1.337375164E-1,2.316742573E-1
3.790202833E0,-3.268624248E-1,-6.764173087E-1,9.638942045E-1,1.222076699E0
3.800171833E0,-5.222287536E-1,2.183103864E0,1.483471940E0,2.690604830E0
3.810141833E0,1.344817939E0,8.568419185E-1,1.957812692E0,2.525023544E0
3.820111833E0,9.143962084E-1,-1.461906532E0,2.279125378E0,2.857919457E0
3.830081833E0,8.621146452E-1,-5.163474414E-1,8.611445922E-1,1.323414655E0
3.840051833E0,4.566575291E-1,5.795377162E-1,8.309893316E-1,1.111280042E0
3.850021833E0,1.465135364E0,-3.166825685E-1,4.351924735E-1,1.560865777E0
3.859991833E0,6.919637395E-1,-1.010412313E0,-2.032860535E-1,1.241399243E0
3.869961833E0,-5.683739197E-1,6.403718555E-1,-2.115401001E0,2.282114463E0
3.879931833E0,3.267249421E-1,1.211707975E0,-2.676386379E0,2.956015807E0
3.889901833E0,9.673609456E-1,-7.904108244E-1,-5.210898256E-1,1.353540201E0
3.899871833E0,-4.582590815E-1,-2.414127063E0,7.411936408E-1,2.566588957E0
3.909841833E0,-3.411099331E-1,4.183978084E-1,-2.127395979E0,2.194818071E0
3.919810833E0,-3.154199354E-1,7.103182957E-1,-1.532062302E0,1.717922209E0
3.929780833E0,-1.193216740E0,-9.112903136E-1,-1.165982748E0,1.900981850E0
3.939750833E0,2.565627762E-1,-2.732933047E-1,-2.053668437E0,2.087598558E0
3.949720833E0,2.149204230E-1,8.539305899E-1,-3.344942399E0,3.458905591E0
3.959690833E0,-1.119533271E0,-3.224371058E-1,-2.598776286E0,2.847974476E0
3.969660833E0,1.122613804E0,-1.139883409E0,1.241782544E0,2.025245621E0
3.979630833E0,1.228104298E0,-4.215576437E-1,1.850230356E0,2.260376823E0
3.989600833E0,4.773836428E-1,-7.067482781E-1,2.234287174E0,2.391532448E0
3.999570833E0,1.197564401E-1,-9.820480549E-1,3.655316699E0,3.786832470E0
4.009540833E0,9.525887592E-1,-8.800907403E-2,3.068965514E0,3.214610438E0
4.019510833E0,1.046811889E0,7.468651477E-1,1.222569178E0,1.774344407E0
4.029479833E0,9.679194278E-1,-5.647071308E-1,2.200324207E0,2.469248626E0
4.039449833E0,1.831864251E0,-1.508093981E0,5.332516249E0,5.836591782E0
4.049419833E0,1.384159175E0,-1.080296481E-1,4.617853180E0,4.822046766E0
4.059389833E0,1.410499420E0,1.165566134E0,4.366220008E0,4.734124015E0
4.069359833E0,1.147298994E0,8.932317728E-1,5.078189265E0,5.282249918E0
4.079329833E0,6.992848921E-1,1.073929740E0,2.743202512E0,3.027785407E0
4.089300375E0,1.277042131E0,1.297661168E0,1.852326583E0,2.597282210E0
4.099270375E0,9.957338286E-1,1.327664108E0,1.425043638E0,2.187447648E0
4.109240375E0,5.102390745E-1,1.348097788E0,-1.921225494E0,2.401836580E0
4.119210375E0,4.733790675E-1,8.462552422E-1,-2.504900993E0,2.686031396E0
4.129180375E0,-1.888822600E-1,6.014475256E-2,-1.557336892E0,1.569901938E0
4.139150375E0,2.729342857E-1,-9.605990061E-1,-1.105086921E0,1.489449790E0
4.149120375E0,4.746145476E-1,-2.645513957E0,8.896661407E-1,2.831167411E0
4.159089375E0,4.368660563E-1,-1.088520005E0,1.491538759E0,1.897476119E0
4.169059375E0,1.362494364E0,1.121819313E0,-6.466827554E-1,1.879645724E0
4.179029375E0,1.249735342E0,-6.344945267E-1,-2.273426097E0,2.670746702E0
4.188999375E0,1.502338420E0,-2.434583547E0,-2.108162733E0,3.553669636E0
4.198969375E0,1.596310046E0,-1.387854469E0,-2.932166396E0,3.615514564E0
4.208939375E0,1.402516070E0,4.554378730E-1,-3.463968320E0,3.764777750E0
4.218909375E0,9.966808583E-1,-5.076225185E-1,-2.183804653E0,2.453580265E0
4.228879375E0,9.232715508E-1,-8.905420536E-1,-2.151995215E0,2.505310143E0
4.238849375E0,1.547539297E0,-1.146171212E-2,-2.809998180E0,3.207974286E0
4.248819375E0,9.559355593E-1,8.269231778E-1,-2.288735862E0,2.614560495E0
4.258789375E0,1.256956945E0,-2.866059530E-1,-3.454067230E-1,1.334687057E0
4.268758375E0,1.431128397E0,7.792935133E-1,-9.456590778E-1,1.884064213E0
4.278728375E0,1.187567891E0,1.381833591E0,-6.480340469E-1,1.933838074E0
4.288698375E0,1.331360279E0,1.993000359E0,-2.350255587E0,3.356824682E0
4.298668375E0,1.283824024E0,2.751015269E0,-3.886277039E0,4.931474258E0
4.308638375E0,5.347780844E-1,5.843192768E-1,-2.977217438E0,3.080785661E0
4.318608375E0,9.697406892E-1,-9.175421566E-1,-5.148210257E-1,1.430846359E0
4.328578375E0,1.448002876E0,2.038439656E0,1.034416303E0,2.705913090E0
4.338548375E0,1.877473995E0,3.225523836E0,9.170936751E-1,3.843172313E0
4.348518375E0,2.131694560E0,3.277519617E0,-3.804169267E-1,3.928227790E0
4.358488375E0,2.459737391E0,2.530851520E0,7.437576449E-1,3.606756560E0
4.368458375E0,2.962575426E0,-5.347509679E-1,5.834533042E-1,3.066468573E0
4.378428375E0,3.070690735E0,-4.124508977E-1,1.957579973E0,3.664884266E0
4.388397375E0,2.526541830E0,1.496283774E0,2.185685703E0,3.660532850E0
4.398367375E0,2.898529703E0,-1.081680224E0,1.468920559E0,3.424796951E0
4.408337375E0,2.546187305E0,-5.909516566E0,4.862542198E0,8.065343914E0
4.418307375E0,9.078832141E-1,-4.381072521E0,4.378006241E0,6.259791291E0
4.428277375E0,2.790397107E-1,-3.471857091E0,3.292156075E0,4.792697199E0
4.438247375E0,7.139893969E-1,-4.631906378E0,2.869693574E0,5.495405241E0
4.448217375E0,5.683722752E-1,-4.893916018E0,1.784488356E0,5.240024783E0
4.458187375E0,1.837931724E-1,-2.479600967E0,4.158492994E-1,2.520938620E0
4.468157375E0,-4.572692940E-1,-5.056406048E-1,2.722785205E-1,7.341002801E-1
4.478127375E0,1.093213711E0,-2.072098276E0,3.693522406E-1,2.371735348E0
4.488097375E0,1.524739688E0,-3.002268957E0,-2.445714891E-1,3.376131694E0
4.498067375E0,1.430962409E-1,2.027867013E-1,-4.417118266E0,4.424085528E0
4.508036375E0,1.489051061E0,-3.286690682E-2,-2.693606429E0,3.077965057E0
4.518006375E0,2.143815692E0,-1.823492208E0,2.052168626E0,3.483168905E0
4.527976375E0,2.583596329E0,-6.626146638E-1,2.994569051E0,4.010171067E0
4.537946375E0,1.727174825E0,2.711638657E0,2.848167050E-1,3.227574576E0
4.547916375E0,-1.033563340E0,3.364798081E0,-1.577461839E0,3.857266540E0
4.557886375E0,4.573298493E-1,1.034504011E0,-4.912134188E0,5.040675691E0
4.567856375E0,9.505677422E-1,3.707181501E-1,-5.303076103E0,5.400335835E0
4.577826375E0,6.083497982E-1,2.055725195E0,-3.755210531E0,4.324083913E0
4.587796375E0,2.557212523E0,3.159645304E0,-1.391068976E0,4.296250369E0
4.597766375E0,2.622135912E0,1.979205315E0,1.898698511E0,3.794457334E0
4.607736375E0,2.972277418E0,4.063247699E-1,9.154330659E-1,3.136486979E0
4.617706375E0,1.032418163E0,-5.195289114E-1,1.210228629E0,1.673454776E0
4.627675375E0,5.570803881E-1,2.227676897E0,2.142694634E-1,2.306251140E0
4.637645375E0,6.795082931E-1,3.080074932E0,-1.304224960E0,3.413150429E0
4.647615375E0,1.128529139E0,1.686886632E-1,-2.653952951E0,2.888857932E0
4.657585375E0,1.653885532E0,-8.059006834E-1,-1.079694802E0,2.133202787E0
4.667555375E0,1.423571309E0,-6.549407780E-1,-5.063349617E-1,1.646778002E0
4.677525375E0,1.460691480E0,3.052407369E-1,7.448621839E-1,1.667816291E0
4.687495375E0,1.750503462E0,1.192101968E0,2.978447108E0,3.654656844E0
4.697465375E0,1.239227164E0,1.118745140E0,6.099563938E-1,1.777448017E0
4.707435375E0,2.586915209E0,-6.014446020E-2,1.400955448E0,2.942519978E0
4.717405375E0,1.492600759E0,6.538681063E-1,-1.826173156E-1,1.639740715E0
4.727375375E0,1.268340597E0,8.023628256E-1,-3.357166003E0,3.677368291E0
4.737344375E0,2.286029478E0,2.132488319E-1,-1.677611779E0,2.843551849E0
4.747314375E0,1.974108297E0,8.082898557E-3,-1.293497658E0,2.360149379E0
4.757284375E0,3.375522167E0,-3.346110088E-1,-1.575856778E0,3.740245849E0
4.767254375E0,2.531264626E0,-5.942057490E-1,1.225319123E-1,2.602958922E0
4.777224375E0,2.165673022E0,-1.160844800E-1,8.545179427E-2,2.170464756E0
4.787194375E0,2.285673675E0,-2.479769075E-1,-1.649789557E0,2.829770711E0
4.797164375E0,2.105521838E0,-9.430129203E-1,-1.343742197E0,2.669857425E0
4.807134375E0,1.868954602E0,-1.041155219E0,-2.015379115E0,2.939174794E0
4.817104375E0,8.540122316E-1,-9.014906725E-1,-2.544865542E0,2.831671406E0
4.827074375E0,8.023213103E-1,-1.506869574E0,-2.170643156E0,2.761533470E0
4.837044375E0,1.967426976E0,3.878595552E-1,7.260733259E-1,2.132694637E0
4.847014375E0,3.286431943E0,-3.413341373E-2,4.709891862E0,5.743246587E0
4.856983375E0,4.287752713E0,-1.342281855E0,6.453766628E0,7.863691728E0
4.866953375E0,2.341050315E0,-7.788312909E-1,2.200417178E0,3.305893301E0
4.876923375E0,1.147408118E0,1.375584672E0,3.607498169E-2,1.791669607E0
4.886893375E0,1.277324552E0,7.566700512E-1,2.426670510E0,2.844791265E0
4.896863375E0,1.060398113E0,6.937393928E-1,9.982787561E-1,1.613158076E0
4.906833375E0,7.096668427E-1,2.224572026E0,-3.776618941E0,4.440179991E0
4.916803375E0,8.632321212E-1,7.789964747E-1,-1.176953294E0,1.654455880E0
4.926773375E0,1.728991848E0,-1.432585377E-1,2.941993811E0,3.415444832E0
4.936743375E0,1.509470123E0,7.367886409E-1,2.486493373E0,3.000667733E0
4.946713375E0,2.480259072E0,1.148285858E0,3.790227166E0,4.672907815E0
4.956683375E0,1.044426371E0,6.242414340E-1,3.755663690E0,3.947849233E0
4.966653375E0,7.417017639E-1,9.326811826E-1,1.774030611E0,2.137100911E0
4.976622375E0,1.653424918E0,1.192588749E0,-5.982911986E-1,2.124625671E0
4.986592375E0,2.109874797E0,7.670593840E-1,-1.941964399E0,2.968362762E0
4.996562375E0,2.456199241E0,1.343764124E0,-2.408620155E0,3.693246239E0
5.006532375E0,1.670020631E0,-3.011456394E-1,-2.215876631E0,2.791015380E0
5.016502375E0,9.815267757E-1,-1.798708785E0,-1.830946239E0,2.747928717E0
5.026472375E0,1.038811217E0,-2.034082311E0,-1.344621034E0,2.650400973E0
5.036442375E0,1.322294903E0,-1.172314990E0,4.262813169E-1,1.817828927E0
5.046412375E0,1.684426563E0,-1.025145250E0,6.644454271E-1,2.080793924E0
5.056382375E0,1.728438262E0,-1.350334933E0,-5.267095846E-1,2.255731864E0
5.066352375E0,1.596511921E0,-1.513550602E0,-1.884534801E0,2.896749412E0
5.076322375E0,2.613962089E0,-7.247302204E-1,-9.168171018E-1,2.863317184E0
5.086292375E0,2.382066341E0,-9.184402889E-1,-3.971393788E-1,2.583697409E0
5.096261375E0,2.074857577E0,-8.444431901E-1,-1.174362978E0,2.529277895E0
5.106231375E0,2.863430329E0,-2.353475064E-2,-1.811834614E0,3.388588468E0
5.116201375E0,4.552613748E0,-3.297508031E-2,5.573717988E-1,4.586724607E0
5.126171375E0,4.305782018E0,8.391295329E-1,1.715970683E-1,4.390141537E0
5.136141375E0,4.333291998E0,1.730051071E0,-1.051198397E0,4.782835385E0
5.146111375E0,5.271043301E0,2.820094568E0,1.193151251E0,6.095936414E0
5.156081375E0,5.305638353E0,4.280986023E0,-8.560528368E-1,6.870914504E0
5.166051375E0,6.109403048E0,4.189932011E0,-2.069956441E0,7.691882444E0
5.176021375E0,5.786237379E0,1.509349962E0,-1.473884261E-1,5.981672314E0
5.185991375E0,3.670149915E0,-7.027622312E-1,-1.191305870E-1,3.738725351E0
5.195961375E0,3.587763816E0,-8.516215244E-1,1.236943388E-1,3.689526895E0
5.205931375E0,3.109624128E0,1.254881769E0,1.554568235E0,3.696102389E0
5.215900375E0,3.404105696E0,4.754213172E-1,3.493891447E0,4.901146647E0
5.225870375E0,2.938017704E0,-1.375016030E0,2.364004145E0,4.013867551E0
5.235840375E0,3.074902192E0,-2.208951189E0,3.202139359E0,4.958647530E0
5.245810375E0,2.740329190E0,-1.014054252E0,4.675999061E0,5.513862287E0
5.255780375E0,3.027474257E0,-1.910288277E0,1.999633148E0,4.100406614E0
5.265750375E0,2.326064194E0,-2.832444764E0,4.505064483E0,5.807660800E0
5.275720375E0,7.045639046E-1,-1.344467252E0,5.123467180E0,5.343586663E0
5.285690375E0,-5.178052984E-1,-3.801070243E-1,1.593322411E0,1.717928981E0
5.295660375E0,2.004012566E0,1.261778559E0,1.065677857E0,2.596886750E0
5.305630375E0,1.857599309E0,-7.800410798E-1,6.881874615E-1,2.129023547E0
5.315600375E0,1.976206424E0,2.641964990E-1,-2.513194098E0,3.208011253E0
5.325570375E0,1.731868385E0,3.972612932E-1,-3.760087109E0,4.158778631E0
5.335539375E0,2.005641016E0,6.455138969E-1,-2.979213093E0,3.648971736E0
5.345509375E0,2.858802843E0,-7.725914347E-1,-5.904822421E-1,3.019655692E0
5.355479375E0,1.028982486E0,-2.495389912E-1,-6.611686474E-1,1.248286283E0
5.365449375E0,1.024585379E0,1.710304146E0,-1.384129500E0,2.427082600E0
5.375419375E0,1.905709907E0,1.577104866E0,3.284807879E-1,2.495373647E0
5.385389375E0,1.946731049E0,1.043196482E0,1.055354013E0,2.447813875E0
5.395359375E0,2.142944456E0,9.185832533E-1,2.691325430E0,3.560791865E0
5.405329375E0,7.660076161E-1,1.897885748E0,9.328975296E-1,2.249230042E0
5.415299375E0,2.880050747E0,2.175915298E0,-4.416764510E-1,3.636533759E0
5.425269375E0,2.739728681E0,2.311779739E0,1.778246453E0,4.001574597E0
5.435239375E0,2.360329316E0,8.959203225E-1,-1.151265306E0,2.774750351E0
5.445209375E0,5.054496347E0,-2.522464567E0,1.724246247E0,5.906249735E0
5.455178375E0,1.978991161E0,5.707955441E-1,2.836708846E0,3.505585635E0
5.465148375E0,9.231323871E-1,3.042641642E0,-1.070305928E0,3.354906309E0
5.475118375E0,4.351567470E0,-5.614739129E-1,7.593995315E-1,4.452873236E0
5.485088375E0,1.821330931E0,2.688257396E-1,1.073841155E-1,1.844192232E0
5.495058375E0,3.057503510E0,2.371497352E0,-3.083681787E0,4.947870326E0
5.505028375E0,2.953714847E0,7.640474832E-1,-1.301123596E0,3.316794020E0
5.514998375E0,2.667086967E0,1.155950096E0,-3.896637136E-1,2.932816279E0
5.524968375E0,1.846687089E0,9.745940244E-1,-1.686465633E0,2.684073965E0
5.534938375E0,1.494839366E0,-1.556608621E0,1.567914505E0,2.667570247E0
5.544908375E0,1.114977925E0,-4.046928120E-1,3.016279762E0,3.241125676E0
5.554878375E0,1.402522940E0,2.021827717E0,-3.772506595E-1,2.489412777E0
5.564847375E0,1.911193426E0,-1.331378552E0,1.317357806E0,2.675941096E0
5.574817375E0,1.538670533E0,-1.586465674E0,3.866828030E-1,2.243636319E0
5.584787375E0,4.030219701E0,-6.386498505E-1,6.074736661E-1,4.125477999E0
5.594757375E0,3.060494068E0,-1.471532803E0,3.203363766E0,4.668358614E0
5.604727375E0,1.514501652E0,-1.181217376E0,1.074353955E0,2.200733097E0
5.614697375E0,2.814003815E0,-3.138250342E-1,-5.536032683E-1,2.885061560E0
5.624667375E0,2.240575124E0,-1.701421349E0,2.025650918E-1,2.820646044E0
5.634637375E0,2.675707517E0,-2.356783711E0,-7.508865702E-1,3.643853842E0
5.644607375E0,2.245254504E0,7.415523675E-1,-2.392031019E0,3.363462517E0
5.654577375E0,1.837256408E0,4.147283882E-2,-1.998160234E0,2.714751448E0
5.664547375E0,2.789851014E0,-2.195516626E0,-1.326330943E0,3.789817371E0
5.674517375E0,2.621430738E0,-2.081687710E-1,6.474937642E-1,2.708224792E0
5.684486375E0,2.346823272E0,1.160387548E0,2.465095487E0,3.595938610E0
5.694456375E0,2.746921926E0,-8.034086001E-1,2.413444108E0,3.743762534E0
5.704426375E0,2.755959090E0,6.394067726E-1,1.483901126E0,3.194700937E0
5.714396375E0,1.264530844E0,6.845478621E-1,5.447997004E-1,1.537677061E0
5.724366375E0,1.864956130E0,-4.651913211E-1,-5.146625662E-1,1.989809511E0
5.734336375E0,2.479964372E0,1.068985627E0,8.653294444E-1,2.835797701E0
5.744306375E0,1.657139508E0,5.597212100E-1,7.817054898E-1,1.915845154E0
5.754276375E0,1.947197218E0,-6.498335275E-1,-1.451475976E0,2.514088926E0
5.764246375E0,2.364048292E0,7.396844745E-2,-1.396718556E0,2.746819685E0
5.774216375E0,2.559983518E0,3.991014120E-1,1.081795122E0,2.807682004E0
5.784186375E0,2.941237766E0,-1.179554428E0,1.863359694E0,3.676185196E0
5.794156375E0,3.016696084E0,-1.484786394E-1,1.992381431E0,3.618298625E0
5.804125375E0,2.115348376E0,-2.108909422E-1,5.151730281E-1,2.187367594E0
5.814095375E0,3.548067361E0,-5.475256723E-1,1.437017566E-1,3.592939821E0
5.824065375E0,3.103932156E0,1.050172795E0,1.500269821E0,3.603896123E0
5.834035375E0,3.153363348E0,1.080739115E0,-3.004667777E-1,3.346935572E0
5.844005375E0,3.011184206E0,5.504753003E-1,-2.332204063E0,3.848302115E0
5.853975375E0,2.598430715E0,-3.939272109E-1,-1.276514420E0,2.921730633E0
5.863945375E0,2.462634394E0,-6.582871395E-1,-6.254094154E-1,2.624699422E0
5.873915375E0,3.245436529E0,-6.822338265E-1,2.710909510E-1,3.327430174E0
5.883885375E0,1.571613307E0,1.601992370E0,-1.237818716E0,2.562916916E0
5.893855375E0,2.363531252E0,-2.750176486E-1,-5.056677943E-1,2.432614767E0
5.903825375E0,1.619544396E0,-3.357716518E0,2.389830712E0,4.428145786E0
5.913794375E0,2.460964429E0,-4.292812309E-1,4.054718365E0,4.762496123E0
5.923764375E0,2.334676266E0,3.709951620E0,2.294298903E0,4.947551085E0
5.933734375E0,3.643007140E0,1.151238994E0,1.304650052E0,4.037197543E0
5.943704375E0,2.836106875E0,-5.441082671E-1,1.286262898E0,3.161333304E0
5.953674375E0,2.218614444E0,1.188217955E0,-5.880305046E-1,2.584548671E0
5.963644375E0,2.247390054E0,1.413914925E0,-4.135548520E-1,2.687181625E0
5.973614375E0,2.761545228E0,1.693290211E0,4.615762800E-1,3.272066082E0
5.983584375E0,3.123103422E0,1.774641937E0,1.539899325E-1,3.595391758E0
5.993554375E0,3.304138189E0,6.157772970E-1,1.489643092E0,3.676349737E0
6.003524375E0,2.455886415E0,1.950603952E0,5.750999719E-1,3.188569246E0
6.013494375E0,2.905684064E0,1.043330091E0,1.539920960E0,3.450057118E0
6.023464375E0,2.944204643E0,1.226228365E-1,3.171886450E0,4.329461975E0
6.033433375E0,2.687223024E0,1.847351479E0,3.741223991E-1,3.282353216E0
6.043403375E0,2.974994619E0,4.786238372E-1,9.892243427E-1,3.171472617E0
6.053373375E0,2.196758575E0,1.048180356E0,-2.233823490E-1,2.444244253E0
6.063343375E0,2.493493659E0,2.758888838E0,-2.175369460E0,4.308272338E0
6.073313375E0,2.492211950E0,5.803034091E-1,-1.283281403E0,2.862635780E0
6.083283583E0,2.012142973E0,-4.392282218E-1,-1.586446086E0,2.599702283E0
6.093253583E0,1.316996448E0,-7.457071066E-2,-2.226008102E0,2.587499276E0
6.103223583E0,1.007017566E0,-1.527723961E0,-1.056309448E0,2.112774131E0
6.113193583E0,2.395441993E0,-1.495941128E0,9.925900000E-1,2.993529206E0
6.123163583E0,2.412870788E0,-7.390368953E-1,7.625845098E-1,2.636220042E0
6.133133583E0,2.201917719E0,-2.070825922E0,3.784658863E0,4.843594156E0
6.143102583E0,1.360537593E0,-9.049089548E-1,3.080701461E0,3.487211529E0
6.153072583E0,2.117624989E0,-6.188248658E-1,3.984626622E0,4.554616243E0
6.163042583E0,1.952298329E0,-2.192071447E-1,3.199744924E0,3.754715451E0
6.173012583E0,2.571496686E0,2.390606930E0,-4.772982734E-1,3.543361446E0
6.182982583E0,3.355029430E0,1.562361989E0,-1.555181608E0,4.014447322E0
6.192952583E0,2.817432330E0,5.843879816E-1,-2.341909271E0,3.709982922E0
6.202922583E0,2.658501500E0,1.053836660E0,-3.468627967E0,4.495506858E0
6.212892583E0,2.087764575E0,4.040396780E-2,-2.694403989E0,3.408842363E0
6.222862583E0,3.126495977E0,6.758776107E-1,-1.346768131E0,3.470673139E0
6.232832583E0,2.582819234E0,9.412467688E-2,2.204868663E0,3.397243069E0
6.242802583E0,8.736814611E-1,-6.006917730E-1,2.805019861E0,2.998714111E0
6.252772583E0,1.544213693E0,8.639293286E-1,1.190189636E0,2.132491779E0
6.262741583E0,1.938485305E0,3.510843694E-2,2.285431015E0,2.997023992E0
6.272711583E0,2.689155821E0,-7.721102089E-2,2.843789824E0,3.914672545E0
6.282681583E0,3.726605367E0,1.843695215E0,1.673105330E0,4.481749776E0
6.292651583E0,3.667739108E0,-1.980074796E-1,1.589308882E0,4.002176889E0
6.302621583E0,3.920307542E0,-1.089182202E0,-1.480550086E-1,4.071492279E0
6.312591583E0,3.781142640E0,-7.098826781E-1,5.061069202E-1,3.880350151E0
6.322561583E0,2.394677177E0,-1.091051557E0,2.939184809E-1,2.647878463E0
6.332531583E0,3.010229648E0,-1.785869468E0,9.757541120E-2,3.501475868E0
6.342501583E0,2.141741538E0,-2.446508943E0,8.480316263E-1,3.360300651E0
6.352471583E0,7.908810867E-1,-2.552142987E0,-2.102769846E-1,2.680138640E0
6.362441583E0,1.175005660E0,-5.710744563E-1,2.908410913E-1,1.338414314E0
6.372410583E0,1.065206206E0,-4.205571851E-1,9.921169603E-1,1.515199218E0
6.382380583E0,1.403534947E0,-2.224864679E0,3.049925226E-1,2.648198185E0
6.392350583E0,1.190144467E0,-1.271866761E0,1.392930729E0,2.230323951E0
6.402320583E0,9.732550851E-1,5.144102588E-1,-2.645514250E-2,1.101155416E0
6.412290583E0,2.064857377E0,4.108665946E-1,1.252616850E0,2.449795158E0
6.422260583E0,1.264403521E0,1.676646696E0,1.911860009E0,2.839906530E0
6.432230583E0,1.330818096E0,1.943306919E0,1.154421633E-1,2.358144500E0
6.442200583E0,1.678191969E0,4.825373787E-1,-1.602071600E0,2.369768769E0
6.452170583E0,8.986215169E-1,7.560134089E-1,-1.369882759E0,1.804343559E0
6.462140583E0,1.071183595E0,-4.489533108E-1,-9.512022382E-1,1.501259161E0
6.472110583E0,-1.435840814E-1,-1.142601487E0,-3.655807865E-1,1.208223431E0
6.482080583E0,-4.843903613E-1,4.928714553E-1,-5.561263418E-1,8.870359641E-1
6.492049583E0,-8.562113694E-1,8.515250453E-1,-1.193922499E0,1.698129484E0
6.502019583E0,3.835087517E-1,2.269538283E-2,-1.116366785E0,1.180622226E0
6.511989583E0,9.504882932E-2,1.962120920E-2,-1.308006939E0,1.311602616E0
6.521959583E0,1.071105937E-1,2.919777900E-1,4.105300874E-1,5.150326803E-1
6.531929583E0,9.877582265E-1,-8.067222172E-1,2.667178184E-1,1.302921887E0
6.541899583E0,8.155330941E-1,-2.326168567E-1,-4.596724266E-1,9.646261293E-1
6.551869583E0,-7.766462595E-1,-5.815661153E-1,-3.722664928E-1,1.039221295E0
6.561839583E0,2.563927502E-1,-1.765030577E0,-3.162326252E-1,1.811373306E0
6.571809583E0,-7.132617109E-1,-4.338198397E-1,-1.324758627E0,1.565863130E0
6.581779583E0,-1.440265840E0,-1.805440392E0,-1.236625299E0,2.619775340E0
6.591749583E0,-5.984017110E-1,-2.032250086E0,-8.253988087E-1,2.273633263E0
6.601719583E0,-4.190902649E-1,-2.628972477E-1,3.498769194E-1,6.059418055E-1
6.611688583E0,-1.161080662E0,-1.633058919E0,-1.660456048E0,2.602326656E0
6.621658583E0,-1.009109481E0,-3.167826144E0,-1.257821456E0,3.554650367E0
6.631628583E0,-1.318299500E0,-1.652058569E0,9.971315324E-2,2.115928591E0
6.641598583E0,-1.485276683E0,-1.502079535E-1,-2.816030753E-1,1.519180551E0
6.651568583E0,-7.775218800E-1,-4.269683647E-1,3.317464578E-1,9.470469739E-1
6.661538583E0,-1.703750002E0,-2.553245187E-1,2.905161615E0,3.377561056E0
6.671508583E0,-3.655543278E-1,6.596235207E-1,1.194496695E0,1.412641324E0
6.681478583E0,9.019327220E-1,-1.156319055E-1,2.017481773E0,2.212936077E0
6.691448583E0,-8.229154231E-1,1.801229227E0,1.740779834E0,2.636651466E0
6.701418583E0,-1.898530988E-1,3.445352248E0,-4.566359675E-1,3.480662684E0
6.711388583E0,-1.566946352E-1,1.950865907E0,-1.427789490E0,2.422604761E0
6.721357583E0,-7.841149081E-1,-4.909626317E-1,-2.246582115E-1,9.520251083E-1
6.731327583E0,-1.196207518E0,8.845609367E-1,-7.861622375E-1,1.682679868E0
6.741297583E0,-2.016811683E0,1.221204438E0,-1.475210994E0,2.781207852E0
6.751267583E0,-1.565188533E0,-8.548828089E-1,2.155985355E-2,1.783565134E0
6.761237583E0,-8.687373479E-1,-2.687868556E-1,-7.685013074E-1,1.190607077E0
6.771207583E0,-8.415741076E-1,1.265266424E0,-2.367630004E0,2.813328622E0
6.781177583E0,-2.611809437E-1,-4.523087355E-1,-1.215846049E0,1.323283905E0
6.791147583E0,-3.224607870E-1,-2.502070355E-1,-8.300882757E-1,9.250032785E-1
6.801117583E0,-2.662858553E-1,-3.569412330E-1,-1.998692331E0,2.047702672E0
6.811087583E0,-1.572192036E-1,-1.665073010E0,2.018127891E0,2.621073480E0
6.821057583E0,-7.741418239E-1,-3.673799747E-1,1.992721739E0,2.169148113E0
6.831027583E0,-1.678439306E0,9.823886552E-1,1.613098864E0,2.526723950E0
6.840996583E0,-4.345250139E-1,-6.020673305E-1,2.475913421E0,2.584848995E0
6.850966583E0,-3.842322350E-1,-1.495942589E0,1.700291959E0,2.297057114E0
6.860936583E0,-1.223182843E0,1.201820333E0,-4.460916835E-1,1.771876455E0
6.870906583E0,-1.039808898E0,1.252515400E0,-6.037109828E-1,1.736221277E0
6.880876583E0,-1.402972884E0,-1.080218128E0,-1.186096585E0,2.131203704E0
6.890846583E0,-1.189274839E0,-1.217321886E0,-2.706025915E0,3.196689455E0
6.900816583E0,-1.287631731E0,-5.814278287E-1,3.169190884E-4,1.412817715E0
6.910786583E0,-1.779943608E0,-1.326672128E0,1.295244221E0,2.570197614E0
6.920756583E0,-1.737324861E0,-2.835031280E-1,3.050527489E-1,1.786541037E0
6.930726583E0,-2.109881960E0,8.946055761E-1,1.338304871E-1,2.295611383E0
6.940696583E0,-1.554875360E0,-2.957375497E-1,5.209266883E-1,1.666272096E0
6.950666583E0,-2.017426810E0,2.326440462E-1,-1.292642795E0,2.407292998E0
6.960635583E0,-2.163822232E0,2.067241286E0,-9.053249842E-1,3.126535865E0
6.970605583E0,-1.981039148E0,-2.598947024E-1,2.892360306E-1,2.018840966E0
6.980575583E0,-2.238241208E0,-2.745764762E-1,-1.118767067E0,2.517291341E0
6.990545583E0,-2.490496377E0,1.189557552E0,1.259055219E0,3.033618205E0
7.000515583E0,-2.066762546E0,-1.719840370E0,3.023725607E0,4.046266781E0
7.010485583E0,-1.843802073E0,-6.691237843E-1,3.938257617E-1,2.000607771E0
7.020455583E0,-2.202566176E0,-1.135559101E0,9.549058646E-1,2.655680222E0
7.030425583E0,-7.577076396E-1,-2.049186254E0,2.246109075E0,3.133415253E0
7.040395583E0,-7.108462992E-1,6.363194427E-1,1.275984077E0,1.593216953E0
7.050365583E0,-1.061711983E0,-3.086672053E-1,1.594866661E0,1.940646141E0
7.060335583E0,-5.404585813E-1,-2.558333434E0,1.930961108E0,3.250503998E0
7.070304583E0,-1.113480599E0,-6.419599593E-2,7.398949742E-1,1.338433690E0
7.080274583E0,-2.096196260E0,1.898591799E0,5.973322552E-1,2.890587380E0
7.090243958E0,-1.236193044E0,-1.740248030E0,9.431880444E-1,2.333718093E0
7.100213958E0,-1.665951554E0,-1.033606756E0,1.147916021E0,2.271882193E0
7.110183958E0,-1.324176683E0,1.169602175E0,1.097313048E0,2.079785820E0
7.120153958E0,-7.549477538E-1,1.996660423E-1,9.447533441E-1,1.225712658E0
7.130123958E0,-1.833462442E0,5.790278390E-1,1.016571770E0,2.174919752E0
7.140093958E0,-2.070482690E0,1.248468542E0,6.097757149E-1,2.493471214E0
7.150063958E0,-1.417285552E0,-8.924774820E-1,3.776804298E-1,1.716932410E0
7.160033958E0,-1.214758759E0,-4.112528032E-1,3.796526957E-1,1.337499114E0
7.170003958E0,-1.879383404E0,5.478680268E-1,-1.788189644E-1,1.965761322E0
7.179973958E0,-1.902793316E0,-1.236467132E0,3.075688058E-1,2.289993874E0
7.189942958E0,-1.266962701E0,-4.370533499E-1,2.170369506E-1,1.357687429E0
7.199912958E0,-1.226834722E0,5.669545081E-1,1.443227309E-1,1.359187220E0
7.209882958E0,-1.233447338E0,3.024551234E-1,9.609045231E-1,1.592547939E0
7.219852958E0,-1.552297615E0,1.121550049E0,8.254175198E-1,2.085381615E0
7.229822958E0,-1.541899073E0,4.926366895E-2,9.458017498E-1,1.809536021E0
7.239792958E0,-1.509329936E0,-2.849014896E-1,7.314264518E-1,1.701243771E0
7.249762958E0,-1.776471970E0,1.022352620E0,3.371405143E-1,2.077190715E0
7.259732958E0,-1.422089771E0,-8.822752601E-1,8.104901630E-1,1.859473919E0
7.269702958E0,-1.516297186E0,-9.042987978E-1,1.143298475E0,2.103341359E0
7.279672958E0,-1.485694467E0,1.451976790E0,4.232717550E-1,2.120066892E0
7.289642958E0,-1.049817723E0,-4.075304657E-2,1.653582062E0,1.959109925E0
7.299612958E0,-1.572384263E0,9.337126315E-3,1.330734481E0,2.059935366E0
7.309581958E0,-2.254058218E0,8.140540409E-1,-7.195934415E-1,2.502254414E0
7.319551958E0,-2.203893347E0,-6.073847884E-1,-3.780230767E-1,2.317102418E0
7.329521958E0,-1.606087468E0,8.288866729E-2,-2.839261740E-1,1.633095698E0
7.339491958E0,-1.395781832E0,-6.649816167E-1,-5.823721540E-1,1.652139461E0
7.349461958E0,-1.226140219E0,-3.760420400E-1,-4.659453195E-1,1.364526472E0
7.359431958E0,-1.587033146E0,6.726055089E-1,-1.168501144E0,2.082418618E0
7.369401958E0,-1.573620803E0,-9.199672893E-1,-1.106290863E0,2.132252733E0
7.379371958E0,-1.629849529E0,-6.603395122E-1,-2.806125569E-1,1.780786670E0
7.389341958E0,-1.781778903E0,-3.529364750E-1,8.141645533E-1,1.990518559E0
7.399311958E0,-9.208462720E-1,-2.153817793E0,3.138565507E0,3.916309791E0
7.409281958E0,-8.219306789E-1,-4.145725599E-1,1.857744028E0,2.073319397E0
7.419251958E0,-9.508329865E-1,-6.793382853E-2,9.303142297E-1,1.331984587E0
7.429221958E0,-7.259726076E-1,-9.236127359E-1,1.928752030E0,2.258358055E0
7.439190958E0,-6.763793018E-1,4.851294494E-1,1.767705093E0,1.953873291E0
7.449160958E0,-1.007671285E0,-6.640410921E-1,1.723400155E0,2.103915418E0
7.459130958E0,-1.835991070E0,-3.746594658E-1,3.468632644E-1,1.905661840E0
7.469100958E0,-2.393900082E0,-2.482990891E-2,1.137186965E0,2.650390220E0
7.479070958E0,-2.593973967E-1,-7.444370914E-1,1.911236696E0,2.067437859E0
7.489040958E0,-1.133265238E0,4.933722693E-1,7.706256008E-1,1.456561057E0
7.499010958E0,-8.604478964E-1,2.016529262E-1,5.271732688E-2,8.853324809E-1
7.508980958E0,-2.517471921E-1,-6.435208735E-1,1.058418539E0,1.264019607E0
7.518950958E0,-9.222189058E-1,7.028797603E-1,4.275320363E-1,1.235844371E0
7.528920958E0,-9.886440066E-1,-1.644734055E-2,-2.881133652E-1,1.029901353E0
7.538890958E0,-7.904581869E-1,-1.307797024E0,8.634080493E-1,1.755172544E0
7.548860958E0,-2.923699920E-1,1.354741395E-1,-1.149925125E-1,3.421355471E-1
7.558829958E0,-6.659541549E-1,-6.254734424E-1,9.626826614E-1,1.327203779E0
7.568799958E0,2.227033411E-1,-3.590225494E-1,5.990215158E-1,7.330216542E-1
7.578769958E0,-2.338225526E-1,-6.361852491E-1,5.145134622E-1,8.509575548E-1
7.588739958E0,6.386650532E-2,-1.662447318E0,2.802248865E-1,1.687108770E0
7.598709958E0,2.301142484E-2,2.180923730E-2,-1.738310555E0,1.738599653E0
7.608679958E0,-7.763292673E-1,-8.025092983E-1,-2.103301358E0,2.381298996E0
7.618649958E0,-1.643694712E-1,-3.124470209E0,-2.557168669E-1,3.139223236E0
7.628619958E0,2.332059637E-1,-1.241296348E0,5.089843351E-1,1.361714617E0
7.638589958E0,8.889764616E-1,2.999384817E-1,-3.240638012E-1,9.926024327E-1
7.648559958E0,5.074184507E-1,-1.037336695E0,-5.142591083E-1,1.264121566E0
7.658529958E0,5.651260838E-1,2.838223860E-1,3.776196188E-1,7.365590362E-1
7.668499958E0,1.721507996E-2,-2.022127971E-1,3.494775546E-1,4.041298497E-1
7.678469958E0,-2.604572046E-1,-7.209309921E-1,1.356917143E0,1.558461929E0
7.688439958E0,-8.751454577E-2,2.322292155E0,-5.951261008E-1,2.398931997E0
7.698409958E0,-5.601384088E-1,1.213715324E0,-1.099132116E0,1.730592769E0
7.708379958E0,5.206869525E-1,-6.697988454E-1,-5.131493068E-1,9.914976585E-1
7.718348958E0,8.709796820E-1,8.412596735E-1,-5.115711433E-1,1.314544970E0
7.728318958E0,2.304976796E-1,1.027382103E-1,5.283193231E-1,5.854960523E-1
7.738288958E0,9.693221017E-1,5.020875442E-1,9.546591121E-1,1.450190077E0
7.748258958E0,8.657375801E-1,1.187047927E0,-1.635255718E-1,1.478284462E0
7.758228958E0,3.230526714E-1,-4.241777810E-1,-6.747435433E-1,8.599817833E-1
7.768198958E0,9.342477248E-1,4.727745751E-1,-7.001730841E-1,1.259593965E0
7.778168958E0,4.933274650E-1,3.328097740E-1,-6.036911023E-1,8.476893773E-1
7.788138958E0,-3.870932776E-1,-6.283874023E-1,-1.675586303E0,1.830929107E0
7.798108958E0,5.537701332E-1,-1.367320802E0,-1.122624475E-1,1.479469632E0
7.808078958E0,8.185393669E-1,-2.264750291E0,2.334815429E0,3.354171085E0
7.818048958E0,1.629979337E-1,-1.019750901E0,3.043473993E0,3.213906373E0
7.828018958E0,9.979287272E-1,1.246613806E0,1.382928482E0,2.112439091E0
7.837988958E0,1.319740546E0,-8.910454988E-2,1.077615532E0,1.706138906E0
7.847958958E0,1.823469989E0,-2.980840373E-1,-4.012476325E-1,1.890739685E0
7.857928958E0,1.381919838E0,5.572419906E-1,-9.742695040E-1,1.780287095E0
7.867898958E0,9.267504980E-1,-8.648645908E-2,-1.209614087E0,1.526274101E0
7.877867958E0,8.299990325E-1,-8.014997765E-1,-2.053301817E0,2.355281010E0
7.887837958E0,9.901068337E-2,6.517101914E-2,-1.920315667E0,1.923970540E0
7.897807958E0,-2.164313983E-2,-3.707874396E-1,-1.656977540E0,1.698094908E0
7.907777958E0,5.652505198E-1,3.462665561E-1,-9.812124878E-1,1.184139614E0
7.917747958E0,6.124947432E-1,1.114652966E0,-7.796414226E-1,1.491791471E0
7.927717958E0,9.569621842E-1,6.629576030E-1,-5.871545917E-1,1.303855790E0
7.937687958E0,1.927192870E0,8.778699678E-1,2.459134251E-1,2.131947807E0
7.947657958E0,1.951880838E0,8.151044932E-1,3.569935656E-1,2.145152336E0
7.957627958E0,1.518730651E0,7.862040451E-1,1.207078734E0,2.093250740E0
7.967597958E0,2.180055711E0,1.856856713E0,1.185594310E0,3.099386007E0
7.977567958E0,1.939491611E0,1.746850706E0,1.057533270E-1,2.612335902E0
7.987537958E0,1.670505512E0,1.066426300E0,1.007603896E0,2.223312693E0
7.997507958E0,1.360658631E0,1.941398973E0,-1.025041462E0,2.582853438E0
8.007477958E0,7.772976393E-1,3.804286212E-1,-2.151475398E0,2.319000635E0
8.017447958E0,1.391186797E0,6.302149495E-1,-1.121050989E0,1.894551902E0
8.027417958E0,1.577113345E0,4.974559647E-1,-1.833459372E0,2.469073147E0
8.037386958E0,7.161344480E-1,-7.538069621E-1,-1.013225994E0,1.451792133E0
8.047356958E0,1.829455783E0,-7.258555171E-1,1.066457875E0,2.238550222E0
8.057326958E0,1.054825571E0,-8.641412902E-1,1.345089396E0,1.915375325E0
8.067296958E0,8.052513501E-1,-1.114075553E0,2.697804730E0,3.027828337E0
8.077266958E0,1.483075060E0,7.547577193E-1,1.255289027E0,2.084447503E0
8.087237875E0,1.317474750E0,7.116760191E-1,1.016655385E-1,1.500852543E0
8.097207875E0,1.788084101E0,-8.614498168E-2,7.136842453E-1,1.927176928E0
8.107177875E0,1.554346187E0,9.955586314E-2,1.633723748E-1,1.566075979E0
8.117147875E0,1.246128194E0,-1.491682600E0,-8.575175643E-2,1.945586241E0
8.127117875E0,1.044214994E0,1.502418673E-1,-4.720305169E-1,1.155755329E0
8.137087875E0,7.853210425E-1,5.288192600E-2,-1.001526884E0,1.273806005E0
8.147057875E0,1.321203520E0,-1.545327003E0,5.258681703E-1,2.100036100E0
8.157027875E0,1.216931804E0,-3.273016968E-1,3.166682428E-1,1.299356838E0
8.166997875E0,3.459142613E-1,-7.325853699E-1,-1.372635044E0,1.593883611E0
8.176967875E0,4.023981453E-1,-8.480363041E-1,-8.409085482E-1,1.260244828E0
8.186937875E0,1.539104469E-1,5.330444580E-1,-7.568741190E-1,9.384472558E-1
8.196906875E0,-4.505445940E-1,-1.055342611E0,-1.820150524E0,2.151670604E0
8.206876875E0,8.297890444E-1,-8.365988579E-1,-6.276021212E-1,1.335040048E0
8.216846875E0,1.223426380E0,9.644789261E-1,-4.953895587E-1,1.634748458E0
8.226816875E0,1.415545421E0,-9.682667524E-2,-1.244971615E0,1.887617166E0
8.236786875E0,1.654257707E0,-8.960974932E-2,-5.328544235E-1,1.740267883E0
8.246756875E0,1.443441317E0,-7.826556623E-2,-3.379684800E-1,1.484544047E0
8.256726875E0,1.964761962E0,-1.356058772E0,1.916940070E0,3.061673430E0
8.266696875E0,2.014622047E0,-3.989815441E-1,3.587208915E0,4.133516187E0
8.276666875E0,1.394783858E0,-4.645194760E-1,2.577597086E0,2.967356920E0
8.286636875E0,1.197463280E0,-8.790911588E-1,2.406348512E0,2.827937894E0
8.296606875E0,8.017800774E-2,1.133736523E0,-1.578713143E-1,1.147480008E0
8.306576875E0,-3.211464426E-2,-5.285961887E-1,8.787797946E-1,1.026011310E0
8.316546875E0,-1.959617581E-2,1.458096778E-1,1.139068599E0,1.148530255E0
8.326516875E0,4.849750098E-2,2.095574262E0,-4.040665752E-1,2.134725578E0
8.336486875E0,1.203911224E0,2.959182286E-1,3.949256229E-1,1.301128772E0
8.346456875E0,9.394330356E-1,6.668992111E-1,4.915064228E-1,1.252544430E0
8.356426875E0,5.115172758E-1,-2.411602235E-1,-1.051372059E0,1.193813798E0
8.366395875E0,3.696788441E-1,-7.030314955E-1,-7.545808411E-1,1.095585678E0
8.376365875E0,-1.802601386E-1,8.381153333E-1,-1.003583350E0,1.319890363E0
8.386335875E0,3.218564042E-1,-2.386818811E-1,-9.510788620E-1,1.032042435E0
8.396305875E0,1.231952936E0,-9.494395950E-1,2.693297696E-1,1.578506289E0
8.406275875E0,3.121644615E-1,4.709300709E-1,-4.083900064E-1,6.971400003E-1
8.416245875E0,6.923636891E-1,-1.561203656E-1,-1.423968335E0,1.591045840E0
8.426215875E0,5.788528245E-1,-1.775474873E-1,-8.128951228E-1,1.013603563E0
8.436185875E0,1.328227488E0,2.551491022E-2,3.565632105E-1,1.375491400E0
8.446155875E0,2.437829190E0,-1.437118138E0,8.627338654E-1,2.958484312E0
8.456125875E0,1.512124028E0,-9.724802560E-1,1.348022359E0,2.247087271E0
8.466095875E0,1.196211830E0,3.960412717E-1,-4.113258934E-1,1.325503837E0
8.476065875E0,5.159278671E-1,-1.076487020E-1,-2.360672987E-1,5.774924905E-1
8.486035875E0,2.048652038E-1,8.239948922E-1,3.327708900E-2,8.497321336E-1
8.496005875E0,5.934172520E-1,2.559963638E-1,-1.299146068E0,1.451019876E0
8.505975875E0,3.197634664E-1,-3.831835368E-1,-7.816663134E-1,9.274052636E-1
8.515945875E0,-3.647059699E-1,1.662556368E0,-1.348524050E0,2.171548120E0
8.525915875E0,-1.721994777E-1,3.057845280E-1,-7.080644864E-1,7.902608142E-1
8.535884875E0,-2.099444242E-1,8.339924616E-1,-2.729889572E-1,9.022987631E-1
8.545854875E0,1.713590684E-1,1.004707185E0,-1.286283948E0,1.641135842E0
8.555824875E0,5.701668222E-1,-3.819126445E-1,3.267482579E-1,7.600736130E-1
8.565794875E0,-5.236159324E-1,5.209015453E-1,5.327842569E-1,9.106981547E-1
8.575764875E0,-4.069349268E-1,-1.974020004E-1,-6.162848353E-2,4.564664877E-1
8.585734875E0,-4.778454997E-1,8.020476606E-1,2.210247517E-4,9.336042097E-1
8.595704875E0,-6.717094962E-1,2.058433625E0,1.357700086E-1,2.169510574E0
8.605674875E0,1.011305841E0,-1.238071316E0,2.121561043E0,2.656422659E0
8.615644875E0,3.312582519E-1,-8.378855377E-2,1.824787366E0,1.856502487E0
8.625614875E0,7.619327646E-2,1.224546121E0,-1.247425107E0,1.749682261E0
8.635584875E0,1.198981802E0,-6.503708866E-1,-5.648679292E-1,1.476352068E0
8.645554875E0,9.663474038E-2,-1.068974809E0,1.023053994E0,1.482796308E0
8.655524875E0,6.930339262E-1,-2.166521746E0,6.866321021E-1,2.376042117E0
8.665494875E0,1.124460939E0,-8.681925336E-1,1.214100655E0,1.868745858E0
8.675464875E0,-8.621598881E-2,1.664085415E-1,7.234502649E-1,7.473321117E-1
8.685434875E0,6.618795227E-1,-1.917962163E0,7.364497948E-1,2.158476699E0
8.695404875E0,-1.448959042E-1,-5.968521988E-1,6.068667251E-1,8.634318690E-1
8.705373875E0,-5.512990268E-1,1.051358610E-1,-7.314697212E-1,9.219718647E-1
8.715343875E0,3.194884646E-1,-1.215909784E0,-8.511394215E-1,1.518205453E0
8.725313875E0,-2.820466597E-2,-4.112171352E-2,-2.266983050E0,2.267531400E0
8.735283875E0,6.896874185E-1,-6.155580264E-1,-2.039138691E0,2.238898618E0
8.745253875E0,6.815844932E-1,-1.862593709E0,1.557346247E0,2.521733546E0
8.755223875E0,7.705571884E-1,7.585908616E-1,-2.018219107E-1,1.099977527E0
8.765193875E0,1.981389250E0,1.218374970E0,3.476918149E-1,2.351856825E0
8.775163875E0,1.405782178E0,1.421414271E-1,5.430987453E-1,1.513731801E0
8.785133875E0,1.700089645E0,1.508862305E-1,-5.423216504E-1,1.790861309E0
8.795103875E0,1.343630808E0,-1.062916217E0,-4.312473571E-1,1.766666045E0
8.805073875E0,3.865088484E-1,-2.408395037E-1,1.186879528E-1,4.706161775E-1
8.815043875E0,-2.084878097E-1,2.743598369E-1,-9.247359860E-1,9.868521321E-1
8.825013875E0,-4.331139345E-1,-1.384363097E0,2.771393108E-1,1.476771838E0
8.834983875E0,-3.134967861E-1,4.452362359E-3,8.544495302E-1,9.101560625E-1
8.844953875E0,-7.146906243E-1,7.330683500E-1,9.816866970E-1,1.418407792E0
8.854923875E0,-7.341066693E-1,-1.678124580E-1,3.210821890E0,3.297946456E0
8.864892875E0,-6.633249544E-2,9.919508994E-1,1.433148463E0,1.744213606E0
8.874862875E0,-4.982185878E-2,-3.187551141E-2,-6.106919736E-1,6.135494702E-1
8.884832875E0,-1.010258532E-1,1.456506336E-1,5.126137018E-2,1.845211591E-1
8.894802875E0,-1.942525439E-2,1.189867455E0,-1.051117705E0,1.587768979E0
8.904772875E0,-7.166212287E-1,-4.862994772E-1,-2.549020573E0,2.692125378E0
8.914742875E0,-1.127838218E0,1.908510724E-1,-1.330594733E0,1.754686730E0
8.924712875E0,-7.301287354E-1,-1.400490010E-1,-1.208621814E0,1.418967365E0
8.934682875E0,6.139736503E-1,-1.868973898E0,2.175364782E0,2.932957383E0
8.944652875E0,-8.353339590E-2,5.681286290E-1,3.449234506E0,3.496707973E0
8.954622875E0,1.811511994E-1,3.348875821E-1,1.186981269E0,1.246551236E0
8.964592875E0,-4.742072891E-1,-8.217355281E-2,1.446332181E0,1.524303717E0
8.974562875E0,-5.835336303E-1,7.115198985E-1,1.075870138E0,1.415721942E0
8.984532875E0,2.458889399E-1,-1.059380990E0,9.980489606E-1,1.476093216E0
8.994502875E0,-4.293283010E-1,4.062709755E-1,4.909620470E-1,7.683896323E-1
9.004472875E0,-5.310625443E-1,1.130285789E0,-1.523305512E0,1.969779956E0
9.014442875E0,-9.321014312E-1,-2.191997479E0,-1.921026104E0,3.060066555E0
9.024411875E0,-1.932278486E0,-3.477239746E-1,-1.477481468E0,2.457145416E0
9.034381875E0,-2.314817952E0,7.290773329E-1,-1.930466434E0,3.101070228E0
9.044351875E0,-2.261049734E0,-1.790993091E0,-1.056205952E0,3.071737809E0
9.054321875E0,-1.787549958E0,-1.534992342E0,1.194938745E0,2.641858238E0
9.064291875E0,-4.757388941E-1,-1.543644467E0,1.274898834E0,2.057798040E0
9.074261875E0,3.409831582E-1,-1.915255487E-2,2.012888786E0,2.041655602E0
9.084231583E0,-4.228748752E-1,8.707138529E-1,1.412013702E0,1.711942893E0
9.094201583E0,-1.038043039E0,4.495462185E-1,-6.185576481E-1,1.289278370E0
9.104171583E0,-1.280760814E0,1.482566206E0,-1.594167919E0,2.525811191E0
9.114141583E0,-1.605942749E0,4.408139867E-1,-2.554071983E0,3.049041289E0
9.124111583E0,-9.489595386E-1,-7.750633451E-1,-1.868697032E0,2.234563938E0
9.134081583E0,-1.106135619E0,-5.025097132E-2,1.324628234E-1,1.115171542E0
9.144051583E0,-1.111457608E0,-3.244257438E-1,2.847629106E-1,1.192342230E0
9.154021583E0,-1.022006319E0,7.218089515E-1,8.834207296E-1,1.531645280E0
9.163991583E0,-1.105723683E0,8.174363628E-1,1.277468101E0,1.876899523E0
9.173961583E0,-6.973506331E-1,-1.054564639E0,1.314531262E0,1.823841254E0
9.183931583E0,-9.912178047E-1,1.492278724E0,1.012184604E0,2.057650651E0
9.193900583E0,-1.211990249E0,8.717189893E-1,2.331442755E-1,1.511016417E0
9.203870583E0,-9.073109910E-1,1.346020272E-1,1.222162796E0,1.528074881E0
9.213840583E0,-1.224480633E0,1.738784180E0,4.752991104E-1,2.179135720E0
9.223810583E0,-1.842686132E0,-1.713994324E-1,3.011795533E-1,1.874987752E0
9.233780583E0,-1.234285975E0,-1.017854065E-2,-7.526594460E-2,1.236620569E0
9.243750583E0,-1.506717838E0,-3.660514873E-1,-1.171380898E0,1.943277011E0
9.253720583E0,-4.371919289E-1,-1.471869603E0,-3.764010590E-1,1.580890466E0
9.263690583E0,6.666505583E-1,-1.612045488E0,1.208095565E0,2.121935088E0
9.273660583E0,3.435129561E-1,-2.644771653E0,4.198008478E-1,2.699824254E0
9.283630583E0,2.712285067E-1,-1.234842191E0,9.662447852E-1,1.591235094E0
9.293600583E0,4.723652700E-1,-1.313647748E0,1.583716021E0,2.111150347E0
9.303570583E0,1.473464723E-1,-3.189327233E0,2.629395815E0,4.136090126E0
9.313540583E0,-6.135759665E-1,-4.170801383E-1,3.542374220E0,3.619232850E0
9.323510583E0,-1.380440931E0,6.258131656E-1,1.221459961E0,1.946592848E0
9.333480583E0,-1.799535873E0,-1.013478886E0,1.336319157E0,2.459922295E0
9.343450583E0,-1.325543323E0,4.183919612E-1,2.428904146E-1,1.411067925E0
9.353419583E0,-1.914924973E0,-2.614407063E-2,-5.057052165E-1,1.980747064E0
9.363389583E0,-1.332620939E0,-1.878453696E0,9.082784128E-1,2.475769887E0
9.373359583E0,-1.396129741E0,6.503995380E-1,-9.060219723E-1,1.786917353E0
9.383329583E0,-2.051512569E0,7.740134776E-2,-3.491594660E-1,2.082452189E0
9.393299583E0,-6.572878504E-1,6.490497082E-2,3.193714106E-1,7.336471028E-1
9.403269583E0,-1.518503486E0,1.020354626E0,3.473538458E-1,1.862157645E0
9.413239583E0,-1.291212858E0,-5.004532474E-1,2.185772241E0,2.587524761E0
9.423209583E0,-1.754932435E0,1.345382049E0,4.058458829E-1,2.248232993E0
9.433179583E0,-2.322932572E0,8.316787183E-1,-1.279267874E0,2.779250171E0
9.443149583E0,-1.562643240E0,-2.032381064E-1,-8.708363521E-1,1.800420944E0
9.453119583E0,-1.818666063E0,-1.337363470E-1,-2.996084064E-1,1.848025123E0
9.463089583E0,-1.626895223E0,-6.285154563E-1,8.344087833E-1,1.933405742E0
9.473059583E0,-7.303298065E-1,5.226814377E-1,1.421020169E0,1.681034155E0
9.483029583E0,-5.278513996E-1,-3.254025212E-1,4.669060171E-2,6.218471783E-1
9.492999583E0,-4.879935618E-1,-9.460803697E-1,9.987161279E-1,1.459671088E0
9.502969583E0,-5.566645780E-1,7.723967224E-2,8.233095986E-1,9.968350488E-1
9.512938583E0,-1.140450589E0,-1.473269718E0,4.896277124E-1,1.926366140E0
9.522908583E0,-1.029035257E0,-1.113515097E0,6.864017218E-1,1.664324715E0
9.532878583E0,-1.524706505E0,-1.463774425E-1,-3.116554248E-1,1.563101208E0
9.542848583E0,-1.534969976E0,-1.684036700E0,-4.501204151E-1,2.322653832E0
9.552818583E0,-8.304301916E-1,-7.477229342E-1,3.673261803E-1,1.176279054E0
9.562788583E0,-1.274337063E0,-5.551747075E-1,-3.600107288E-1,1.435883571E0
9.572758583E0,-1.081981356E0,-1.254976201E0,9.586860895E-2,1.659770981E0
9.582728583E0,-5.932272175E-1,-5.462851855E-1,1.722583884E-1,8.246326381E-1
9.592698583E0,-7.000130166E-1,-1.556821167E0,-3.249876612E-1,1.737621176E0
9.602668583E0,-3.641645908E-3,-3.790448776E-1,3.281995368E-1,5.014012533E-1
9.612638583E0,-3.307723117E-1,-2.328469446E-1,3.020057648E-1,5.048123451E-1
9.622608583E0,-3.309649774E-1,-1.768706429E0,8.080302393E-1,1.972504275E0
9.632578583E0,1.927277362E-1,-1.073385072E-1,1.984812210E0,1.997034062E0
9.642548583E0,-3.986061528E-2,-8.824857599E-1,1.298435631E0,1.570447412E0
9.652518583E0,6.549546652E-2,6.335288590E-1,2.714608458E0,2.788323431E0
9.662488583E0,-7.631757364E-1,3.251671708E0,-2.046835381E-1,3.346296677E0
9.672457583E0,-1.672687546E0,-6.138056159E-2,-1.232984238E0,2.078918308E0
9.682427583E0,-3.038630598E-1,-4.470032644E-1,-7.508403772E-1,9.251518522E-1
9.692397583E0,1.032303996E-1,4.142363450E-1,-1.843378004E0,1.892165619E0
9.702367583E0,2.842751797E-1,-8.514855766E-1,-1.094309333E0,1.415398524E0
9.712337583E0,1.016683671E0,1.100039604E0,4.369448841E-1,1.560337672E0
9.722307583E0,6.350938663E-2,-3.910088655E-1,1.945836425E-2,3.966106442E-1
9.732277583E0,2.952175860E-1,-1.356279505E0,2.486733109E-1,1.410136849E0
9.742247583E0,8.391781379E-1,7.616387227E-1,4.879928309E-1,1.233876207E0
9.752217583E0,8.614059627E-1,3.599648282E-1,-1.021094007E0,1.383556244E0
9.762187583E0,1.766813685E0,5.157062942E-1,3.032085371E-1,1.865346884E0
9.772157583E0,1.326859385E0,-7.589022258E-1,-1.260139292E-1,1.533743110E0
9.782127583E0,7.482480872E-1,-2.004484875E0,2.618704181E0,3.381633688E0
9.792097583E0,6.135219529E-1,1.626742757E0,2.368508255E0,2.938117176E0
9.802067583E0,5.118214406E-1,1.251213810E0,3.062607837E-1,1.386107086E0
9.812037583E0,8.770045799E-1,-4.575077873E-1,-7.944442338E-1,1.268696989E0
9.822007583E0,1.330839877E0,5.008777553E-1,-2.074395647E0,2.514981234E0
9.831976583E0,8.746197930E-1,-6.848346680E-1,-3.283290526E0,3.466115258E0
9.841946583E0,1.564366122E0,6.137266785E-2,-3.098558857E0,3.471609852E0
9.851916583E0,1.662346453E0,-1.327259481E-1,-2.300070105E0,2.841009397E0
9.861886583E0,1.416219897E0,-2.526419916E0,5.663496137E-2,2.896840331E0
9.871856583E0,2.340752108E0,-1.251596803E0,2.496644724E0,3.644015623E0
9.881826583E0,1.896338283E0,1.461134115E0,6.265537155E-1,2.474587105E0
9.891796583E0,2.217787209E0,1.101829145E0,6.559552699E-1,2.561812812E0
9.901766583E0,2.140899685E0,2.093083056E0,-1.314892620E-1,2.996954716E0
9.911736583E0,1.318556778E0,-5.137714505E-2,-5.970205986E-1,1.448331862E0
9.921706583E0,1.001824508E0,-1.422492498E0,4.999486327E-1,1.810272324E0
9.931676583E0,1.980300206E0,-1.451547897E-1,-4.080847818E-1,2.027114207E0
9.941646583E0,1.440663743E0,-2.091052026E-1,-2.292430133E0,2.715598078E0
9.951616583E0,2.991045811E0,1.161666334E-2,-1.663496600E0,3.422529902E0
9.961586583E0,3.161293634E0,-2.109007948E0,-7.113044286E-1,3.866218560E0
9.971556583E0,1.835767414E0,-2.849942849E0,2.855533957E0,4.432413611E0
9.981526583E0,2.260896391E0,7.244653416E-1,2.224111265E0,3.253178975E0
9.991496583E0,2.162381186E0,6.558260465E-1,9.731930315E-1,2.460305850E0
1.000146658E1,2.146258366E0,-4.481861562E-2,1.095595136E0,2.410137420E0
1.001143558E1,2.889533762E0,2.850058624E-1,-7.468104762E-1,2.998059304E0
1.002140558E1,1.734726651E0,-1.225222644E0,1.129819474E0,2.405605770E0
1.003137558E1,6.968803708E-1,9.466098350E-1,1.609554867E0,1.993082863E0
1.004134558E1,8.162129791E-1,3.678731874E-1,7.918773061E-1,1.195242225E0
1.005131558E1,3.151953292E-1,3.405313146E-1,5.948676538E-1,7.544383324E-1
1.006128558E1,1.818593411E0,1.738377798E0,-3.108754063E-1,2.534932520E0
1.007125558E1,2.330896626E0,-9.585054106E-1,-9.204716116E-1,2.683110078E0
1.008122558E1,1.959695495E0,-5.277448341E-1,8.747972560E-1,2.210020652E0
1.009119583E1,1.444405084E0,4.501078436E-1,-8.231219029E-1,1.722333529E0
1.010116583E1,1.266330909E0,-1.157300218E0,-6.675982457E-1,1.840821877E0
1.011113583E1,1.675450794E0,-2.902549079E-1,-2.882852733E-1,1.724671469E0
1.012110583E1,1.616907156E0,-3.818629432E-1,-1.801948142E-1,1.671130823E0
1.013107583E1,5.429196378E-1,4.516710967E-2,4.148909408E-1,6.847892330E-1
1.014104583E1,1.690495095E0,1.333256678E0,-9.169358003E-1,2.340110745E0
1.015101583E1,1.486011386E0,6.134869426E-2,-2.947981360E0,3.301906661E0
1.016098583E1,1.550668142E0,-4.885293129E-1,-2.283648199E0,2.803262684E0
1.017095583E1,1.948251617E0,-1.135115882E0,-1.963376318E0,2.989819224E0
1.018092483E1,2.519123175E0,-2.286228283E0,5.743146908E-1,3.450023000E0
1.019089483E1,1.851229353E0,-2.904408494E-1,1.433958887E0,2.359585577E0
1.020086483E1,2.574801532E0,-1.601803797E-1,-2.851751393E-1,2.595493314E0
1.021083483E1,1.872089294E0,-3.292458960E-1,2.415601730E-2,1.900974671E0
1.022080483E1,1.326068695E0,6.766108516E-1,3.631021518E-1,1.532352310E0
1.023077483E1,1.868971559E0,-5.179273590E-1,5.259184563E-1,2.009451084E0
1.024074483E1,1.835391584E0,1.362806459E0,9.316783851E-1,2.468588327E0
1.025071483E1,2.762926340E0,1.868799943E0,8.396595830E-1,3.439651640E0
1.026068483E1,3.133778976E0,-1.008367250E0,1.419519773E0,3.585026021E0
1.027065483E1,1.904998301E0,4.035464653E-1,1.342434760E0,2.365163707E0
1.028062483E1,1.813940343E0,1.287694004E0,-2.851967740E-1,2.242737750E0
1.029059483E1,2.699912066E0,1.553482992E0,-5.972006929E-1,3.171668842E0
1.030056483E1,2.703629726E0,-9.658109218E-2,2.555013970E0,3.721160839E0
1.031053483E1,1.308982839E0,-1.000831943E0,3.588575410E0,3.948794008E0
1.032050483E1,1.279267874E0,2.099605625E0,2.071245752E0,3.214798444E0
1.033047483E1,1.022179981E0,3.614643466E-1,1.647236663E0,1.972028654E0
1.034044483E1,1.942272401E0,2.898432639E-1,6.101762491E-1,2.056391561E0
1.035041483E1,2.375546841E0,2.115006899E0,-9.155909407E-1,3.309801164E0
1.036038483E1,1.585646479E0,-1.892135596E-1,-1.792684983E0,2.400790698E0
1.037035483E1,2.440664651E0,-4.098751992E-1,-1.442406360E0,2.864503050E0
1.038032483E1,2.329627780E0,-1.030061882E0,-1.139159816E0,2.790318648E0
1.039029483E1,2.758661966E0,-2.691156153E0,1.792653993E0,4.250428875E0
1.040026483E1,2.097190579E0,-8.634846479E-1,2.035316951E0,3.047347888E0
1.041023483E1,3.232461046E-1,-1.160596878E0,1.928049195E-1,1.220101182E0
1.042020383E1,1.455099642E0,-2.096083555E-1,-4.811293691E-1,1.546847148E0
1.043017383E1,1.655120172E0,3.086645740E-1,-1.091768718E0,2.006652819E0
1.044014383E1,2.274823582E0,-6.101382422E-1,-2.292328391E0,3.286618392E0
1.045011383E1,1.542101825E0,-2.783651796E-1,-2.988030694E0,3.374002466E0
1.046008383E1,4.181623118E-1,-1.741131252E-1,-2.677902562E0,2.715941316E0
1.047005383E1,3.557209191E-1,-5.763734955E-1,-1.634333028E0,1.769120749E0
1.048002383E1,-2.019728785E-1,1.743564863E0,-5.016794086E-2,1.755940858E0
1.048999383E1,-1.631694033E-1,1.405556622E-1,6.027146173E-1,6.400352008E-1
1.049996383E1,1.708241760E-1,-1.124576275E0,1.987129462E0,2.289658533E0
1.050993383E1,2.702423738E-1,4.261515087E-1,2.635659353E0,2.683530561E0
1.051990383E1,1.601987839E0,-3.581483907E-1,3.040158037E0,3.455024775E0
1.052987383E1,1.599782707E0,9.211800018E-1,1.603707066E0,2.445353484E0
1.053984383E1,1.028531592E0,5.084308961E-1,2.539539313E-1,1.175105021E0
1.054981383E1,1.119689903E0,-1.173171315E0,9.496024400E-1,1.879303384E0
1.055978383E1,8.117104769E-1,5.722471154E-1,1.087646431E0,1.472859606E0
1.056975383E1,3.592367768E-1,-9.206519982E-1,2.509297514E-1,1.019616057E0
1.057972383E1,4.503916528E-1,-5.540640289E-1,1.150122176E0,1.353743184E0
1.058969383E1,-4.161343512E-1,-1.534980063E0,8.913144708E-1,1.823121794E0
1.059966383E1,-3.667813660E-1,-2.981857496E0,-6.455255914E-1,3.072898630E0
1.060963383E1,-1.123114325E0,3.002048224E-1,3.656263947E-3,1.162549823E0
1.061960383E1,-1.758918774E0,-1.625406083E0,1.740690372E0,2.960699776E0
1.062957383E1,-4.585608343E-1,-2.199007999E0,4.992563224E-1,2.301123876E0
1.063954383E1,-1.034123942E0,-6.151408276E-1,8.312717521E-1,1.462471638E0
1.064951383E1,-3.864785890E-1,-8.269164535E-1,6.807363546E-1,1.138665230E0
1.065948383E1,5.357918454E-1,4.802525792E-1,-1.739020407E-1,7.402414209E-1
1.066945383E1,5.949859503E-1,-1.644929937E-1,-1.653884947E-2,6.175271327E-1
1.067942383E1,6.234519137E-1,-1.090895436E0,-1.109961745E0,1.676532199E0
1.068939283E1,4.292937658E-1,6.811769423E-1,-3.604808450E0,3.693634947E0
1.069936283E1,-4.344175347E-1,-5.068919089E-1,-2.411568906E0,2.502263493E0
1.070933283E1,4.842910317E-1,-1.617270852E0,-1.573704418E0,2.307953294E0
1.071930283E1,-6.532575108E-2,-1.847613434E0,9.204219103E-2,1.851057704E0
1.072927283E1,-8.370809609E-1,-1.169631411E0,2.333878706E0,2.741483537E0
1.073924283E1,2.715103425E-2,1.170164969E0,1.718913587E0,2.079588217E0
1.074921283E1,-6.018063254E-1,2.673654852E0,9.120089364E-1,2.888314634E0
1.075918283E1,-5.785295101E-1,1.409502031E0,6.399146032E-1,1.652538371E0
1.076915283E1,-5.039033239E-1,3.562278727E-1,-9.315362978E-1,1.117397302E0
1.077912283E1,-1.894094560E0,9.920897707E-1,-8.980013466E-1,2.319103864E0
1.078909283E1,-2.225132774E0,7.409869418E-1,-1.371656805E0,2.716932075E0
1.079906283E1,-2.344864454E0,6.836318958E-1,-2.669350424E0,3.618172683E0
1.080903283E1,-2.512667557E0,-1.316781563E0,-4.813620883E-1,2.877346242E0
1.081900283E1,-1.527174907E0,-2.180362105E0,-8.092569852E-1,2.782290239E0
1.082897283E1,-1.030765448E0,1.128995893E0,1.000529934E0,1.827065758E0
1.083894283E1,-1.007707757E0,-8.586516318E-1,4.858768989E0,5.035910408E0
1.084891283E1,9.462839989E-1,-1.871212212E0,4.836516241E0,5.271506227E0
1.085888283E1,1.234615904E0,1.491813286E0,4.791331297E0,5.167846641E0
1.086885283E1,6.054316722E-2,1.983583418E0,8.480760652E-1,2.158124571E0
1.087882283E1,9.067496583E-2,1.533381142E0,3.482741976E-1,1.575047489E0
1.088879283E1,-1.376787736E0,9.955744189E-1,-6.338592267E-1,1.813419536E0
1.089876283E1,-1.803352059E0,-1.264105459E0,-2.842680607E0,3.595952488E0
1.090873283E1,-1.554264911E0,-2.824190542E-1,-3.525212057E0,3.862980712E0
1.091870283E1,-1.851670525E0,-1.086444536E0,-2.294172018E0,3.142016981E0
1.092867283E1,-1.197552670E0,-3.641159128E0,8.905888313E-1,3.935139217E0
1.093864283E1,-8.682402615E-1,-2.809281896E0,3.552422075E0,4.611464900E0
1.094861283E1,-8.005029725E-1,-1.650814867E0,2.633488866E0,3.209557343E0
1.095858283E1,-2.230986860E-1,2.266161516E-1,1.724459671E0,1.753536159E0
1.096855283E1,-3.875000976E-2,3.543175873E-1,2.640082186E-1,4.435570487E-1
1.097852283E1,-6.446302365E-1,-1.522048068E0,-1.385398931E0,2.156735650E0
1.098849283E1,-1.421388105E0,6.651228270E-1,-2.582096518E0,3.021581531E0
1.099846283E1,-2.157151583E0,1.218189906E0,-1.947340329E0,3.151098848E0
1.100843183E1,-1.513373432E0,-7.074402961E-1,-1.480724918E0,2.232334473E0
1.101840183E1,-1.276305820E0,-1.255594252E0,1.234095794E-1,1.794631828E0
1.102837183E1,-8.698075345E-1,-1.833709048E0,7.237929118E-1,2.154745971E0
1.103834183E1,-8.399339636E-1,-4.820006043E-2,-1.640056282E-1,8.571523523E-1
1.104831183E1,-1.317887856E-1,5.761179721E-1,1.116684873E0,1.263433935E0
1.105828183E1,1.125454527E-1,-9.780631775E-1,-6.156065583E-2,9.864399487E-1
1.106825183E1,-4.664528579E-2,-7.229968134E-1,-8.168969572E-2,7.290907908E-1
1.107822183E1,-1.173705751E-1,5.495914936E-1,9.672002202E-1,1.118616524E0
1.108819100E1,-7.497589347E-1,-6.189651990E-1,-5.540429789E-1,1.119026363E0
1.109816100E1,-1.077083874E0,-8.364675879E-2,-1.771864218E-1,1.094760924E0
1.110813100E1,-2.939563416E-1,-9.063856691E-2,1.429382856E0,1.462108420E0
1.111810100E1,-1.213281168E-1,-1.777524030E0,1.207995577E0,2.152571835E0
1.112807100E1,5.105817944E-2,-4.941976038E-1,4.370078001E0,4.398229183E0
1.113804100E1,8.952486236E-1,-6.274863464E-1,2.081897625E0,2.351490364E0
1.114801100E1,-3.129254401E-1,-2.328641939E-1,2.418668595E0,2.449919557E0
1.115798100E1,3.359815961E-1,-1.126864876E0,1.948958253E0,2.276213161E0
1.116795100E1,-2.000504968E-1,-1.554898603E0,-3.509650862E-1,1.606519953E0
1.117792100E1,-1.837673606E0,8.470700517E-1,4.818754739E-1,2.080090365E0
1.118789100E1,-1.461300614E0,-1.296049967E-1,-3.650790954E-1,1.511780303E0
1.119786100E1,-2.157521565E0,-1.955831655E0,-1.023138778E0,3.086582208E0
1.120783100E1,-2.348921983E0,8.109260729E-1,-1.219454951E0,2.768050931E0
1.121780100E1,-1.418875264E0,6.380850095E-1,-6.482556564E-1,1.685406446E0
1.122777100E1,-1.083025376E0,-5.475628021E-1,-3.338882929E-1,1.258670084E0
1.123774100E1,-3.810457948E-1,-1.332805857E0,-4.245160425E-1,1.449752124E0
1.124771100E1,5.979035282E-1,-1.516973562E0,-1.320741590E0,2.098345959E0
1.125768100E1,6.818189666E-1,-2.774562299E-2,-1.858613509E-1,7.072420834E-1
1.126765100E1,9.041805379E-1,-2.963208094E-1,1.107419960E0,1.460043641E0
1.127762100E1,-3.488700289E-1,-8.823439649E-1,6.438135266E-2,9.509921808E-1
1.128759100E1,-7.943484856E-1,2.112599015E-3,1.676198507E0,1.854894987E0
1.129756100E1,-5.939244980E-1,-2.324852943E-1,1.097873796E0,1.269693897E0
1.130753000E1,-1.660242186E0,-1.150872081E0,3.646826541E-1,2.052779604E0
1.131750000E1,-1.486245859E0,-2.629843712E-1,1.752331009E0,2.312736798E0
1.132747000E1,-1.340580900E0,2.838843665E-1,-9.695262426E-1,1.678609132E0
1.133744000E1,-1.935909314E0,-1.932358593E-1,-7.000976551E-1,2.067660924E0
1.134741000E1,-1.398379165E0,9.807704383E-1,-6.082121694E-1,1.813090451E0
1.135738000E1,-1.399537645E0,-7.524179560E-1,-2.096139103E0,2.630330310E0
1.136735000E1,-6.497893810E-1,-6.152528018E-2,-2.191089115E0,2.286237763E0
1.137732000E1,-8.010371156E-1,1.594978635E0,-3.399670583E-1,1.816919070E0
1.138729000E1,-6.390955545E-1,-5.021194115E-1,1.278016570E0,1.514560459E0
1.139726000E1,-7.821299976E-1,7.645737326E-1,1.674899256E0,2.000396921E0
1.140723000E1,-1.227657863E0,1.071247037E0,8.003896827E-1,1.815306500E0
1.141720000E1,-1.624790225E0,9.511814806E-1,-2.385038334E-1,1.897781221E0
1.142717000E1,-1.581596259E0,1.176674090E0,9.657688218E-1,2.195157866E0
1.143714000E1,-1.706073686E0,-1.171071872E0,5.002450866E-1,2.128929754E0
1.144711000E1,-3.944938061E-1,-8.989576587E-1,1.025846039E0,1.419898000E0
1.145708000E1,-7.216573624E-1,-4.235138297E-1,1.345312175E0,1.584303683E0
1.146705000E1,-9.711738418E-1,-2.368885401E-1,1.558699878E0,1.851712753E0
1.147702000E1,-3.784116241E-1,-1.181845075E-1,2.258349051E0,2.292881020E0
1.148699000E1,-2.670807843E-1,-1.556635518E0,4.737110066E-1,1.648893083E0
1.149696000E1,-8.998344487E-1,-2.698460788E-1,1.163471954E0,1.495388220E0
1.150693000E1,-1.262859710E0,5.621191531E-2,1.274804109E0,1.795299402E0
1.151690000E1,-1.604581810E0,-2.239306132E0,1.997332853E-1,2.762076777E0
1.152687000E1,-1.234515186E0,-9.501377526E-1,-2.513226843E-1,1.577958359E0
1.153684000E1,-1.091179026E0,-4.587535366E-1,-1.331396386E0,1.781500157E0
1.154681000E1,-1.268234324E0,-1.519045231E0,-2.354819924E-1,1.992829266E0
1.155678000E1,-1.238826191E-1,-3.699360850E-1,-2.133204603E-1,4.446405617E-1
1.156675000E1,-9.142491509E-1,-1.833872770E0,-2.692274433E-1,2.066742428E0
1.157672000E1,-1.668771958E-1,-1.189987030E0,6.466079110E-1,1.364558141E0
1.158668900E1,-4.899893627E-1,5.222221389E-1,4.747483027E-1,8.591807079E-1
1.159665900E1,-8.503917088E-1,-1.488521596E0,4.913058633E-1,1.783323877E0
1.160662900E1,-3.070564435E-1,5.423994184E-2,-1.982779133E-1,3.695128709E-1
1.161659900E1,-1.595673723E0,3.956074083E-1,-4.485358196E-1,1.704072837E0
1.162656900E1,-1.294289517E0,-1.094808685E0,9.674194908E-1,1.951843201E0
1.163653900E1,-1.461084559E0,1.655172504E0,9.548982632E-1,2.405451060E0
1.164650900E1,-1.440204883E0,9.308951506E-1,1.178270087E0,2.080643238E0
1.165647900E1,-1.062176544E0,3.291997030E-1,2.269413738E0,2.527217871E0
1.166644900E1,-7.375315297E-1,1.804029751E0,7.395938426E-1,2.084580330E0
1.167641900E1,-1.688244064E0,-1.718525916E-2,1.811327076E-1,1.698020144E0
1.168638900E1,-2.023136762E0,-7.913042790E-1,1.225985706E-1,2.175838971E0
1.169635900E1,-1.800937305E0,-5.602781573E-1,-1.566515266E0,2.451786465E0
1.170632900E1,-1.795168003E0,-1.507836411E0,-1.518676856E0,2.793309541E0
1.171629900E1,-7.218295629E-1,-2.517126936E-1,-1.921064696E0,2.067579929E0
1.172626900E1,-9.792725278E-1,-1.314504365E0,-1.860000468E0,2.479213212E0
1.173623900E1,6.185594022E-2,-2.231025890E0,2.830830055E-1,2.249764136E0
1.174620900E1,6.056889497E-1,-1.003772800E0,1.346938285E0,1.785682414E0
1.175617900E1,8.540735543E-2,-2.031755119E0,3.016663924E0,3.638074287E0
1.176614900E1,7.293891357E-1,-7.246831504E-1,2.058905788E0,2.301362037E0
1.177611900E1,1.778353165E-1,-7.919693998E-1,7.610484463E-1,1.112670512E0
1.178608900E1,-3.749740461E-1,-1.736151178E0,1.311739801E0,2.208050669E0
1.179605900E1,-7.364920409E-1,-6.334358883E-1,1.224620966E0,1.563124455E0
1.180602900E1,-1.676598457E0,-1.272783019E0,7.732428145E-1,2.242512753E0
1.181599900E1,-1.450191635E0,-7.227564928E-1,8.176822382E-1,1.814948200E0
1.182596900E1,-1.453127084E0,-4.306854397E-1,1.393303782E-1,1.521999088E0
1.183593900E1,-6.372728312E-1,-1.215375641E0,5.867768615E-1,1.492501824E0
1.184590900E1,1.293288620E-1,1.271055752E0,8.479912806E-1,1.533426845E0
1.185587900E1,-4.319278269E-1,1.990510907E0,-7.637586308E-1,2.175321255E0
1.186584800E1,-8.850624816E-1,-1.157268643E0,-8.764432472E-1,1.700223242E0
1.187581800E1,-8.099215212E-1,-1.189276886E-1,4.191769499E-1,9.196879802E-1
1.188578800E1,-1.217008768E-1,4.576510441E-1,4.788407689E-1,6.734568016E-1
1.189575800E1,1.849215572E-1,1.201173631E0,7.885473168E-1,1.448730805E0
1.190572800E1,-3.378376485E-1,2.615999259E0,-3.715431923E-1,2.663762517E0
1.191569800E1,-1.457906890E0,-6.163459387E-1,-6.707130575E-1,1.719078480E0
1.192566800E1,-1.017599272E0,7.104405025E-1,-1.124271635E0,1.674580753E0
1.193563800E1,-1.131093874E0,-2.180982202E-2,-8.789136958E-1,1.432598445E0
1.194560800E1,-2.640231290E-1,-1.955601860E0,1.720868896E0,2.618296508E0
1.195557800E1,2.668669224E-1,7.511862400E-1,1.138285072E0,1.389673209E0
1.196554800E1,-3.640825836E-1,1.920155454E-1,6.236476493E-1,7.472365675E-1
1.197551800E1,8.229364000E-1,-8.635869741E-1,1.791312057E0,2.152163020E0
1.198548800E1,8.984507051E-1,5.240338987E-1,1.261454331E0,1.634959396E0
1.199545800E1,-2.876214682E-1,-1.014942736E0,2.108893635E0,2.358021889E0
1.200542800E1,2.139354412E-1,1.040049218E0,1.390493025E0,1.749554687E0
1.201539800E1,-1.428689084E0,1.380045805E0,-8.681624204E-1,2.167806475E0
1.202536800E1,-1.634538850E0,-8.820097965E-1,-1.289974710E0,2.261347670E0
1.203533800E1,-1.034457672E0,6.887543491E-1,-2.090960224E0,2.432406193E0
1.204530800E1,-1.717361297E0,1.255411819E-1,-2.727109805E0,3.225247014E0
1.205527800E1,-6.470803660E-1,-1.003932137E0,-2.106981595E0,2.421975264E0
1.206524800E1,-2.291402484E-1,1.911516193E-1,-2.158996671E0,2.179520778E0
1.207521800E1,-2.770277752E-1,-8.071446785E-1,-1.488058496E0,1.715384799E0
1.208518800E1,1.005119998E0,-1.248367386E0,4.365917122E-1,1.661113983E0
1.209515821E1,6.760118774E-1,-1.269200430E0,-4.700225830E-2,1.438774132E0
1.210512821E1,-2.386680671E-1,-1.384323043E0,-6.118924069E-1,1.532228786E0
1.211509821E1,7.715250488E-1,1.283317655E-1,2.014471042E-1,8.076514587E-1
1.212506721E1,-2.547552191E-1,-1.905640910E0,2.150201290E0,2.884394752E0
1.213503721E1,-3.494394015E-1,-1.027451100E0,4.268614776E0,4.404410944E0
1.214500721E1,3.333350732E-1,1.794040368E0,2.412780449E0,3.025095471E0
1.215497721E1,-6.835588056E-1,3.520763496E-1,2.298073865E0,2.423294016E0
1.216494721E1,6.550547256E-1,2.099613519E0,8.258092833E-1,2.349347695E0
1.217491721E1,5.851421993E-1,2.649493280E-1,-1.112921605E0,1.284984062E0
1.218488721E1,6.872795351E-2,-1.163490665E0,-1.053861219E0,1.571323495E0
1.219485721E1,8.075599770E-1,1.537159028E0,-1.354702218E0,2.202323567E0
1.220482721E1,5.808543630E-2,-4.546061066E-1,-5.537114418E-1,7.187746453E-1
1.221479721E1,6.406347609E-1,-5.428256804E-1,2.167375731E-1,8.672068910E-1
1.222476721E1,6.592701296E-1,8.210572511E-2,-5.935333192E-1,8.908761165E-1
1.223473721E1,3.372999240E-1,-1.361528550E0,-2.344207227E-1,1.422140748E0
1.224470721E1,1.430636792E0,2.431412601E-1,6.306099290E-1,1.582247827E0
1.225467721E1,1.249720724E0,-1.119052118E0,9.028597981E-1,1.905055208E0
1.226464721E1,6.575821846E-1,-2.160293876E0,1.559419670E0,2.744280173E0
1.227461721E1,9.239344058E-1,-6.313153955E-1,1.651927884E0,1.995264306E0
1.228458721E1,3.123515359E-1,-1.599901406E0,1.847691495E0,2.463982924E0
1.229455721E1,8.420034394E-2,-2.755529612E-1,1.057258451E0,1.095816848E0
1.230452721E1,-3.035432902E-1,-4.247847220E-1,-3.208022243E-1,6.127761877E-1
1.231449721E1,-7.556719315E-1,-2.345100974E0,-2.704594517E-1,2.478646195E0
1.232446721E1,-3.090540717E-1,-2.976183066E-1,3.565047383E-2,4.305369112E-1
1.233443721E1,-3.057411855E-1,7.518367428E-1,-6.275804865E-1,1.025959759E0
1.234440721E1,4.183456951E-1,-6.614028284E-1,-5.494289410E-1,9.562107420E-1
1.235437721E1,4.306037249E-1,8.191528130E-1,-1.574669209E0,1.826475846E0
1.236434721E1,2.008226216E-1,4.316139776E-1,-1.736167551E0,1.800249459E0
1.237431721E1,5.478312624E-1,-2.996610314E-2,-6.277401155E-1,8.337114081E-1
1.238428721E1,8.694493195E-1,7.733211672E-1,-8.533695495E-1,1.442985563E0
1.239425621E1,2.146480706E-1,4.640701175E-1,-2.147223303E0,2.207261376E0
1.240422621E1,-7.620099478E-1,2.414164485E0,-3.046095884E0,3.960751123E0
1.241419621E1,-1.682901755E-1,1.330076962E0,-1.572898087E0,2.066744953E0
1.242416621E1,8.499847426E-1,-1.496300439E0,6.541706997E-1,1.841012865E0
1.243413621E1,9.987431712E-2,-9.654527798E-1,4.291628247E-1,1.061251469E0
1.244410621E1,-3.264468339E-1,-1.054850860E0,1.152603149E-1,1.110208454E0
1.245407621E1,-9.113253238E-1,-1.777217343E-1,1.214746188E0,1.528956233E0
1.246404621E1,-5.615117005E-1,-4.970598158E-1,1.142788598E0,1.366868549E0
1.247401621E1,1.144170003E-1,-2.158085968E0,1.970989977E0,2.924932099E0
1.248398621E1,4.679626089E-1,-4.593508297E-1,3.060544939E0,3.130004395E0
1.249395621E1,7.796652500E-1,3.717750344E-1,9.789934695E-1,1.305573740E0
1.250392621E1,2.469440699E-1,-4.327433673E-1,1.653375655E0,1.726817666E0
1.251389621E1,2.049122373E-1,7.491043389E-2,1.562360235E0,1.577520238E0
1.252386621E1,2.180342663E-1,-6.639811581E-1,8.308776498E-2,7.037851209E-1
1.253383621E1,1.129847248E-1,9.052454621E-1,4.819304377E-1,1.031742139E0
1.254380621E1,-2.339344537E-1,1.320593363E0,-1.018095555E0,1.683808397E0
1.255377621E1,-1.561601997E-1,-1.210720965E0,-1.310893709E0,1.791277080E0
1.256374621E1,2.979960367E-1,1.908186203E-1,2.554005325E-2,3.547755320E-1
1.257371621E1,-9.214042425E-2,5.900893092E-2,4.383645880E-1,4.518134834E-1
1.258368621E1,1.165540845E-1,-3.231180140E-1,2.734426426E0,2.755916905E0
1.259365621E1,1.099832028E-1,1.614635805E0,1.422852686E0,2.154914117E0
1.260362621E1,-2.198007102E-1,7.548571220E-1,-7.018752086E-1,1.053921456E0
1.261359621E1,1.672662549E-1,1.546220458E0,-2.240320331E0,2.727235027E0
1.262356621E1,-2.462453277E-1,1.208716539E0,-2.440272303E0,2.734330145E0
1.263353621E1,-1.317575030E0,-1.672441671E0,-2.275400117E0,3.116169250E0
1.264350621E1,-8.305413618E-1,-9.324227357E-1,-9.873871475E-1,1.591899648E0
1.265347621E1,-9.276409558E-1,2.389374045E-1,-9.146536320E-1,1.324462190E0
1.266344521E1,-1.104151366E0,2.886764520E-1,-2.156293504E0,2.439689736E0
1.267341521E1,-1.914028303E-1,-3.139419785E-1,-1.089663135E0,1.150026242E0
1.268338521E1,4.745687932E-2,-3.125059901E0,7.537949753E-1,3.215036299E0
1.269335521E1,1.503408314E-1,-2.250895021E0,3.535496725E0,4.193908422E0
1.270332521E1,-1.011501723E0,1.998980306E0,1.804385262E0,2.876606364E0
1.271329521E1,-1.653688773E0,1.331184717E0,-1.195007157E0,2.436140680E0
1.272326521E1,-4.550651861E-1,-1.453120798E-2,-1.665000504E0,1.726129242E0
1.273323521E1,-5.242656677E-1,-7.981917143E-1,-1.694930062E0,1.945444016E0
1.274320521E1,-2.600056534E-1,-1.598007200E0,1.756891837E0,2.389120943E0
1.275317521E1,-5.781590889E-1,1.615642403E0,1.782714311E0,2.474396617E0
1.276314521E1,-1.074107422E0,9.479485551E-1,1.135152134E0,1.827808410E0
1.277311521E1,-2.368999422E-3,1.602274498E-1,1.002757139E0,1.015480343E0
1.278308521E1,-1.203094587E-1,9.575692713E-3,6.356052053E-1,6.469621602E-1
1.279305521E1,-2.244167215E-1,-1.046415082E0,2.080333495E0,2.339473196E0
1.280302521E1,-1.249381731E0,1.082721321E0,2.651735687E-1,1.674382630E0
1.281299521E1,-2.162714331E0,-8.856341931E-1,-6.621199894E-1,2.429008868E0
1.282296521E1,-1.611188432E0,-1.942000944E0,-8.452559531E-2,2.524765416E0
1.283293521E1,-1.156166808E0,-3.456371033E-1,-3.484659863E-1,1.256031544E0
1.284290521E1,-2.158474077E-1,-2.274390595E0,5.646363795E-2,2.285307600E0
1.285287521E1,5.284357557E-1,-1.267676353E0,1.036414297E0,1.720581959E0
1.286284521E1,5.375596049E-1,-8.558894071E-1,1.438113919E0,1.757751020E0
1.287281521E1,1.130571791E0,-2.201484002E0,2.170311618E0,3.291652610E0
1.288278521E1,1.100008760E0,-7.004379630E-1,1.793390742E0,2.217404556E0
1.289275521E1,6.099709388E-1,-8.650438079E-1,6.941662395E-1,1.265793073E0
1.290272521E1,4.458566254E-1,-9.193565476E-1,8.676145363E-1,1.340432608E0
1.291269521E1,-1.043931916E-1,3.339508581E-1,-2.410239834E-1,4.248690088E-1
1.292266521E1,-4.955724303E-1,1.337588587E-1,-1.785787607E0,1.858096027E0
1.293263521E1,-8.814689291E-1,-3.422565356E-1,-1.968509588E0,2.183839969E0
1.294260521E1,-9.761758424E-1,1.425440079E-1,-2.644228447E0,2.822265429E0
1.295257521E1,-4.822829517E-1,2.757985443E-2,-2.575055886E0,2.619975250E0
1.296254421E1,-2.870989463E-1,8.852988553E-1,-1.521578829E0,1.783642902E0
1.297251421E1,9.920239165E-1,-7.653128207E-2,2.359519916E0,2.560723085E0
1.298248421E1,2.450726393E0,-7.346049982E-1,5.851474180E0,6.386349069E0
1.299245421E1,1.083981104E0,1.699430079E0,1.789241558E0,2.695266773E0
1.300242421E1,3.648332930E-1,1.032034440E0,1.221940602E0,1.640529564E0
1.301239421E1,3.400388329E-1,1.476185140E0,4.524686569E-1,1.580973390E0
1.302236421E1,-7.664869416E-1,1.348933940E0,-1.484768853E0,2.147478417E0
1.303233421E1,-9.935756944E-1,-1.319248796E-2,-1.599108816E0,1.882688425E0
1.304230421E1,-4.777476320E-1,7.567905039E-1,-2.419553279E0,2.579769900E0
1.305227421E1,-2.425730570E-1,-7.812175396E-1,-2.614842095E0,2.739806876E0
1.306224421E1,6.304032299E-1,-8.724118844E-1,-9.406813431E-1,1.429472671E0
1.307221421E1,1.259988727E0,-1.056636015E0,-5.688756108E-2,1.645383680E0
1.308218421E1,1.397011063E0,-2.187055705E0,6.390468764E-1,2.672682824E0
1.309215433E1,1.685092999E0,-2.393101645E-1,1.350813235E0,2.172902245E0
1.310212433E1,1.289067515E0,-8.780266732E-2,4.553332078E-1,1.369938939E0
1.311209433E1,1.177701226E0,-1.239851208E0,1.653994875E0,2.379056587E0
1.312206433E1,1.279716063E0,4.394916388E-1,2.310393364E0,2.677450952E0
1.313203433E1,1.903202914E-1,1.191566071E-1,1.523517181E0,1.539975556E0
1.314200433E1,-9.194593124E-2,1.182804018E0,7.553111583E-1,1.406404759E0
1.315197433E1,-7.327105734E-1,8.773387483E-1,-1.025758916E0,1.535828577E0
1.316194433E1,-7.942813157E-1,-5.412516099E-1,-1.526246662E0,1.803680955E0
1.317191433E1,-3.533193945E-1,7.142604885E-1,-1.418997617E0,1.627438747E0
1.318188433E1,-6.075214305E-1,1.049446571E-1,-2.279014866E0,2.360932957E0
1.319185433E1,2.441963537E-1,-6.413237822E-1,-1.606200904E0,1.746656634E0
1.320182433E1,4.168811503E-1,7.033791125E-1,-1.535619164E0,1.739729371E0
1.321179433E1,6.409461983E-1,-7.916326001E-1,-7.175089091E-1,1.245918632E0
1.322176433E1,1.984756077E0,-4.108680564E-1,1.641223971E0,2.608004097E0
1.323173433E1,1.515803096E0,1.572225657E0,2.387611109E-1,2.196943197E0
1.324170433E1,1.301143038E0,5.912929586E-1,-3.244818771E-1,1.465567828E0
1.325167333E1,1.457552841E0,5.405461434E-1,1.496952111E0,2.158127902E0
1.326164333E1,9.204768741E-1,-1.015641186E0,2.186870933E0,2.580931842E0
1.327161333E1,8.755104701E-1,-4.447716746E-1,2.965846358E0,3.124193503E0
1.328158333E1,5.011075509E-1,2.481739587E-1,9.781994176E-1,1.126753386E0
1.329155333E1,5.588476725E-1,-1.051896262E0,-2.154710662E-1,1.210464476E0
1.330152333E1,1.371374530E-1,3.607430926E-1,-8.326955491E-1,9.177821841E-1
1.331149333E1,-3.168584600E-1,-5.281029761E-2,-1.381966031E0,1.418808768E0
1.332146333E1,-3.386474879E-1,-1.939205975E0,5.126739281E-1,2.034216431E0
1.333143333E1,6.860079850E-1,-3.977083129E-1,1.638898534E0,1.820650230E0
1.334140333E1,-1.868214272E-1,-6.928599715E-2,-1.134628808E-1,2.292959232E-1
1.335137333E1,2.957326892E-1,8.871024290E-1,4.637192845E-2,9.362472423E-1
1.336134333E1,9.252006935E-1,8.417680889E-1,-5.435600907E-1,1.363828219E0
1.337131333E1,3.256174795E-1,-1.860651264E0,3.707228279E-1,1.924963709E0
1.338128333E1,-6.975373786E-2,3.089817855E-1,3.701650035E-1,4.871934498E-1
1.339125333E1,-9.135072123E-2,6.143915069E-1,-4.259269756E-1,7.531504940E-1
1.340122333E1,6.878141168E-1,-5.119816178E-1,2.922368217E-1,9.058784665E-1
1.341119333E1,9.692762741E-1,1.608364373E-2,1.620696151E-1,9.828640493E-1
1.342116333E1,7.954482738E-1,-2.349965273E0,1.165818442E0,2.741205461E0
1.343113333E1,7.568267566E-1,-9.989143485E-1,2.304140351E0,2.622914290E0
1.344110333E1,4.989943671E-1,1.335059667E0,2.512677205E-1,1.447243987E0
1.345107333E1,9.878362137E-1,-6.090912983E-1,1.386917453E0,1.808411628E0
1.346104333E1,5.633468857E-1,4.719387156E-1,-5.701766163E-1,9.301544166E-1
1.347101333E1,2.194471363E-1,-1.938863620E-1,-2.471025149E0,2.488315545E0
1.348098333E1,8.941861846E-2,-1.492118218E0,-1.672827587E0,2.243382402E0
1.349095333E1,2.133601118E-1,-7.808342546E-2,-9.933776200E-1,1.019028289E0
1.350092333E1,6.042805016E-3,-1.138690284E0,-1.412358103E0,1.814223661E0
1.351089333E1,2.266432681E-1,-8.051773828E-1,4.325354987E-1,9.416818712E-1
1.352086333E1,6.185139401E-1,5.893437892E-2,8.164034522E-1,1.025937304E0
1.353083333E1,9.569851345E-1,-7.034399235E-1,2.032427841E0,2.354020222E0
1.354080333E1,1.123970723E0,6.067977279E-1,1.191939708E0,1.747064377E0
1.355077333E1,7.724467892E-1,-6.217291778E-1,-6.950819135E-2,9.940083508E-1
1.356074333E1,5.607145789E-1,-5.590201288E-1,-2.751419020E-1,8.382168035E-1
1.357071333E1,5.676316522E-1,-3.130277663E-2,-4.787518913E-1,7.432287197E-1
1.358068233E1,4.020592626E-1,-1.683444961E0,-9.607384622E-1,1.979559795E0
1.359065233E1,-8.797866851E-3,1.234347224E-2,-1.940497917E-1,1.946409141E-1
1.360062233E1,-2.795658322E-1,8.333071679E-1,-7.275474089E-1,1.141000930E0
1.361059233E1,9.675113652E-2,-8.685585693E-1,-4.767071199E-1,9.954920637E-1
1.362056233E1,5.480982609E-1,-1.427384278E-1,-9.550105298E-1,1.110329264E0
1.363053233E1,1.033298169E0,-1.184192440E0,1.320783690E0,2.052921429E0
1.364050233E1,1.042973996E0,-1.092203458E0,3.091195459E0,3.440376798E0
1.365047233E1,3.606843281E-1,1.792071025E0,1.113732029E0,2.140563192E0
1.366044233E1,-1.601303861E-2,9.898342073E-1,2.502239925E-1,1.021097557E0
1.367041233E1,1.278579949E0,3.933571073E-1,-1.057853113E0,1.705447070E0
1.368038233E1,1.135473585E0,-3.667414588E-1,-2.704231405E0,2.955785352E0
1.369035233E1,7.687471828E-1,-8.366140607E-1,-1.947345006E-1,1.152743182E0
1.370032233E1,4.755956373E-1,1.118910031E0,-8.098393679E-3,1.215819251E0
1.371029233E1,-5.125316215E-1,-2.695978644E-1,-1.321460212E0,1.442785072E0
1.372026233E1,4.589226674E-1,-4.500081486E-1,-8.341620308E-1,1.053063931E0
1.373023233E1,4.944609112E-1,-1.100204496E0,2.992657596E-1,1.242779755E0
1.374020233E1,1.977831658E-2,-1.601181069E0,2.055050134E0,2.605264488E0
1.375017233E1,8.880637112E-1,1.421266921E0,2.923393818E0,3.369701505E0
1.376014233E1,9.306416738E-1,7.646830755E-1,1.418280163E0,1.860739840E0
1.377011233E1,5.044910787E-1,-3.125249058E-1,9.023370570E-1,1.079997792E0
1.378008233E1,1.254186827E-1,1.698597436E0,-3.748170483E-1,1.743975606E0
1.379005233E1,1.445767559E-1,7.818996173E-1,-8.340164351E-1,1.152324982E0
1.380002233E1,4.886153401E-1,-5.499069509E-1,1.168571311E0,1.380833630E0
1.380999233E1,-3.977001633E-1,5.365630201E-1,-9.577271461E-2,6.747130555E-1
1.381996233E1,-3.496594030E-1,-9.772743881E-3,-4.523008418E-1,5.717807763E-1
1.382993233E1,-5.711322706E-1,1.031245358E0,7.735404378E-1,1.409973003E0
1.383990233E1,-2.961165223E-1,-3.253063345E-1,-1.335036278E-1,4.597090653E-1
1.384987233E1,8.140465126E-1,-1.327200716E0,-4.350036085E-2,1.557570463E0
1.385984233E1,4.131945904E-1,2.455855132E0,-7.803120983E-1,2.609758834E0
1.386981233E1,3.638000169E-1,9.199921399E-1,-1.007633132E-1,9.944291001E-1
1.387978233E1,1.950702770E-1,-2.679612288E-1,2.481605101E-1,4.140522574E-1
1.388975233E1,-1.034167065E-1,-1.343438142E0,-1.142927177E0,1.766862640E0
1.389972233E1,-4.615140802E-1,-1.147462570E0,-5.181983775E-1,1.340967991E0
1.390969233E1,-1.049946654E0,2.114085377E0,1.623689926E-1,2.366032259E0
1.391966233E1,-1.373132642E0,-1.427461169E0,-4.260094213E-1,2.025986838E0
1.392963233E1,-1.026758643E0,-2.662218868E0,2.229625189E-1,2.862054314E0
1.393960233E1,-1.013037275E0,-5.236965144E-1,-2.978133112E-1,1.178641306E0
1.394957233E1,-1.101286523E-1,-1.266767989E0,1.026483970E0,1.634166086E0
1.395954133E1,1.709228843E-1,5.512751994E-1,1.489164789E0,1.597100732E0
1.396951133E1,-2.987224071E-1,-3.291476628E-1,2.550777662E-1,5.124821238E-1
1.397948133E1,-4.134897286E-1,-2.500332855E0,-6.257070386E-1,2.610392201E0
1.398945133E1,-9.255945034E-1,-6.440977013E-1,-1.051639277E-1,1.132539838E0
1.399942133E1,-5.328848290E-1,-1.341819925E0,-4.496356809E-1,1.512157134E0
1.400939133E1,-2.715960042E-1,-1.642510651E0,5.029283738E-1,1.739121208E0
1.401936133E1,-4.443907285E-1,-1.018951002E0,4.035631299E-1,1.182627357E0
1.402933133E1,1.429998714E-1,-1.719113269E0,1.276075879E0,2.145732752E0
1.403930133E1,2.510487422E-2,-3.124506462E-1,1.574078640E0,1.604985740E0
1.404927133E1,-1.450518787E-2,-1.011039135E0,-4.124748713E-1,1.092037569E0
1.405924133E1,-1.334058331E-1,-1.390321117E0,-1.030727879E0,1.735854224E0
1.406921133E1,-2.497741223E-1,-2.999036908E-1,-5.235257757E-1,6.529996736E-1
1.407918133E1,-3.879989382E-1,-1.213661822E0,2.399100888E-1,1.296562781E0
1.408915162E1,-1.475003272E-1,-2.383427426E-1,1.280222139E0,1.310546579E0
1.409912163E1,-9.045057893E-3,1.067040843E-1,1.083231198E0,1.088511554E0
1.410909163E1,5.411272104E-1,-6.654640120E-1,1.352120088E0,1.601215083E0
1.411906162E1,7.989573341E-1,1.471939477E0,5.337747753E-1,1.757798099E0
1.412903162E1,5.250376464E-1,6.244098338E-1,4.313502681E-1,9.228300085E-1
1.413900163E1,8.973293553E-1,-5.959148902E-1,4.057944274E-1,1.151079339E0
1.414897163E1,6.051617501E-1,1.456718005E0,-1.336592222E0,2.067541259E0
1.415894162E1,1.257748512E-1,4.586421472E-1,-1.672723507E0,1.739015774E0
1.416891162E1,6.109137292E-1,-3.393121701E-1,-1.352864438E0,1.522691867E0
1.417888163E1,7.028750094E-1,-4.507723796E-1,-9.382968485E-1,1.256037417E0
1.418885163E1,5.228985887E-1,-1.868566639E0,3.156268537E-2,1.940608261E0
1.419882162E1,6.108768187E-1,-9.405836946E-1,2.511099626E0,2.750179904E0
1.420879162E1,5.478995287E-1,8.985451376E-1,2.462646089E0,2.678096902E0
1.421876163E1,4.739166094E-1,6.736489445E-2,3.009013427E0,3.046850306E0
1.422873163E1,3.677114388E-1,1.254123969E0,7.960726833E-1,1.530284402E0
1.423870162E1,-2.024797956E-1,3.856610021E-1,-4.080356652E-1,5.968463623E-1
1.424867162E1,-1.594681889E-2,-5.534392539E-1,-6.655739397E-1,8.657586141E-1
1.425864162E1,-4.084935021E-1,6.154735342E-1,-1.944345970E0,2.079941312E0
1.426861163E1,-7.524144477E-1,4.956392348E-3,-1.656330253E0,1.819225652E0
1.427858163E1,-3.514803721E-1,7.857342213E-2,-5.239678252E-1,6.358101261E-1
1.428855162E1,-7.156033015E-1,1.206459514E0,-1.006842003E0,1.726662522E0
1.429852162E1,-4.824246005E-1,5.578419149E-2,1.902485168E-1,5.215744140E-1
1.430849163E1,-2.263656715E-1,7.104033726E-1,1.296076280E-1,7.567777126E-1
1.431846163E1,-2.358000078E-1,9.161633831E-1,-1.044607415E0,1.409312471E0
1.432843162E1,2.251359290E-1,-3.096676639E-1,-4.498941278E-1,5.907495026E-1
1.433840162E1,2.805290148E-1,9.543956950E-1,-9.198272485E-1,1.354861557E0
1.434837163E1,3.851828460E-1,-3.213045001E-2,-6.041518629E-1,7.172152146E-1
1.435834163E1,3.180757407E-1,9.884095332E-1,-9.533768177E-2,1.042695956E0
1.436831063E1,9.894898794E-1,1.630040294E0,-1.262346032E0,2.286840415E0
1.437828062E1,1.546172072E0,-4.569505477E-1,-4.371495366E-1,1.670494417E0
1.438825062E1,9.227167232E-1,4.141468826E-1,5.044194138E-1,1.130204732E0
1.439822063E1,2.741239748E-1,-4.854843754E-1,5.001146936E-1,7.489684500E-1
1.440819063E1,8.335411296E-1,-4.932839763E-1,1.095415041E0,1.462208607E0
1.441816062E1,7.395939157E-1,-3.939570317E-1,-1.143230063E-1,8.457369879E-1
1.442813062E1,6.687578217E-1,-1.118600713E0,-9.105249131E-1,1.589830242E0
1.443810063E1,4.419584329E-1,8.953747773E-1,-1.047879517E0,1.447437298E0
1.444807063E1,5.936023164E-1,-6.311426103E-2,-1.162475588E0,1.306788664E0
1.445804062E1,6.907056380E-1,-1.758902110E0,1.055967970E0,2.164689184E0
1.446801062E1,-4.863338296E-1,2.038207814E-1,1.081626137E0,1.203319827E0
1.447798063E1,-2.741034365E-1,-5.718287471E-1,1.054396239E0,1.230395155E0
1.448795063E1,2.535482077E-1,6.972015291E-2,1.667910079E0,1.688511659E0
1.449792062E1,4.243368253E-2,-1.194301106E0,6.859169877E-1,1.377910688E0
1.450789062E1,-3.427893631E-2,-2.243057998E0,1.356395572E0,2.621505898E0
1.451786062E1,-2.386111298E-1,-4.306024092E-1,7.669500411E-1,9.113539771E-1
1.452783063E1,6.144882783E-1,-1.179184884E0,-7.676411819E-1,1.535365044E0
1.453780063E1,1.517779601E0,-1.211214470E0,1.416558743E0,2.403608554E0
1.454777062E1,1.538525084E0,-8.335781863E-1,1.210073093E0,2.127484175E0
1.455774062E1,1.507024817E0,-1.877561704E0,2.471201150E0,3.450100995E0
1.456771063E1,9.308881339E-1,-1.675376388E-1,3.582476179E0,3.705233751E0
1.457768063E1,5.849500452E-1,2.666534990E-2,8.490812016E-1,1.031414797E0
1.458765062E1,2.817598537E-1,-1.076570927E0,-5.116290307E-1,1.224809308E0
1.459762062E1,1.127567565E-1,2.097016186E-1,-1.770536315E0,1.786473537E0
1.460759063E1,-3.048021957E-2,-7.914317483E-1,-2.378853149E0,2.507236639E0
1.461756063E1,9.459771663E-3,-6.832898337E-1,-5.667700285E-1,8.878078335E-1
1.462753062E1,-5.015023841E-1,-3.220529437E-2,-8.598681450E-2,5.098387534E-1
1.463750062E1,-8.247635818E-1,-3.841486198E-1,-4.143839872E-1,9.997595795E-1
1.464747063E1,2.404886708E-2,6.785693765E-1,-1.661872244E0,1.795230933E0
1.465744063E1,-8.869590260E-2,1.483955505E0,-2.541387033E0,2.944255247E0
1.466741062E1,-3.430804083E-1,-3.933109143E-1,-2.011225837E0,2.077841912E0
1.467738062E1,5.242540464E-3,-4.123514950E-2,-6.342884123E-2,7.583560961E-2
1.468735062E1,-9.969566276E-1,7.069850904E-1,-4.797950345E-1,1.312994178E0
1.469732063E1,-9.964757672E-1,2.996563536E-1,-1.048332676E0,1.477077955E0
1.470729063E1,-8.986627398E-1,8.715742707E-2,1.875658143E0,2.081654295E0
1.471726062E1,-1.479205519E0,-1.177727758E0,4.858759634E0,5.213697040E0
1.472723062E1,-1.550429576E0,1.371584299E-1,4.317006918E0,4.589029639E0
1.473720063E1,-1.093729582E0,1.699962176E0,1.133687991E0,2.317620387E0
1.474717063E1,-3.527777231E-1,7.528784242E-1,-1.141157225E0,1.411919918E0
1.475714062E1,1.786947841E-1,6.728057760E-1,-2.677291528E0,2.766313316E0
1.476711062E1,3.915576998E-1,-1.117946702E0,-3.698196670E0,3.883269353E0
1.477707962E1,-1.953357406E-1,-2.005794359E0,-1.075215250E-1,2.018149633E0
1.478704963E1,-5.881847980E-1,1.787107909E-1,9.670528704E-1,1.145901461E0
1.479701963E1,-1.107925744E0,-1.138985569E0,1.153655648E-3,1.588958436E0
1.480698962E1,-2.225819529E0,-8.040102786E-1,1.726619632E0,2.929491502E0
1.481695962E1,-2.360068384E0,-1.486859232E0,2.356511523E0,3.651550317E0
1.482692963E1,-2.112034174E0,-2.243190730E0,3.243417193E0,4.473516301E0
1.483689963E1,-2.166888366E0,1.197665594E0,2.314284101E0,3.389058714E0
1.484686962E1,-1.005146019E0,-6.092596981E-1,8.365933031E-1,1.442707265E0
1.485683962E1,-7.101481417E-1,-1.530124827E0,4.437112820E-1,1.744268349E0
1.486680963E1,-7.477811871E-1,-2.283077511E-1,-1.445267403E0,1.643197796E0
1.487677963E1,-6.177771910E-1,3.316134337E-1,-2.624098238E0,2.716156786E0
1.488674962E1,-9.897998549E-2,1.074411550E0,-1.902947098E0,2.187547685E0
1.489671962E1,-3.794307207E-1,-1.523524783E0,-6.632724756E-1,1.704413627E0
1.490668963E1,-6.982341474E-1,-1.926799937E0,3.353177617E0,3.929871379E0
1.491665963E1,-2.019530345E0,1.084568164E0,4.247912709E0,4.826961084E0
1.492662962E1,-1.516886146E0,1.677957642E0,1.185085017E0,2.553607630E0
1.493659962E1,-1.401682696E0,3.907182589E-1,-1.303041483E0,1.953277308E0
1.494656962E1,-1.039832360E0,1.483607888E0,-3.302404490E0,3.766725251E0
1.495653963E1,-5.236176500E-1,8.508710343E-1,-3.966526566E0,4.090414399E0
1.496650963E1,-1.225326432E-1,2.055279637E0,-2.888411681E0,3.547127102E0
1.497647962E1,1.566479306E-1,1.168427469E0,-2.452879484E0,2.721466349E0
1.498644962E1,-7.599192028E-1,1.596058908E-1,-1.431190231E0,1.628268010E0
1.499641963E1,-1.271291248E0,5.812866184E-1,9.046344280E-1,1.665064269E0
1.500638963E1,-1.627978712E0,-1.660582348E0,2.530347490E0,3.436641797E0
1.501635962E1,-1.589730174E0,-7.410854673E-1,4.336944169E0,4.678197775E0
1.502632962E1,-1.559097635E0,-3.067250526E-1,1.903436510E0,2.479503224E0
1.503629963E1,-6.836819626E-1,-1.083143490E0,6.406039900E-1,1.432129295E0
1.504626963E1,9.837487176E-2,1.239299816E-1,1.392280519E-2,1.588398572E-1
1.505623962E1,7.853203116E-1,-6.542265406E-1,-2.093310805E0,2.329525807E0
1.506620962E1,7.650965468E-1,-1.296531193E0,-6.516511345E-1,1.640431365E0
1.507617963E1,-1.548213335E-1,5.450976160E-1,-2.590445173E-1,6.230610871E-1
1.508614963E1,4.858937535E-1,-1.538963479E0,3.507151762E0,3.860649532E0
1.509611958E1,3.290228248E-1,-1.321152649E0,4.372256089E0,4.579336595E0
1.510608958E1,-5.843889318E-1,6.399455935E-2,1.320864966E0,1.445783520E0
1.511605958E1,9.667961776E-2,-7.047134471E-1,3.333772463E-1,7.855624605E-1
1.512602958E1,4.666733710E-1,-3.428193301E-1,1.851713794E-1,6.079453660E-1
1.513599958E1,3.453641845E-1,-1.308751582E0,-1.313230256E0,1.885916443E0
1.514596958E1,1.353378993E-1,-1.091009457E0,-1.127494036E0,1.574757373E0
1.515593958E1,1.064003799E0,-6.809374988E-1,-9.366391629E-1,1.572600675E0
1.516590958E1,9.618448285E-1,-1.486657211E0,-1.948737229E0,2.633034736E0
1.517587958E1,9.193480691E-1,1.100963464E-1,-4.886582440E-1,1.046952223E0
1.518584958E1,1.369154781E0,-7.674412072E-1,1.239960551E-1,1.574460493E0
1.519581958E1,1.221636401E0,-2.163138839E0,1.189739985E0,2.754459360E0
1.520578858E1,4.495412484E-3,-6.808103219E-1,2.442567335E0,2.535677047E0
1.521575858E1,-3.622143251E-1,-5.760592076E-1,1.393442361E0,1.550717589E0
1.522572858E1,6.684685307E-1,-9.888971910E-1,1.113070709E0,1.632082790E0
1.523569858E1,3.108627617E-1,-1.927271515E-2,-1.008752289E0,1.055740628E0
1.524566858E1,6.172395395E-1,-1.717958736E-1,-3.222532693E0,3.285607315E0
1.525563858E1,1.631075544E0,7.658411166E-1,-2.149743453E0,2.805052042E0
1.526560858E1,1.560433577E0,3.388408846E-1,-4.756142753E-1,1.666125755E0
1.527557858E1,6.103889416E-1,-8.396168983E-1,1.018261031E0,1.454093093E0
1.528554858E1,-9.882232994E-3,5.180761707E-1,2.277606272E0,2.335806264E0
1.529551858E1,-4.570438108E-1,8.129977414E-1,1.714770250E0,1.951996768E0
1.530548858E1,3.233416700E-1,1.451328042E0,1.370045897E0,2.021862676E0
1.531545858E1,6.749013450E-1,2.205666808E0,-8.344286638E-1,2.452902177E0
1.532542858E1,1.271723650E0,1.084081383E0,-3.820463119E0,4.169946274E0
1.533539858E1,1.424810626E0,1.553762197E0,-3.620539214E0,4.189578318E0
1.534536858E1,7.635512008E-1,4.431917569E-1,-2.346934369E0,2.507494826E0
1.535533858E1,3.172479942E-3,-1.316539196E0,-8.100533760E-1,1.545791703E0
1.536530858E1,-2.570329289E-1,1.564793846E-1,1.059945247E0,1.101832859E0
1.537527858E1,-1.214232291E0,-7.092590725E-1,1.416685628E0,1.996097857E0
1.538524858E1,-4.424865096E-1,-1.225408293E0,1.869728481E0,2.278882268E0
1.539521858E1,5.039873777E-1,-8.245448229E-1,2.240352491E0,2.439888671E0
1.540518858E1,2.217023709E-1,-2.278609946E0,2.950019699E-1,2.308298375E0
1.541515858E1,-9.047711067E-2,-3.249619335E-1,-2.675539702E-1,4.305478983E-1
1.542512858E1,-3.550927819E-1,1.281657046E-1,-1.182971249E0,1.241748085E0
1.543509858E1,1.241911767E0,-1.639855723E0,-2.346329767E-1,2.070392297E0
1.544506858E1,1.204330397E0,4.743515691E-1,3.177008611E-1,1.332799667E0
1.545503858E1,1.629734777E0,1.153414451E0,-2.708253120E0,3.364674620E0
1.546500858E1,1.226599663E0,7.375560880E-1,-4.778729963E0,4.988466275E0
1.547497858E1,6.854633168E-1,3.768986571E-1,-2.010545806E0,2.157361118E0
1.548494858E1,1.085468489E0,-1.841946898E0,2.086076630E0,2.987093223E0
1.549491858E1,2.055897103E-1,-3.847897670E-1,5.452844346E0,5.470268892E0
1.550488858E1,-3.630983876E-1,1.463547845E0,4.040669260E0,4.312866889E0
1.551485858E1,-3.753585736E-1,5.729522896E-1,7.602894777E-1,1.023332045E0
1.552482858E1,-5.992596072E-1,1.793605042E0,-1.549592255E0,2.444865493E0
1.553479858E1,5.988193484E-1,1.459194885E0,-2.103892511E0,2.629486266E0
1.554476858E1,7.102215242E-1,1.415427015E0,1.880142957E-1,1.594740613E0
1.555473858E1,3.920061813E-1,2.558004528E0,-3.481344491E-1,2.611178586E0
1.556470858E1,2.007912293E-1,3.973013467E-1,-9.245634931E-1,1.026149663E0
1.557467858E1,-8.988130863E-1,6.193718728E-1,2.841197169E-1,1.127923089E0
1.558464858E1,-8.216919664E-1,9.277192354E-3,-1.830125874E-1,8.418772838E-1
1.559461858E1,-2.902144525E-1,-1.150617727E0,-3.840509713E-2,1.187274414E0
1.560458858E1,-2.329731714E-2,9.014184594E-2,-1.035628431E0,1.039805061E0
1.561455858E1,7.594216778E-1,-1.954977085E0,-1.591174144E0,2.632582732E0
1.562452858E1,1.000385069E0,-1.426836394E0,-4.780543184E-1,1.806977674E0
1.563449858E1,8.524529985E-1,-9.176833668E-1,1.137058911E0,1.691662450E0
1.564446858E1,2.010191465E0,-2.597478496E0,3.478921990E0,4.784418719E0
1.565443858E1,8.927960090E-1,-6.394582281E-1,3.029542417E0,3.222439882E0
1.566440858E1,3.141393951E-1,9.020376796E-1,-2.013319141E-1,9.761608856E-1
1.567437858E1,2.681646388E-2,1.881139907E-1,-1.177000657E0,1.192240136E0
1.568434858E1,-1.395323118E0,-3.500540900E-1,-1.770053920E0,2.280911078E0
1.569431858E1,-1.204273167E0,-1.823323224E0,-5.058706927E-1,2.242919213E0
1.570428858E1,-1.088655075E0,-9.393101710E-1,9.434850830E-1,1.719778350E0
1.571425858E1,-3.305941909E-1,5.614654344E-1,-7.714108819E-1,1.009757744E0
1.572422758E1,6.481675096E-2,-3.596651584E-1,-1.513471665E0,1.556970365E0
1.573419758E1,-2.583659844E-1,-8.092309651E-1,-6.041448462E-1,1.042400466E0
1.574416758E1,-3.002982682E-1,-7.798317495E-1,5.999944925E-2,8.378045962E-1
1.575413758E1,-8.686945170E-2,1.274429888E-1,1.175005002E0,1.185084289E0
1.576410758E1,-1.695882574E-2,1.351466661E0,1.436774907E0,1.972580004E0
1.577407758E1,3.325267687E-2,-5.992542350E-1,1.661382832E0,1.766466612E0
1.578404758E1,-4.910716457E-1,-3.182674563E-1,2.034203056E0,2.116702059E0
1.579401758E1,-7.185336336E-1,2.746454734E-1,8.148480928E-1,1.120579374E0
1.580398758E1,-4.890986855E-1,1.998856053E-1,6.131852263E-1,8.094244259E-1
1.581395758E1,-5.126853302E-1,4.168795788E-1,-2.246102643E-1,6.979144660E-1
1.582392758E1,9.942269281E-2,-1.154236569E0,-1.508749453E0,1.902228126E0
1.583389758E1,9.037050862E-1,-1.792455187E-1,-4.402158165E-1,1.021078745E0
1.584386758E1,1.231545385E0,4.572958258E-1,-6.370541453E-2,1.315249743E0
1.585383758E1,1.447039547E0,-1.658312459E0,1.000960874E0,2.417818507E0
1.586380758E1,5.659861361E-1,-3.781370974E-1,1.222490825E0,1.399218277E0
1.587377758E1,2.735833997E-1,-8.415102267E-1,-9.904370552E-1,1.328138885E0
1.588374758E1,-4.181614347E-1,-9.329311511E-1,-9.263544953E-1,1.379620299E0
1.589371758E1,-4.943038038E-1,9.454857078E-1,-7.208599484E-1,1.287601856E0
1.590368758E1,-3.984292746E-2,-1.294638450E0,-4.671434140E-1,1.376916535E0
1.591365758E1,-2.759206049E-2,-1.064894915E-1,3.827756935E-1,3.982694630E-1
1.592362758E1,1.428096908E-1,5.114995149E-1,3.519246143E-1,6.370849988E-1
1.593359758E1,3.934597260E-1,-4.386817995E-1,3.336643445E-1,6.771884317E-1
1.594356758E1,6.145072087E-1,3.664075828E-1,6.348935992E-1,9.565372489E-1
1.595353758E1,5.331707579E-1,-7.384051037E-1,-4.824613649E-1,1.030670715E0
1.596350758E1,4.711172549E-1,-1.353481320E-1,-1.844796538E-2,4.905210618E-1
1.597347758E1,5.959971897E-1,6.409656402E-1,5.580383813E-1,1.038005991E0
1.598344758E1,1.119374665E0,-6.883704793E-1,3.018508136E-2,1.314444635E0
1.599341758E1,7.724869888E-1,6.036501718E-1,2.813212395E-1,1.019936918E0
1.600338758E1,3.175484680E-1,1.567975608E0,-1.048303440E0,1.912674735E0
1.601335758E1,6.597460198E-1,6.810982972E-1,-8.063602746E-1,1.244739569E0
1.602332758E1,6.171278577E-1,7.997081897E-1,-3.937608576E-1,1.084171386E0
1.603329758E1,3.617722756E-1,8.057755530E-3,-1.567273065E0,1.608505197E0
1.604326758E1,1.316218476E-1,-2.028720707E-2,-1.467816605E0,1.473845809E0
1.605323758E1,1.580696080E-1,-2.148734808E-2,8.516645014E-2,1.808342648E-1
1.606320758E1,2.630990497E-1,-1.141041742E0,1.711085334E0,2.073405505E0
1.607317758E1,2.591425312E-1,5.518912035E-1,1.296650476E0,1.432843749E0
1.608314758E1,-1.155635662E-1,-7.188052368E-1,2.877759808E-1,7.828479555E-1
1.609311675E1,-3.822456434E-2,-5.415708679E-1,-3.903642100E-1,6.686885215E-1
1.610308675E1,4.895180040E-1,6.309025821E-1,-3.089493334E-1,8.562217207E-1
1.611305675E1,7.693458646E-1,-6.465023687E-1,-1.295138386E0,1.639280883E0
1.612302675E1,1.203908301E0,-1.725738457E-1,6.961075151E-1,1.401336006E0
1.613299675E1,9.333604098E-1,4.385622239E-1,1.666575159E0,1.959839596E0
1.614296675E1,6.026860390E-1,-4.378988573E-1,3.785865144E0,3.858466114E0
1.615293675E1,-4.203102864E-2,1.214730108E0,1.882950205E0,2.241168739E0
1.616290675E1,3.524760798E-1,7.225103250E-1,4.171543980E-1,9.056921929E-1
1.617287675E1,7.748125727E-1,1.402883860E0,-1.193770471E0,1.998375737E0
1.618284675E1,8.708838607E-1,1.962516485E0,-3.342866637E0,3.972992198E0
1.619281675E1,2.711619215E-1,-7.064851534E-1,-2.045109283E0,2.180624231E0
1.620278675E1,-4.803316627E-1,-3.203829789E-1,-1.311400078E0,1.432876102E0
1.621275675E1,-1.007989812E0,-6.261847562E-1,-2.298911771E0,2.587111544E0
1.622272675E1,-1.479746971E0,-4.005860201E-1,-3.500442667E0,3.821415853E0
1.623269675E1,-7.623493056E-1,-1.242588582E0,-2.118276662E-1,1.473117038E0
1.624266675E1,-9.766073669E-1,-3.795975856E0,3.426347335E0,5.206059038E0
1.625263675E1,-9.254673265E-1,-8.126670814E-1,4.307461338E0,4.480082671E0
1.626260675E1,-1.278865878E0,1.325955844E0,1.713690269E0,2.516026862E0
1.627257675E1,-1.075038299E0,-4.552320510E-1,1.688817968E0,2.053058619E0
1.628254675E1,-7.626090682E-1,-1.166542912E-1,6.382674426E-1,1.001282249E0
1.629251675E1,3.714429125E-2,-1.204805337E0,1.545875180E-1,1.215250138E0
