"Time (s)","Linear Acceleration x (m/s^2)","Linear Acceleration y (m/s^2)","Linear Acceleration z (m/s^2)","Absolute acceleration (m/s^2)"
9.379750001E-3,-1.134843328E0,4.027904204E-1,-1.075274892E0,1.614411842E0
1.934875001E-2,-2.247317402E0,-5.561204946E-1,-3.846725303E-1,2.346844363E0
2.931875002E-2,-1.851505341E0,-2.653934240E-2,-3.592178464E-2,1.852043936E0
3.928875003E-2,-1.677587659E0,1.158847976E-1,-6.316519028E-1,1.796305588E0
4.925875005E-2,-1.020173217E0,-1.155494598E-1,1.324443462E0,1.675785056E0
5.922875000E-2,2.469639870E-1,9.853090471E-1,6.319787621E-1,1.196337028E0
6.919775001E-2,-1.526327938E-2,1.938670662E0,-1.452141974E0,2.422270261E0
7.916775002E-2,-8.890906285E-1,1.075560821E0,-2.696316614E0,3.036023140E0
8.913775004E-2,-1.168019626E0,-5.966677192E-1,-1.442483543E0,1.949625858E0
9.910775005E-2,-1.107620739E0,-7.896322677E-1,5.310967505E-2,1.361309464E0
1.090777500E-1,-1.723981222E0,8.462292221E-1,-6.725011361E-1,2.034815208E0
1.190467500E-1,-2.202079249E0,4.671051148E-1,9.456777889E-1,2.441648354E0
1.290167500E-1,-1.545230378E0,-8.850097105E-1,5.371690840E-1,1.859981111E0
1.389867500E-1,-1.229703073E0,-3.112838343E-1,-9.385050094E-1,1.577928682E0
1.489567500E-1,-1.757505356E0,2.648890140E0,-2.157771095E0,3.842059363E0
1.589267500E-1,-1.568415173E0,5.216011646E0,-2.748619958E0,6.100952001E0
1.688957500E-1,-1.857902195E0,2.586564668E0,-6.457425231E-1,3.249476997E0
1.788657500E-1,-1.313521448E0,1.817893499E-1,4.031737638E0,4.244207151E0
1.888357500E-1,3.154402910E-2,-3.164861898E0,7.218202366E0,7.881610956E0
1.988057500E-1,1.104509362E0,-4.137869865E0,9.526038743E0,1.044448764E1
2.087757500E-1,1.829383716E0,-2.076606479E0,7.319086132E0,7.824829778E0
2.187447500E-1,1.871893413E0,5.370313820E-1,2.145787227E0,2.897721601E0
2.287147500E-1,1.839209816E0,1.973809797E0,-5.297131823E0,5.944596152E0
2.386847500E-1,-2.575896021E-1,9.901762694E-1,-7.678388178E0,7.746253705E0
2.486547500E-1,-8.354382587E-1,-3.089110342E-1,-5.975286047E0,6.041309995E0
2.586247500E-1,-1.223071965E0,-3.144454238E-1,-3.101751437E0,3.348976401E0
2.685947500E-1,-8.437529994E-1,-2.067072594E-1,1.848887250E0,2.042799814E0
2.785637500E-1,5.245165498E-1,-2.691315490E-1,4.023147494E0,4.066111798E0
2.885337500E-1,6.602753390E-1,-5.462118030E-1,3.114820549E0,3.230544522E0
2.985037500E-1,1.040149571E0,1.430766892E-1,8.593214303E-1,1.356766520E0
3.084737500E-1,1.173593923E0,3.647300166E-1,-1.445165076E0,1.897064252E0
3.184437500E-1,-1.544406250E-1,5.595536873E-1,-2.415737970E0,2.484500388E0
3.284127500E-1,-6.794222660E-1,4.649182561E-1,-2.092727838E0,2.248838234E0
3.383827501E-1,-1.026425060E0,-1.526450729E-1,-7.548521519E-1,1.283218879E0
3.483527500E-1,-9.596744151E-1,5.979532295E-1,9.654864013E-2,1.134832449E0
3.583227500E-1,-2.494898380E-1,1.397393909E0,5.193689901E-1,1.511522102E0
3.682927500E-1,1.467749526E-1,1.505450454E0,-1.192724989E0,1.926270193E0
3.782617500E-1,3.375341050E-1,1.659743273E0,-3.580954733E0,3.961302034E0
3.882317500E-1,2.929820127E-1,1.364571149E0,-4.425236540E0,4.640108977E0
3.982017500E-1,-9.386367179E-2,8.480725569E-1,-3.993994446E0,4.084119132E0
4.081717500E-1,-1.806283487E-1,9.908799818E-1,-2.554423401E0,2.745823856E0
4.181417500E-1,-2.361110797E-1,9.676732600E-1,-8.201509327E-1,1.290266458E0
4.281117501E-1,-1.139941004E-1,-3.331568062E-2,3.897169232E-2,1.249935290E-1
4.380807500E-1,-2.153646652E-1,-2.471501112E-2,2.284097850E-2,2.179781665E-1
4.480510834E-1,-9.251703976E-2,1.610940072E-1,-1.039260721E-1,2.128645350E-1
4.580210834E-1,8.991078956E-2,6.457814071E-1,-1.091901450E0,1.271757190E0
4.679910833E-1,4.497510172E-2,1.456376820E0,-1.080341504E0,1.813889183E0
4.779610834E-1,-1.978579371E-1,1.586102854E0,4.146991521E-1,1.651316267E0
4.879300834E-1,-5.026405446E-1,2.557564817E0,-4.200306433E-1,2.640115727E0
4.979000834E-1,-6.022952623E-1,3.400462296E0,-2.513269528E0,4.271115443E0
5.078700834E-1,-4.709724997E-1,1.980572394E0,-6.788038498E0,7.086744581E0
5.178400833E-1,-1.100476976E0,7.024496976E-1,-1.097963024E1,1.105697813E1
5.278100834E-1,-1.154755071E0,-4.629892889E0,-2.620190544E0,5.443782318E0
5.377800834E-1,-2.373015728E0,-8.811031272E0,1.772239141E1,1.993360562E1
5.477490834E-1,7.950228158E-1,-4.321706325E0,2.293179512E1,2.334901356E1
5.577190833E-1,3.061642169E0,6.493739948E0,8.610655963E0,1.121096371E1
5.676890833E-1,4.139899726E0,7.588090796E0,-7.744619590E0,1.160590472E1
5.776590834E-1,-2.831450153E0,-1.172873984E0,-5.513610365E0,6.308140979E0
5.876290834E-1,-2.875573242E0,-3.299301957E0,1.746130621E0,4.712036398E0
5.975980834E-1,-2.229882905E0,9.540767294E-1,2.477853527E0,3.467333021E0
6.075680833E-1,-5.142227459E-1,2.758403519E0,2.186819478E0,3.557442119E0
6.175380833E-1,-1.111341541E0,-1.374154150E-2,2.590656257E0,2.819001365E0
6.275080834E-1,-1.242755520E0,-1.645725743E0,1.939381099E-1,2.071344127E0
6.374780834E-1,5.778337279E-1,-4.716121486E-1,-1.281278147E0,1.482559788E0
6.474480833E-1,1.276987898E0,9.096773592E-1,-1.207474591E0,1.978940595E0
6.574170833E-1,1.239909827E0,-4.238830814E-1,-7.419093400E-1,1.505816295E0
6.673870833E-1,2.057935443E0,-2.006847735E0,-1.672611825E0,3.325682852E0
6.773570834E-1,4.412270924E-1,-5.388390487E-1,-2.219644577E0,2.326338521E0
6.873270834E-1,-9.332567314E-3,1.052003558E0,-8.439882767E-1,1.348745638E0
6.972970833E-1,-8.019389573E-2,5.191058654E-1,-8.087897927E-1,9.643873128E-1
7.072660833E-1,-4.909544091E-1,3.526116621E-1,-1.570165098E0,1.682495067E0
7.172360834E-1,-2.021349743E-1,1.453526595E0,-2.443858400E0,2.850621334E0
7.272060834E-1,-1.126429112E0,2.881059392E0,-2.354109487E0,3.887309769E0
7.371760834E-1,-8.329102881E-1,2.185226404E0,-9.168422449E-1,2.511882498E0
7.471460833E-1,-3.080505067E-1,5.467383447E-1,8.481169957E-1,1.055045198E0
7.571160833E-1,-1.799812739E0,6.908315724E-1,1.500568029E0,2.443006051E0
7.670850834E-1,-2.038432055E0,2.180116814E0,3.163542473E-1,3.001365452E0
7.770550834E-1,-9.327043522E-1,8.981498659E-1,-1.008054131E-1,1.298757992E0
7.870250834E-1,-5.191661648E-1,-2.913906418E0,-4.328208429E-1,2.991273642E0
7.969950833E-1,4.305989740E-1,-6.242047720E0,-1.058856495E0,6.345845278E0
8.069650833E-1,3.529899039E-1,-2.157562349E0,-3.318800082E0,3.974180563E0
8.169350834E-1,4.811278342E-1,8.810165300E0,-4.253261157E0,9.794933745E0
8.269040834E-1,1.151725044E0,1.091755620E1,-1.154363746E0,1.103866204E1
8.368740834E-1,8.817012828E-1,4.252670881E0,3.235683081E0,5.415925754E0
8.468440833E-1,1.469242887E0,-7.523627583E0,4.107161458E0,8.696690284E0
8.568140834E-1,1.101360052E0,-1.124493011E1,2.376542330E-1,1.130123563E1
8.667840834E-1,-2.682434118E-1,-3.860982861E0,-3.254670745E0,5.056878962E0
8.767540834E-1,-1.972710374E0,1.595307249E0,-4.760615873E-1,2.581322543E0
8.867230833E-1,-2.721010575E0,-2.606127405E-1,4.426876100E0,5.202792476E0
8.966930833E-1,-2.378627593E0,-3.310489142E0,4.719781258E0,6.236468769E0
9.066630834E-1,-2.704541015E0,-1.787846120E0,2.421108053E0,4.046319322E0
9.166330834E-1,-1.964528365E0,5.419944987E-1,8.647230881E-1,2.213792166E0
9.266030834E-1,-6.392158610E-1,1.371975478E0,1.291743493E0,1.989852980E0
9.365720833E-1,4.722908641E-1,7.556371406E-1,1.845083637E0,2.048994821E0
9.465420833E-1,5.981039415E-1,2.722712114E-1,1.318468777E0,1.473166607E0
9.565120834E-1,6.004767051E-1,1.664350294E0,-5.402657694E-1,1.850005750E0
9.664820834E-1,6.243508501E-1,1.922951300E0,-1.820889612E0,2.720881230E0
9.764520833E-1,3.050804136E-1,1.041897523E0,-2.179678273E0,2.435081494E0
9.864220833E-1,7.074341565E-2,7.227132234E-1,-1.964594293E0,2.094504660E0
9.963910833E-1,2.083362937E-1,4.081029081E-1,-1.526425586E0,1.593714863E0
1.006361083E0,5.522369932E-1,1.489665896E0,-2.272906280E0,2.773116141E0
1.016331083E0,7.407319301E-1,2.247971998E0,-2.415233940E0,3.381629324E0
1.026301083E0,1.057340897E0,1.788060420E0,-9.072364390E-1,2.266761521E0
1.036271083E0,1.177886071E0,1.871539072E0,-7.820680171E-1,2.345571247E0
1.046241083E0,1.429647004E0,2.006872585E0,-8.781260759E-1,2.615823682E0
1.056210083E0,1.313266802E0,1.374122576E0,-2.416396952E-1,1.916056441E0
1.066180083E0,1.187978804E0,1.303579427E0,-6.285920548E-1,1.872362394E0
1.076150083E0,1.096416669E0,1.398264852E0,-1.180096757E0,2.133050038E0
1.086120083E0,5.893861815E-1,1.339074365E0,-1.128718443E0,1.847836992E0
1.096090083E0,2.595005453E-1,1.436492486E0,-7.978303564E-1,1.663545753E0
1.106060083E0,-1.605726548E-1,1.651544307E0,-5.016940266E-1,1.733516389E0
1.116029083E0,-2.286738051E-1,1.050147360E0,4.263508987E-1,1.156233659E0
1.125999083E0,-1.045143203E-1,4.029675910E-1,1.607130611E-1,4.462452359E-1
1.135969083E0,-3.931713486E-1,-2.107775062E-2,-9.799114823E-2,4.057465293E-1
1.145939083E0,-4.689838617E-1,-2.450439441E-1,-6.119830388E-1,8.090214069E-1
1.155909083E0,-1.907698692E-1,-3.692388046E-1,-6.921770167E-1,8.073657537E-1
1.165879083E0,-2.831046220E-1,-4.888415542E-1,2.608694333E-1,6.222275736E-1
1.175848083E0,8.121217920E-2,-3.392469737E-1,5.832685322E-1,6.796220331E-1
1.185818083E0,4.035149635E-1,-2.442291346E-1,1.285857686E0,1.369635785E0
1.195788083E0,1.203239745E0,-1.472258735E-1,2.446607761E0,2.730448841E0
1.205758083E0,7.402329433E-1,-6.374137491E-2,8.535087132E-1,1.131585126E0
1.215728083E0,1.177115993E0,-7.576921445E-1,7.652344680E-1,1.595394383E0
1.225698083E0,1.663414301E0,-1.494703857E0,6.078677684E-1,2.317453339E0
1.235667083E0,8.378819563E-1,-1.432241268E0,-4.290757012E-1,1.713904075E0
1.245637083E0,4.186312950E-1,-1.326986416E0,1.716157794E-2,1.391560142E0
1.255607083E0,1.339505561E-1,-1.348728995E0,1.165699743E0,1.787699232E0
1.265577083E0,-3.038430514E-1,-8.375282729E-1,1.060615337E0,1.385163926E0
1.275547083E0,-5.054006131E-1,5.922948790E-1,1.057999293E0,1.313623046E0
1.285517083E0,-8.196429558E-1,3.175999966E-1,3.657521099E-1,9.520813719E-1
1.295486083E0,-1.403007236E0,3.847067365E-1,-6.902801800E-1,1.610253180E0
1.305456083E0,-1.226777419E0,1.607376194E-1,-1.252377114E0,1.760473758E0
1.315426083E0,-1.242230587E0,-2.775585562E-2,-1.086497453E0,1.650570790E0
1.325396083E0,-1.063976829E0,2.389181086E-1,2.028650540E-1,1.109181133E0
1.335366083E0,-5.080379998E-1,6.242481583E-1,2.803470933E-1,8.522809778E-1
1.345336083E0,-2.915672606E-1,3.889971310E-1,9.328092366E-1,1.051885596E0
1.355305083E0,2.753076157E-1,-5.250545302E-1,1.195561473E0,1.334482589E0
1.365275083E0,5.731320184E-2,-6.487991551E-1,2.492521852E-1,6.973892733E-1
1.375245083E0,3.021794637E-1,5.953231519E-1,-9.347417414E-1,1.148679332E0
1.385215083E0,5.864548261E-1,6.893183130E-1,-6.538239598E-2,9.073939924E-1
1.395185083E0,5.035806307E-1,8.494557157E-1,1.743201166E-1,1.002774136E0
1.405155083E0,1.083497977E0,7.601263404E-1,-1.475661814E-1,1.331741603E0
1.415125083E0,1.019541717E0,7.532283801E-1,-1.636111166E0,2.069704823E0
1.425094083E0,6.873366916E-1,7.865083927E-1,-2.600806439E0,2.802716773E0
1.435064083E0,6.581459293E-1,3.754561490E-1,-2.016807590E0,2.154445691E0
1.445033333E0,2.481272540E-1,2.500132003E-1,-8.191136366E-1,8.916394362E-1
1.455003333E0,2.691999614E-2,1.057226291E-1,8.321833330E-1,8.393039141E-1
1.464973333E0,4.589358967E-1,4.483244428E-1,8.041564590E-1,1.028729592E0
1.474943333E0,-2.877849709E-2,1.412033875E0,-1.082231909E-1,1.416467481E0
1.484912333E0,2.697013967E-1,6.618182731E-1,-4.153809375E-1,8.266096982E-1
1.494882333E0,3.234913222E-1,-9.058260906E-1,-1.438184670E0,1.730185738E0
1.504852333E0,1.417325971E-1,-8.299669459E-1,-8.994216353E-1,1.232027816E0
1.514822333E0,1.391506859E-1,6.311659992E-1,-2.604940420E-1,6.968432950E-1
1.524792333E0,-4.588642683E-2,1.203394403E0,-5.273902005E-1,1.314687825E0
1.534762333E0,4.642735640E-1,8.361945230E-1,-1.059802575E0,1.427568814E0
1.544731333E0,1.685962407E-1,2.098624170E-2,-1.235005621E0,1.246637075E0
1.554701333E0,-5.408932487E-1,-5.546493351E-1,4.658663821E-1,9.040093348E-1
1.564671333E0,4.180174470E-2,-2.239775956E-3,1.590512824E0,1.591063621E0
1.574641333E0,2.091924722E-1,7.665167624E-1,1.284114631E0,1.510052920E0
1.584611333E0,8.982755810E-1,1.878033574E0,-7.402680266E-1,2.209503536E0
1.594581333E0,1.079109057E0,1.852283606E0,-1.748843145E0,2.766565246E0
1.604550333E0,3.659201442E-1,1.338721485E0,-1.510239909E0,2.051072244E0
1.614520333E0,1.910037578E-1,1.188638955E0,-5.202653682E-1,1.311495731E0
1.624490333E0,-1.763642301E-1,1.131791447E0,6.490409374E-1,1.316552452E0
1.634460333E0,-2.882482897E-1,1.064738794E0,9.967906398E-1,1.486723698E0
1.644430333E0,-2.458173846E-1,7.126019257E-1,7.286455160E-1,1.048404492E0
1.654400333E0,-2.291516505E-1,5.856688142E-2,7.526430738E-1,7.889310205E-1
1.664370333E0,-1.388893519E-1,-4.176479030E-1,9.235092402E-1,1.023029491E0
1.674339333E0,1.625015782E-1,1.868840289E-1,8.317395294E-1,8.678266232E-1
1.684309333E0,2.983686505E-1,2.075437036E-1,1.831020498E-1,4.069700249E-1
1.694279333E0,3.097786148E-1,-8.807690173E-2,-5.904582685E-1,6.725780978E-1
1.704249333E0,7.518795736E-2,2.994660267E-1,-1.998186547E-1,3.677779559E-1
1.714219333E0,2.243196577E-2,7.149785265E-1,-1.669929707E-1,7.345639106E-1
1.724189333E0,1.897137889E-1,1.630408376E-1,-1.164877625E0,1.191433387E0
1.734158333E0,-4.002962540E-1,-2.603724200E-1,-7.394201803E-1,8.802119580E-1
1.744128333E0,-3.575992640E-2,-6.599343002E-1,1.895988911E-1,6.875607554E-1
1.754098333E0,4.184316491E-1,-1.088336402E-1,9.084462279E-1,1.006083672E0
1.764068333E0,3.647067739E-1,5.628851384E-2,1.464044566E0,1.509836388E0
1.774038333E0,9.478964417E-1,2.667912009E-1,1.088577892E0,1.467885226E0
1.784008333E0,3.212050974E-2,-1.167411223E-1,-1.488285953E-1,1.918597601E-1
1.793977333E0,9.089914808E-1,-7.170060486E-1,-6.591496038E-1,1.332231731E0
1.803947333E0,1.635826699E0,-3.820980012E-2,-2.377293697E0,2.885985845E0
1.813917333E0,1.222774123E0,8.160137352E-1,-2.094831666E0,2.559174609E0
1.823887333E0,2.280874573E0,1.245223045E-1,-4.354889274E-1,2.325412915E0
1.833857333E0,9.376961933E-1,1.907893842E-1,4.775666606E-1,1.069459983E0
1.843827333E0,1.293362879E0,-2.556200954E-1,1.186121728E0,1.773418711E0
1.853797333E0,5.988148168E-2,-2.151892304E-2,9.892278510E-1,9.912722114E-1
1.863766333E0,-1.868922516E-1,8.792569274E-1,3.153783470E-1,9.526200501E-1
1.873736333E0,-1.047476425E-1,7.848808202E-1,2.347657084E-2,7.921875535E-1
1.883706333E0,-3.629253831E-1,7.909309343E-1,-8.001803523E-1,1.182190836E0
1.893676333E0,-3.668330042E-1,6.786354500E-1,-1.982046477E0,2.126880524E0
1.903646333E0,2.829324032E-1,-3.705675843E-1,-1.719778975E0,1.781855999E0
1.913616333E0,6.699321619E-1,-1.978564168E0,4.400901014E-1,2.134761009E0
1.923586333E0,2.068251831E0,-2.444765888E0,2.201526394E0,3.886034528E0
1.933555333E0,2.855940338E0,-7.175413612E-1,1.888033190E0,3.497989444E0
1.943525333E0,2.108237869E0,-2.446372703E-1,1.452547186E0,2.571849069E0
1.953495333E0,1.266471388E0,-1.847364928E0,6.458460188E-1,2.331056420E0
1.963465333E0,3.252811549E-1,-1.510699792E0,-6.907310003E-1,1.692669787E0
1.973435333E0,7.522993306E-1,-1.900792399E-1,-1.243234992E-1,7.858375995E-1
1.983405333E0,1.012576953E-2,1.016168605E0,-5.892052102E-1,1.174676102E0
1.993374333E0,-4.562866694E-1,1.144917277E0,-4.799587566E-1,1.322646402E0
2.003344333E0,-1.932018906E-1,6.872735417E-1,-1.255484909E-1,7.248684813E-1
2.013314333E0,-7.333408302E-1,2.844886762E-1,-4.551624691E-1,9.087879034E-1
2.023284333E0,-1.179204472E0,2.277700996E-1,1.779909986E-1,1.214118281E0
2.033254333E0,-1.431051067E0,3.228192213E-1,3.095118356E-1,1.499305500E0
2.043224333E0,-8.957375970E-1,8.414780670E-1,3.669086891E-1,1.282596260E0
2.053194333E0,-7.758873640E-1,1.635071239E0,2.116469872E-1,1.822156306E0
2.063163333E0,-1.000444126E0,3.564141065E-2,9.550239784E0,9.602564172E0
2.073133333E0,-1.595723424E-1,4.776795119E-1,8.679695792E0,8.694294686E0
2.083103333E0,-2.419356008E-1,3.887009988E0,3.088324476E0,4.970425288E0
2.093073333E0,8.044637667E-2,7.320895261E0,-5.113705838E0,8.930395648E0
2.103043333E0,1.249205876E0,5.371164005E0,-7.607360880E0,9.395842573E0
2.113013333E0,1.338509670E0,-4.230741191E-1,-1.859311666E0,2.329729538E0
2.122983333E0,-6.515425956E-1,-3.668282899E-1,-1.947298229E-1,7.726515722E-1
2.132952333E0,3.607731372E-2,3.810037533E0,-3.496708635E0,5.171523843E0
2.142922333E0,3.514320595E-1,3.704276312E0,-7.939079272E0,8.767790324E0
2.152892333E0,1.384770355E0,-5.377257389E-1,-9.577653869E0,9.692171663E0
2.162862333E0,-1.286941559E-2,-4.650242954E0,-6.079265914E0,7.653913979E0
2.172832333E0,-1.814277727E-2,-3.475766540E0,-1.034050267E0,3.626367626E0
2.182802333E0,-2.664914032E-1,-4.503639516E-1,2.675909831E0,2.726598390E0
2.192771333E0,1.709425456E-1,-2.011846519E0,5.478368611E0,5.838601752E0
2.202741333E0,1.090504769E0,-4.139281090E0,6.453343874E0,7.743932835E0
2.212711333E0,-2.225587687E-1,-1.126243901E0,3.555628688E0,3.736368973E0
2.222681333E0,-1.395074903E0,2.047457232E0,3.379485995E-1,2.500504821E0
2.232651333E0,-1.855141578E0,7.311995798E-1,-9.097507417E-1,2.191768581E0
2.242621333E0,-6.448046297E-1,-2.000071981E0,-7.830503494E-1,2.242594210E0
2.252591333E0,-8.277278278E-1,-1.152914806E0,-1.224495251E0,1.874495806E0
2.262560333E0,-7.799111255E-1,1.916267055E-1,-1.108070755E0,1.368503912E0
2.272530333E0,-9.023136681E-1,6.948129416E-2,-3.264594054E-1,9.620672270E-1
2.282500333E0,-2.556964381E-1,-8.339158630E-1,-2.920228136E-1,9.198226235E-1
2.292470333E0,5.059313941E-1,8.191934511E-1,-3.683313167E-1,1.030879452E0
2.302440333E0,-3.023172022E-1,9.921590602E-1,2.695374042E0,2.888047181E0
2.312410333E0,4.704534497E-1,-2.426521113E0,5.787582239E0,6.293285258E0
2.322379333E0,5.619541155E-1,-1.953695083E0,3.929749333E0,4.424437447E0
2.332349333E0,2.065267632E-1,-2.608801922E0,5.314943612E-2,2.617503703E0
2.342319333E0,3.900771848E-1,-3.722118506E0,-3.213632646E0,4.932926228E0
2.352289333E0,-1.050981977E0,-4.682307038E-1,-3.445561870E0,3.632588569E0
2.362259333E0,-1.579275937E0,1.153503621E-1,-1.409470164E0,2.119911398E0
2.372229333E0,-1.667255922E0,-1.420414105E0,1.126173735E-1,2.193171496E0
2.382199333E0,-1.212393561E0,-2.219108972E0,6.537976474E-1,2.611856455E0
2.392168333E0,-2.676525689E-1,-1.238231822E0,-6.789014983E-1,1.437276308E0
2.402138333E0,1.471609420E-1,1.562235104E0,-6.032174778E0,6.232926072E0
2.412108333E0,-2.835227527E-1,2.256327377E0,-1.183337050E1,1.204989858E1
2.422078333E0,6.497564173E-1,-7.776516151E-1,-9.724435939E0,9.777094649E0
2.432048333E0,5.709617877E-1,-4.616254843E0,8.467672829E0,9.661122568E0
2.442018458E0,1.342400261E0,1.164320970E-1,2.508833245E1,2.512449044E1
2.451988458E0,1.463261332E0,7.906300950E0,1.563337422E1,1.757990665E1
2.461957458E0,1.129299949E0,7.358442571E0,-3.404177032E0,8.185989049E0
2.471927458E0,2.273043104E0,7.009338069E-1,-1.556012848E1,1.574089043E1
2.481897458E0,2.629709811E0,-3.806191235E0,-1.164831198E1,1.253338092E1
2.491867458E0,1.379847438E0,-2.203459776E0,-2.628509962E0,3.697063505E0
2.501837458E0,1.644576765E0,2.596555513E-1,3.642449316E0,4.004933303E0
2.511807458E0,7.152781232E-1,9.607928413E-1,2.886232424E0,3.124913324E0
2.521777458E0,2.012884619E-1,1.906390816E0,-5.338771015E-1,1.989941644E0
2.531746458E0,4.204810617E-1,1.476408504E0,-1.432998190E0,2.100016715E0
2.541716458E0,-7.720396037E-1,8.760064602E-2,-4.712879205E-1,9.087526214E-1
2.551686458E0,-6.399239588E-1,-6.678543538E-1,-7.240250462E-1,1.174625208E0
2.561656458E0,-9.300139021E-2,-2.885922521E-1,6.261432409E-2,3.096050713E-1
2.571626458E0,1.372230417E-1,8.313249618E-1,2.989652127E-1,8.940422550E-1
2.581596458E0,6.543630731E-1,7.592051116E-1,-3.047108622E0,3.207717941E0
2.591566458E0,4.660120143E-1,-2.840054038E-1,-3.219650016E0,3.265573838E0
2.601535458E0,-7.394732438E-2,-9.272111124E-1,1.178967075E0,1.501716358E0
2.611505458E0,6.589086986E-1,4.400705132E-1,3.465321951E0,3.554754415E0
2.621475458E0,8.272523030E-1,3.795867683E0,2.329627195E0,4.529913985E0
2.631445458E0,4.733717950E-1,3.330262379E0,-2.124434949E0,3.978435902E0
2.641415458E0,2.354633544E-2,-2.498338955E0,-5.127161450E0,5.703510893E0
2.651385458E0,-1.489841020E0,-2.423153409E-1,-6.400437098E0,6.576012320E0
2.661355458E0,-4.762744260E-1,6.472630330E0,-4.671275096E0,7.996411179E0
2.671324458E0,1.433584958E0,9.973030897E0,2.154854504E0,1.030339308E1
2.681294458E0,1.151087551E0,3.474981844E0,6.901428289E0,7.812183676E0
2.691264458E0,1.362996201E-1,-7.461714925E0,8.824012676E0,1.155677147E1
2.701234458E0,-1.657621903E0,-9.143878176E0,3.493416653E0,9.927848628E0
2.711204458E0,1.844713654E0,-2.811616105E-1,-3.840316170E0,4.269666099E0
2.721174458E0,3.771568701E0,3.252246489E0,-4.520913945E0,6.726105901E0
2.731144458E0,4.080247016E0,-2.809551161E0,4.343279042E0,6.588328033E0
2.741113458E0,1.044917464E0,-3.357255465E0,6.538116807E0,7.423610183E0
2.751083458E0,-1.728612217E0,1.752869537E0,5.248287692E0,5.796997112E0
2.761053458E0,1.891726584E0,2.498915198E0,2.494743794E-1,3.144112609E0
2.771023458E0,-2.058759461E0,-6.641153517E-1,-5.561093849E-1,2.233561588E0
2.780993458E0,-1.123729306E0,-2.178227871E0,-5.402400416E-1,2.509841333E0
2.790963458E0,-8.492544253E-1,-1.078324800E0,-3.245833263E0,3.524124150E0
2.800933458E0,-1.195536769E0,5.451037556E-1,-6.230585423E0,6.367624438E0
2.810902458E0,-2.592625015E0,-2.907206386E0,1.267207407E0,4.096262693E0
2.820872458E0,-1.848056946E0,-4.813593109E0,7.479504493E0,9.084546250E0
2.830842458E0,2.534995296E-1,1.664164352E-1,5.423898289E0,5.432368645E0
2.840812458E0,-2.594444303E-1,6.426417446E0,-3.924580979E-1,6.443615132E0
2.850782458E0,1.800849450E0,4.735926590E0,-2.479291357E0,5.640828400E0
2.860752458E0,1.606519285E0,-8.892384169E-1,-3.476971943E0,3.932045660E0
2.870722458E0,-6.263212886E-1,-3.043940893E0,-5.664811760E0,6.461265108E0
2.880691458E0,-1.968987452E0,1.207401793E0,-4.558184683E0,5.109968520E0
2.890661458E0,-1.821873991E0,4.426664723E0,-5.110757672E0,7.002458810E0
2.900631458E0,-6.854634630E-1,3.259532412E0,-6.993312020E0,7.746019927E0
2.910601458E0,-1.462432343E0,-1.363781190E-1,-5.790815749E0,5.974182320E0
2.920571458E0,-1.981583670E0,-2.116467533E0,-2.577785951E-1,2.910765958E0
2.930541458E0,-5.853805099E-1,-2.560742779E0,1.398124694E1,1.422586869E1
2.940511458E0,9.643155695E-1,6.230532798E-1,1.281974316E1,1.287104948E1
2.950480458E0,6.129585736E-1,1.981916669E-1,5.440692662E0,5.478698275E0
2.960450458E0,6.227099021E-1,-1.992891600E0,2.979046447E0,3.637870571E0
2.970420458E0,-5.493975488E-1,-4.375471473E-1,2.026761889E0,2.145005578E0
2.980390458E0,-8.522884724E-1,1.750981179E0,1.512648962E0,2.465854337E0
2.990360458E0,1.953338585E-1,1.835551213E0,-1.562134532E0,2.418195168E0
3.000330458E0,-1.940052249E-1,-1.613788251E0,-1.731906685E0,2.375173954E0
3.010300458E0,-1.741406364E0,2.544094294E-1,-3.072921156E0,3.541195379E0
3.020270458E0,-1.085799295E0,1.560142678E0,-1.978380858E0,2.743537152E0
3.030239458E0,-8.422044374E-1,1.609118957E0,-2.507272038E0,3.095962727E0
3.040209458E0,-4.004639229E-2,-9.903797525E-1,-2.410468460E0,2.606302738E0
3.050179458E0,-9.098542374E-1,-1.351236866E0,-1.494959965E0,2.211013590E0
3.060149458E0,-1.606968643E0,1.074042884E-1,1.475778759E-1,1.617301187E0
3.070119458E0,-9.048909746E-1,1.129588216E0,1.680115557E-1,1.457060430E0
3.080089458E0,3.535946522E-1,-5.162799060E-3,-8.407652915E-1,9.121086053E-1
3.090059458E0,2.064409187E0,2.178669629E-1,-2.665945591E0,3.378833704E0
3.100028458E0,1.562179410E0,1.855762407E0,-3.764887088E0,4.478686571E0
3.109998458E0,8.776419264E-1,5.865020424E-1,-2.151177190E0,2.396206022E0
3.119968458E0,8.676671612E-1,-1.819444765E0,-7.432273024E-1,2.148397631E0
3.129938458E0,1.214389873E0,-3.495287469E0,-5.060677439E-1,3.734686308E0
3.139908458E0,4.316246487E-1,-4.890558547E-1,1.319225407E-1,6.654915650E-1
3.149878458E0,-1.281405616E-1,5.893401055E0,9.788104516E-1,5.975505493E0
3.159848458E0,-3.642582925E-1,6.585465220E0,2.347102184E0,7.000708888E0
3.169817458E0,-4.616946861E-2,2.376469240E0,2.287233712E0,3.298662717E0
3.179787458E0,9.894134270E-1,-8.234092936E-1,1.716689891E-1,1.298619281E0
3.189757458E0,1.679574689E0,-3.035448689E0,-5.314826667E-2,3.469545305E0
3.199727458E0,1.471941085E0,-9.961538780E-1,-4.554834813E-1,1.834774729E0
3.209697458E0,-4.611387621E-1,-3.128952100E0,1.758489881E0,3.618739679E0
3.219667458E0,-3.726249272E-1,-6.028781054E0,3.994455791E0,7.241597020E0
3.229637458E0,-1.187274946E0,-1.809084376E0,2.794469145E0,3.534326793E0
3.239606458E0,-8.652085532E-1,-5.189462364E-2,3.023643161E0,3.145424750E0
3.249576458E0,-1.355012559E0,-9.395197937E-1,3.508176194E0,3.876345791E0
3.259546458E0,-1.762760103E0,-1.771195004E0,1.438290505E0,2.883250682E0
3.269516458E0,-2.125506744E0,-1.944718730E0,2.234139240E-1,2.889571532E0
3.279486458E0,-1.768820011E0,-1.199030042E-1,-7.466368139E-1,1.923685913E0
3.289456458E0,-5.993678903E-1,-3.740612957E-1,-5.725809914E-1,9.094023931E-1
3.299426458E0,-3.948867390E-1,-1.305795229E0,-2.353741697E0,2.720503022E0
3.309395458E0,6.024745890E-1,-1.349066379E0,-1.482770274E0,2.093218434E0
3.319365458E0,1.431602313E0,-5.267142624E-1,-4.609944820E-2,1.526118690E0
3.329335458E0,1.563842504E0,3.053576812E-1,1.298946093E0,2.055749898E0
3.339305458E0,1.766320619E0,1.816307442E0,-9.586527604E-1,2.708851485E0
3.349275458E0,1.134181131E0,2.998297235E0,-3.550438700E0,4.783489115E0
3.359245458E0,7.478602707E-1,3.006810197E0,-4.033645000E0,5.086304604E0
3.369215458E0,2.935942528E-1,2.538589725E0,-1.749430790E0,3.096957131E0
3.379185458E0,3.300446622E-1,1.973821199E0,5.631289673E-1,2.078945367E0
3.389154458E0,-4.724306309E-2,1.380023878E0,1.995548283E0,2.426707803E0
3.399124458E0,4.245248133E-1,-6.435796380E-2,1.309016168E0,1.377638049E0
3.409094458E0,1.984628133E-2,-6.766272238E-1,-1.863263215E0,1.982414710E0
3.419064458E0,-2.834722657E-1,-1.594184875E-2,-2.717246137E0,2.732039026E0
3.429034458E0,-6.500004655E-1,1.303739056E-1,-1.194099085E0,1.365785702E0
3.439004458E0,-1.023659619E0,3.643081400E-1,1.306562676E0,1.699325002E0
3.448974708E0,-7.657684650E-1,-6.861122847E-2,2.116944081E0,2.252234687E0
3.458943708E0,-1.123630269E0,-8.300385743E-1,1.591113333E0,2.117345190E0
3.468913708E0,-6.891995414E-1,-5.319212079E-1,-1.306443393E-1,8.803431846E-1
3.478883708E0,-7.233815601E-1,-6.218832520E-1,-1.513352382E0,1.788925681E0
3.488853708E0,-8.790517632E-1,-3.635377693E-1,-2.598711382E0,2.767343953E0
3.498823708E0,-6.861895410E-1,-5.198095778E-1,-1.614836656E0,1.829960522E0
3.508793708E0,-6.591925809E-1,-1.140744704E0,-7.714950818E-1,1.526773722E0
3.518763708E0,-6.361608370E-1,-9.283536583E-2,-4.230442983E-1,7.696008667E-1
3.528732708E0,-7.538073275E-1,6.183781385E-1,1.178919128E0,1.529858595E0
3.538702708E0,-9.125898573E-1,-3.132055217E-1,3.011117840E0,3.161921662E0
3.548672708E0,-2.344271547E-1,2.737493876E-1,3.460572842E0,3.479290045E0
3.558642708E0,-2.217943001E-1,1.237188971E0,1.925405669E0,2.299351267E0
3.568612708E0,-3.984910358E-2,5.736714971E-1,1.307349712E-1,5.897275391E-1
3.578582708E0,-2.823812849E-1,4.104438409E-1,-3.370124602E-1,6.014821152E-1
3.588552708E0,-1.391717432E0,4.806510669E-1,4.596543002E-1,1.542460675E0
3.598521708E0,-5.830716272E-1,-3.790305519E-1,1.832614449E0,1.960130710E0
3.608491708E0,-3.347401226E-1,2.894225568E-1,2.135316617E0,2.180686457E0
3.618461708E0,1.261983358E-1,-2.087230870E-1,1.199774392E0,1.224316111E0
3.628431708E0,-4.180041080E-1,-9.527789399E-1,6.248089063E-1,1.213631456E0
3.638401708E0,-6.751197385E-1,7.344950706E-2,-2.498281360E-1,7.235990526E-1
3.648371708E0,-1.246580915E0,7.640635630E-1,-1.933930909E0,2.424426915E0
3.658341708E0,-2.132448558E0,5.199139506E-2,-1.779840989E0,2.778106172E0
3.668311708E0,-2.365070824E0,-8.606335455E-1,-2.821566312E0,3.780937258E0
3.678280708E0,-2.456362963E0,-1.308054009E0,-2.866005151E0,3.994835393E0
3.688250708E0,-1.335748907E0,-1.253621109E0,-1.967077020E0,2.687970058E0
3.698220708E0,-1.138045629E0,-6.470251098E-1,-1.431491947E-1,1.316921045E0
3.708190708E0,-1.306532746E-1,-1.001726859E0,1.182825653E0,1.555507475E0
3.718160708E0,9.419023879E-2,-2.433406502E-1,1.038413460E0,1.070695562E0
3.728130708E0,3.674446961E-1,1.313001046E-1,7.302973545E-1,8.280033503E-1
3.738100708E0,1.226525934E-1,-4.089966550E-1,1.504775686E0,1.564184064E0
3.748069708E0,-6.834514361E-1,-2.578443763E-1,1.736246488E0,1.883651097E0
3.758039708E0,-1.842974217E-1,4.208045223E-1,9.803582096E-1,1.082656088E0
3.768009708E0,1.697296686E-1,4.287149280E-1,6.245247316E-1,7.762962001E-1
3.777979708E0,3.772499286E-1,3.146053451E-1,7.963340539E-1,9.356505529E-1
3.787949708E0,7.188914832E-1,-1.274085487E0,8.862537056E-1,1.710422294E0
3.797919708E0,3.675308329E-1,-9.108465099E-1,8.312922174E-1,1.286766113E0
3.807889708E0,9.063790910E-1,-3.913912734E-1,5.893204004E-1,1.149786380E0
3.817859708E0,4.494612146E-1,5.980614030E-1,8.252830338E-1,1.113905252E0
3.827828708E0,4.720187859E-1,9.814428681E-1,5.175154227E-1,1.205758703E0
3.837798708E0,2.949451606E-1,3.978986397E-1,8.819957632E-1,1.011549555E0
3.847768708E0,-2.469758642E-1,-4.272347054E-1,-5.487185043E-1,7.379827694E-1
3.857738708E0,-5.357859982E-1,3.975606707E-1,-2.113474343E0,2.216279523E0
3.867708708E0,-3.338405285E-1,-6.871764779E-1,-2.410166743E0,2.528352179E0
3.877678708E0,-5.853479117E-1,-9.450907284E-1,-1.847665182E0,2.156315211E0
3.887648708E0,-7.721111590E-1,-3.563644052E-2,-1.872348034E0,2.025614168E0
3.897617708E0,-5.937364369E-1,-2.012965384E-1,-5.043977791E-1,8.046492232E-1
3.907587708E0,-8.713438904E-1,-8.038895336E-1,1.797255167E0,2.153045446E0
3.917557708E0,-8.255510556E-1,-7.589411098E-1,2.820472882E0,3.035225434E0
3.927527708E0,-4.275038235E-1,-1.170706129E-1,9.645660496E-1,1.061533189E0
3.937497708E0,4.663848840E-1,1.098798240E0,9.575283408E-2,1.197514525E0
3.947467708E0,1.632540235E-1,1.370730313E0,-1.457708523E0,2.007602452E0
3.957437708E0,1.168147753E0,5.469155154E-1,-2.342308052E0,2.673965737E0
3.967407708E0,1.180334008E0,2.118355599E-1,-3.057033686E0,3.283826675E0
3.977376708E0,1.001233573E0,-3.977363795E-1,-2.624527423E0,2.837041962E0
3.987346708E0,2.116275635E-1,-7.718646258E-1,4.778385562E-1,9.321431821E-1
3.997316708E0,-4.831042662E-2,-1.397982139E0,2.691269882E0,3.033087789E0
4.007286708E0,6.903834930E-2,6.279985625E-1,2.693980066E0,2.767070127E0
4.017256708E0,9.775465760E-1,9.940029797E-1,9.236279386E-1,1.672342011E0
4.027226708E0,1.240382428E0,6.016168025E-1,3.108853465E-1,1.413202407E0
4.037196708E0,6.569598947E-1,-5.209401369E-2,4.730122644E-1,8.112032370E-1
4.047165708E0,1.013152264E-1,8.698318005E-3,8.232078570E-1,8.294646537E-1
4.057135708E0,-1.017391404E0,3.140948832E-2,2.020453913E0,2.262367309E0
4.067105708E0,-1.081812371E0,-1.489335528E-1,1.156809636E0,1.590819834E0
4.077075708E0,-1.530814653E0,-5.821502522E-1,2.671405721E-1,1.659414506E0
4.087045708E0,-1.374579974E0,-9.943427029E-1,-4.243944204E-1,1.748799056E0
4.097015708E0,-1.067181688E0,-2.447629854E-1,-9.799816489E-1,1.469404541E0
4.106985708E0,-6.984182982E-2,5.824680483E-1,-1.473042846E0,1.585560511E0
4.116955708E0,-1.061620474E-2,-5.623966035E-1,-2.962421644E-1,6.357374170E-1
4.126924708E0,4.486013085E-2,-6.031984743E-1,4.359958810E-1,7.456227189E-1
4.136894708E0,-1.084455678E-2,6.876401621E-1,1.617145722E0,1.757306713E0
4.146864708E0,-1.770370071E-1,6.377441168E-2,2.155248021E0,2.163447090E0
4.156834708E0,8.613611950E-2,-1.782175782E-1,1.217932920E0,1.233913099E0
4.166804708E0,4.339098137E-1,-5.745123267E-1,-2.751687992E-1,7.707528839E-1
4.176774708E0,7.160693246E-1,-8.251926944E-1,-1.082920711E0,1.538315809E0
4.186744708E0,-2.666623429E-1,-7.517733005E-1,-8.945538282E-1,1.198540134E0
4.196713708E0,4.722321727E-1,-1.090046713E-1,-1.194769176E0,1.289324872E0
4.206683708E0,7.070230973E-1,1.075426042E0,-2.021971266E0,2.396829287E0
4.216653708E0,9.907988517E-1,1.549892217E0,-1.922217767E0,2.660595683E0
4.226623708E0,1.362168820E0,3.414744705E-1,-2.880175878E0,3.204297395E0
4.236593708E0,1.564116446E0,-1.195474057E0,-2.437998905E0,3.133601305E0
4.246563708E0,1.326768315E0,-1.957161604E0,1.246749169E-1,2.367771007E0
4.256533708E0,1.592642234E0,-2.191374459E0,4.668771318E0,5.397782593E0
4.266503708E0,2.589500847E0,-2.976466656E-1,5.178944392E0,5.797893858E0
4.276472708E0,1.511361697E0,1.549243176E0,1.548064962E0,2.660991117E0
4.286442708E0,4.473636722E-1,4.621431676E-1,-5.942069185E-1,8.756668456E-1
4.296412708E0,3.299600603E-1,-9.123413506E-1,-8.643617302E-1,1.299369686E0
4.306382708E0,3.765767679E-1,-1.580971338E0,-2.333992141E0,2.844081530E0
4.316352708E0,4.253692974E-1,-2.778333753E-2,-5.485484088E0,5.502022050E0
4.326322708E0,1.101150648E0,-2.715253991E-1,-3.089606770E0,3.291189570E0
4.336292708E0,9.090240790E-1,-2.149979680E0,2.972480024E0,3.779467541E0
4.346261708E0,1.160761843E0,-2.163725022E0,7.411521256E0,7.807670674E0
4.356231708E0,5.644685644E-1,1.792588796E0,5.606547180E0,5.913152343E0
4.366201708E0,1.070211276E0,2.605277220E0,-1.209028780E-1,2.819120266E0
4.376171708E0,7.520571828E-1,-9.553619474E-2,-3.310073698E0,3.395777533E0
4.386141708E0,3.384534334E-1,-9.454819071E-1,-4.580013508E0,4.688817601E0
4.396111708E0,9.985025583E-1,8.335828641E-1,-3.840350668E0,4.054646841E0
4.406081708E0,1.835688038E0,7.917662090E-1,-9.106746018E-1,2.196809626E0
4.416051708E0,1.971524997E0,-6.016673809E-1,3.049267999E0,3.680618125E0
4.426020708E0,1.437903419E0,-7.194457993E-1,5.130821223E0,5.376848047E0
4.435990708E0,1.083190706E0,1.608105049E0,2.071476717E0,2.837308539E0
4.445961208E0,1.013317649E0,3.573168873E0,-2.805081841E0,4.654334817E0
4.455931208E0,1.047315699E0,2.412686309E0,-4.376004154E0,5.105618254E0
4.465901208E0,1.279868675E0,4.620300239E-1,-1.408117703E0,1.958144794E0
4.475871208E0,1.189845674E0,5.481384605E-1,3.077963210E0,3.345152615E0
4.485841208E0,1.485567290E0,1.729844664E0,2.633146219E0,3.483207106E0
4.495810208E0,1.827152857E0,2.431503233E0,-1.306910001E0,3.310394129E0
4.505780208E0,2.328174162E0,-1.964474425E-1,-3.836267558E0,4.491763050E0
4.515750208E0,2.336144209E0,-4.016264736E0,-2.145284366E0,5.117635900E0
4.525720208E0,2.458934861E0,-3.854236344E0,-1.428521562E-1,4.574046915E0
4.535690208E0,2.469035634E0,-9.816171151E-1,2.294839185E0,3.510839787E0
4.545660208E0,3.237667041E0,1.352602191E0,2.333346609E0,4.213849422E0
4.555630208E0,4.149026352E0,1.290433132E0,6.659335434E-2,4.345580745E0
4.565600208E0,3.206363680E0,-3.431909207E-1,2.520968556E-1,3.234517102E0
4.575569208E0,1.903900633E0,-1.772466481E0,-1.891688284E0,3.216358128E0
4.585539208E0,2.487828877E0,-1.661452706E0,-3.981813526E0,4.980417309E0
4.595509208E0,1.992769394E0,-3.384892915E0,-2.137150304E0,4.471693340E0
4.605479208E0,-2.386276482E-1,-4.097210374E0,3.957592020E0,5.701456884E0
4.615449208E0,4.625815625E-1,-7.665375200E-1,5.335533412E0,5.410127380E0
4.625419208E0,2.231632246E0,1.966966216E0,8.982316099E0,9.462089679E0
4.635389208E0,2.763004693E0,4.953747067E0,2.865944924E0,6.355111742E0
4.645359208E0,5.373479503E0,5.648693910E-1,2.349494864E0,5.891815129E0
4.655328208E0,3.918912104E0,-2.735737664E0,-1.643611389E0,5.054066783E0
4.665298208E0,4.519549205E0,-3.241965622E0,-2.274702544E0,6.009237704E0
4.675268208E0,1.367105771E0,-2.029670002E0,-1.293236872E0,2.767851172E0
4.685238208E0,2.067588319E0,1.321244743E0,7.577933013E-2,2.454862854E0
4.695208208E0,2.443494703E0,1.072322925E0,1.985232625E0,3.325912115E0
4.705178208E0,1.462817966E0,-1.245413080E-1,3.900882214E0,4.168000599E0
4.715148208E0,1.938598303E0,-2.349009545E0,4.528333477E0,5.457271599E0
4.725117208E0,1.170110005E0,-1.597402891E0,3.023080074E0,3.613843737E0
4.735087208E0,1.218401867E0,4.627427995E-2,8.084103084E-1,1.462932550E0
4.745057208E0,1.191169191E0,8.068280518E-3,1.307899350E-1,1.198355184E0
4.755027208E0,7.807019614E-1,1.464587188E-1,-1.065260366E0,1.328805989E0
4.764997208E0,5.759507418E-5,1.064958942E0,-1.531240184E0,1.865163277E0
4.774967208E0,8.985125394E-1,1.827076259E0,-1.980402825E0,2.840339379E0
4.784937208E0,1.622592111E0,2.544479333E0,-2.110865316E0,3.682788701E0
4.794907208E0,1.671899342E0,1.920758886E0,-4.407379729E-1,2.584339774E0
4.804876208E0,2.438068926E0,1.170233382E0,9.769522065E-1,2.875423772E0
4.814846208E0,2.475726018E0,-1.520299166E0,2.394081638E0,3.764592376E0
4.824816208E0,1.709538161E0,-1.695972913E0,2.141560859E0,3.222596431E0
4.834786208E0,2.365833154E-1,-2.200456354E-1,-4.231741065E-1,5.324171966E-1
4.844756208E0,5.833625261E-1,-1.266435867E0,-7.264574879E-1,1.572231574E0
4.854726208E0,-2.756693939E-1,4.110168681E-1,-4.223397088E-1,6.506145635E-1
4.864696208E0,2.613119944E-1,1.438486094E0,8.746440589E-1,1.703680848E0
4.874666208E0,9.601275013E-1,1.551332678E0,5.483518839E-3,1.824419899E0
4.884635208E0,1.115632228E0,7.549658802E-1,1.875395018E-1,1.360066106E0
4.894605208E0,2.613438617E-1,1.975119281E-1,-6.187301409E-1,7.000989666E-1
4.904575208E0,-7.540459670E-2,4.675278684E-1,-5.420497549E-1,7.197819793E-1
4.914545208E0,-1.208005445E0,-1.187352275E0,1.999841893E0,2.620772821E0
4.924515208E0,-1.553589704E0,-1.754760819E0,3.005125614E0,3.810984972E0
4.934485208E0,-1.371694081E0,-1.485568752E0,3.322575629E0,3.889468856E0
4.944455208E0,-1.000944867E0,5.946852207E-2,7.952774620E-1,1.279802084E0
4.954424208E0,-1.051600466E0,-9.931460702E-1,-1.588255799E-1,1.455138557E0
4.964394208E0,-6.580798557E-1,-5.752680793E-1,-1.281079341E0,1.550859999E0
4.974364208E0,-1.402015402E0,-9.095724016E-1,-1.991075748E0,2.599490676E0
4.984334208E0,-1.224389197E0,-1.293794989E0,-2.181830049E0,2.816632162E0
4.994304208E0,-1.782934459E0,-1.212362278E0,-1.904236994E0,2.876594533E0
5.004274208E0,-1.518487699E0,-2.118614338E0,-1.314516059E0,2.919295133E0
5.014244208E0,-1.699483143E0,-1.030375000E0,-1.339287788E0,2.396582436E0
5.024214208E0,-1.733497273E0,-1.070714648E0,7.340699780E-1,2.165710366E0
5.034183208E0,-1.473220455E0,-5.264891446E-1,3.183289690E0,3.546956806E0
5.044153208E0,-1.384001154E0,4.495538199E-1,1.529981278E0,2.111492492E0
5.054123208E0,-1.511189204E0,1.449537039E0,-1.527893822E0,2.592163184E0
5.064093208E0,-1.579647966E0,7.850620839E-1,-3.857489442E0,4.241678320E0
5.074063208E0,-1.913852301E0,-1.477286755E0,-3.742700413E0,4.455672022E0
5.084033208E0,-2.215050712E0,-2.553680804E0,-2.920185451E0,4.467126411E0
5.094003208E0,-1.486718022E0,-2.015994534E0,1.022379810E-1,2.506993627E0
5.103973208E0,-9.939517435E-1,-8.731135502E-1,3.633679662E0,3.867026665E0
5.113942208E0,-5.134370994E-1,1.126545618E0,4.822868255E0,4.979234970E0
5.123912208E0,-1.945323332E0,1.614445478E0,2.462209302E0,3.528908005E0
5.133882208E0,-2.898778502E0,5.461600551E-1,-2.202301151E-1,2.957990689E0
5.143852208E0,-3.875019395E0,-6.310075396E-1,-6.625789958E-1,3.981577169E0
5.153822208E0,-3.328907579E0,-2.380540656E0,4.395802242E-1,4.116045464E0
5.163792208E0,-2.730294199E0,-1.363268389E0,2.445657004E0,3.910785764E0
5.173762208E0,-2.487320169E0,-4.674229109E-1,4.592993742E0,5.244124075E0
5.183731208E0,-2.395350630E0,1.426300204E0,2.881388006E0,4.009293423E0
5.193701208E0,-2.105331219E0,1.207088090E0,8.118829697E-1,2.559030119E0
5.203671208E0,-2.375409724E0,1.984752569E-1,-3.601402447E0,4.318803465E0
5.213641208E0,-1.408321332E0,6.786401278E-1,-6.504795279E0,6.690013678E0
5.223611208E0,-7.162752928E-1,-2.413710156E-1,-6.760893384E0,6.803013275E0
5.233581208E0,-1.229408958E0,-1.215231507E0,-4.197475212E0,4.539496905E0
5.243551208E0,-9.592661333E-1,-1.768931254E0,-8.611387450E-1,2.188805435E0
5.253521208E0,-5.431230844E-1,-9.421647817E-1,-5.933409458E-1,1.238834387E0
5.263490208E0,-5.929456741E-1,-1.307219026E0,-1.937073203E0,2.410945613E0
5.273460208E0,-6.152309478E-1,-3.940093350E0,-1.022844663E0,4.116923115E0
5.283430208E0,-2.093600681E-1,-3.282107927E0,-9.240752506E-1,3.416135119E0
5.293400208E0,-8.629831760E-1,-3.512130082E-1,1.344169629E0,1.635506811E0
5.303370208E0,-2.008962673E0,-5.524668619E-1,1.603410378E1,1.616890951E1
5.313340208E0,-1.255693362E0,3.439228751E0,1.247061878E1,1.299697630E1
5.323310208E0,-1.231734981E-1,6.580578117E0,3.688644658E0,7.544884325E0
5.333280208E0,-4.162089909E0,6.556343747E0,-7.409580565E0,1.073361635E1
5.343249208E0,-1.821942988E0,1.158385461E0,-1.020443563E1,1.043033267E1
5.353219208E0,-2.206672529E0,-1.038013218E0,-9.705465233E0,1.000714397E1
5.363189208E0,-2.432352688E0,-9.413502645E-1,-6.302741818E0,6.821072815E0
5.373159208E0,-1.271284816E-1,-8.050768107E-2,-6.964314508E-1,7.125025637E-1
5.383129208E0,4.825164018E-1,-1.279122278E0,1.689720193E0,2.173506432E0
5.393099208E0,1.426855982E0,-4.870816300E0,2.544101896E0,5.677431099E0
5.403069208E0,2.251188405E0,-4.452017373E0,6.171157832E0,7.935458204E0
5.413038208E0,1.185944412E0,-6.363823003E-1,7.874003854E0,7.988202756E0
5.423008208E0,7.855908915E-1,1.455209423E0,5.206197680E0,5.462534375E0
5.432978208E0,-3.533004642E-2,1.124380686E0,-4.256673592E-1,1.202777136E0
5.442948208E0,-2.729994091E-1,-2.052223590E-1,-2.855209436E0,2.875563566E0
5.452917375E0,-1.212946780E0,1.851877224E0,-4.960170819E0,5.431756962E0
5.462887375E0,-8.244128220E-1,1.722989096E0,-3.728236740E0,4.189044893E0
5.472857375E0,-2.881288603E-3,-6.944711718E-1,-2.474780231E0,2.570376568E0
5.482827375E0,1.160519914E0,-2.243341588E0,-1.564147729E-1,2.530583635E0
5.492796375E0,1.521894433E0,1.552140764E0,8.389982629E-1,2.330069033E0
5.502766375E0,1.390327184E-1,7.340465891E0,1.095363001E0,7.423044504E0
5.512736375E0,5.797515781E-1,4.584082878E0,2.187439283E0,5.112222446E0
5.522706375E0,7.250961100E-1,-1.047188669E0,2.205101967E-1,1.292669031E0
5.532676375E0,-8.435241540E-1,-8.255099643E0,-2.280134023E0,8.605650137E0
5.542646375E0,-1.841357791E0,-7.070468370E0,-5.937290840E0,9.414538969E0
5.552616375E0,-9.154557239E-1,-2.395341420E0,-7.054803679E0,7.506395583E0
5.562586375E0,-1.286729798E0,-1.380297528E0,-8.400014112E0,8.609363038E0
5.572555375E0,-2.864139597E0,-2.569105175E0,-7.137504943E0,8.108487765E0
5.582525375E0,-7.530555949E-1,-6.638707627E0,-2.240943060E0,7.047081487E0
5.592495375E0,-1.427483973E0,-1.133386392E1,4.286815521E1,4.436409487E1
5.602465375E0,6.717116889E-2,1.783090579E0,4.396210377E1,4.399830101E1
5.612435375E0,-4.498429647E0,1.779675045E1,-2.548883164E0,1.853259295E1
5.622405375E0,-5.520423540E-1,6.808801961E0,-1.018402183E1,1.226290485E1
5.632375375E0,3.955047531E-1,-6.719384585E0,-5.738464458E0,8.845141466E0
5.642345375E0,-2.272555885E0,-6.621612707E0,-3.231664875E0,7.710637001E0
5.652314375E0,-1.202784612E0,-6.140945853E0,2.156603523E1,2.245555126E1
5.662284375E0,9.707688490E-1,1.728220600E-1,1.264190945E1,1.268030497E1
5.672254375E0,-1.562514748E0,4.884543516E0,2.506912435E0,5.708312154E0
5.682224375E0,3.915147593E-1,9.779386318E0,-1.857814545E1,2.099850397E1
5.692194375E0,2.014624385E0,3.939459220E0,-2.001705401E1,2.050025613E1
5.702164375E0,-6.646530032E-3,-3.479229261E0,-1.410830226E1,1.453097633E1
5.712134375E0,5.596564521E-1,-3.934722683E0,-6.703984188E0,7.793501263E0
5.722104375E0,4.893882323E-1,4.340043193E-1,4.090598050E0,4.142565992E0
5.732073375E0,2.387189817E0,2.436519267E0,6.102661793E0,6.991264716E0
5.742043375E0,2.128004382E0,-5.408385041E-1,-6.357395158E0,6.725874080E0
5.752013375E0,7.581559749E-1,-1.736245026E0,-1.687292078E1,1.697895177E1
5.761983375E0,1.274719325E0,-2.753663766E0,-1.532832264E1,1.562578153E1
5.771953375E0,-1.756809391E0,-5.260373887E0,-6.199118632E0,8.317871391E0
5.781923375E0,-7.609586184E-1,-5.677061677E0,1.449906466E1,1.558945039E1
5.791893375E0,-2.488120361E-1,1.384705217E1,1.785324040E1,2.259515333E1
5.801863375E0,-1.577164215E0,3.097518053E1,6.057068714E0,3.160122367E1
5.811832375E0,-6.238615112E-1,2.467929165E1,4.014238676E0,2.501141243E1
5.821802375E0,3.190483227E0,-5.652102837E0,6.321074594E0,9.059880447E0
5.831772375E0,8.407537140E0,-1.224931921E1,3.245882964E-1,1.486061437E1
5.841742375E0,4.776333481E0,-1.380835179E1,-8.883860682E0,1.709990998E1
5.851712375E0,-7.106291336E0,5.667703208E0,-1.432044626E1,1.696164548E1
5.861682375E0,-8.163746839E0,3.509299737E0,6.981856155E-1,8.913439866E0
5.871652375E0,-6.270284509E0,-8.807926401E0,1.521633793E1,1.866635946E1
5.881622375E0,-1.193552005E0,-1.406706419E1,1.186702942E1,1.844270176E1
5.891591375E0,3.299638172E0,-1.319731659E1,9.341576046E0,1.650217622E1
5.901561375E0,-1.904583587E0,-1.234900078E0,-1.742231113E0,2.861430778E0
5.911531375E0,-3.219405602E0,-8.241986677E-1,-2.545170767E0,4.185901349E0
5.921501375E0,1.066821645E0,-6.223856447E0,3.876543179E0,7.409594086E0
5.931471375E0,7.658159736E-1,-5.105699830E0,3.801021127E0,6.411115852E0
5.941441375E0,2.547072866E0,-1.124436235E0,2.333788658E0,3.632974887E0
5.951411375E0,7.247232769E-1,-1.540103393E0,-1.495747000E0,2.265921750E0
5.961381375E0,9.049892809E-1,-7.509842187E0,-5.710103123E0,9.477447597E0
5.971350375E0,9.634740090E-1,-5.138197485E0,-9.206459171E0,1.058717366E1
5.981320375E0,-2.103413478E0,4.326159272E0,-9.138323906E0,1.032709863E1
5.991290375E0,-2.919662125E0,1.541618641E1,-6.178677936E0,1.686295618E1
6.001260375E0,-3.344076134E0,1.625036422E1,1.095853583E0,1.662702853E1
6.011230375E0,-1.469973643E0,4.402458712E0,6.821344239E0,8.250648607E0
6.021200375E0,1.224565271E0,-6.096119928E0,4.561586593E0,7.711699587E0
6.031170375E0,1.772875493E0,-5.610100533E0,-1.671483312E0,6.116385531E0
6.041140375E0,-1.109401070E0,2.361950603E-1,-6.779003381E0,6.873241279E0
6.051109375E0,-2.463255661E0,3.219105932E0,-6.946622588E0,8.042750576E0
6.061079375E0,-2.477261496E0,2.894491908E0,-2.551983942E0,4.585578477E0
6.071049375E0,-2.989328776E0,2.477625486E0,2.619526300E0,4.683655903E0
6.081019375E0,-2.791556062E0,2.709151544E0,4.865187478E0,6.229152152E0
6.090989375E0,-4.609239646E0,5.469558612E-1,3.942537194E0,6.089979504E0
6.100959375E0,-4.806834605E0,-4.613719198E-1,-4.079789472E-1,4.846129361E0
6.110929375E0,-5.345209969E0,-2.091454314E0,-2.771419421E0,6.373869811E0
6.120899375E0,-4.638787381E0,-2.207598728E-1,-1.492119387E0,4.877858501E0
6.130868375E0,-3.618896731E0,9.833549076E-1,1.573585719E0,4.066887316E0
6.140838375E0,-3.745717869E0,2.356509769E-1,1.878123329E0,4.196817958E0
6.150808375E0,-3.968949652E0,-6.184222850E-1,1.116479051E0,4.169116565E0
6.160778375E0,-2.926711236E0,-1.980298160E0,7.746186644E-1,3.617630929E0
6.170748375E0,-3.234173330E0,-2.467739598E0,3.133610576E-1,4.080172914E0
6.180718375E0,-1.844517041E0,-1.125491365E0,-9.566337168E-2,2.162897457E0
6.190688375E0,-1.344751865E0,-7.694722375E-1,3.020461106E-1,1.578504658E0
6.200658375E0,-1.468055318E0,-1.450076445E0,2.178836274E0,3.000872477E0
6.210628375E0,-7.636007559E-1,-1.093689820E0,2.227232509E0,2.596114055E0
6.220597375E0,-1.370403162E0,-4.679362965E-1,6.578170234E-1,1.590500688E0
6.230567375E0,-7.946249127E-1,-9.190852368E-1,2.330530590E-1,1.237117679E0
6.240537375E0,-6.929821052E-1,-1.484487602E0,1.844770811E0,2.467206311E0
6.250507375E0,-1.750030860E0,-9.549272069E-1,3.079374143E0,3.668383717E0
6.260477375E0,-2.431992645E0,-4.284529728E-1,5.702766037E-1,2.534437922E0
6.270447375E0,-2.531962784E0,-9.855557996E-1,-1.901894599E0,3.316528130E0
6.280417375E0,-3.055889094E0,-1.433193779E0,-2.660613515E0,4.297832807E0
6.290387375E0,-2.938538107E0,-2.545433891E0,-6.248217702E-1,3.937593446E0
6.300356375E0,-2.015297546E0,-2.538176327E0,1.963513727E0,3.789346834E0
6.310326375E0,-1.290248652E0,-1.351443565E0,3.216072105E0,3.719443651E0
6.320296375E0,-6.628400009E-1,-9.475418812E-1,1.035571128E0,1.552288647E0
6.330266375E0,-4.236392525E-1,-5.335452721E-1,-1.469197133E0,1.619469354E0
6.340236375E0,8.885688376E-2,9.420069069E-2,-3.974189342E0,3.976298560E0
6.350206375E0,7.378177509E-1,2.464806050E-1,-5.363649164E0,5.419765685E0
6.360176375E0,5.718427073E-1,-9.945189965E-1,-4.393865059E0,4.541158693E0
6.370146375E0,1.255211551E0,-3.244676976E0,4.028873087E0,5.323091496E0
6.380116375E0,-3.095464072E-1,-2.792938929E0,1.374335882E1,1.402769541E1
6.390085375E0,-7.331657061E-1,1.921035167E0,1.360413194E1,1.375864506E1
6.400055375E0,1.283246173E0,6.172000415E0,3.934953355E0,7.431296507E0
6.410025375E0,1.095115810E0,3.935453584E0,1.503757685E-1,4.087748332E0
6.419995375E0,-2.654885509E-1,-8.239890450E-1,-3.801314072E0,3.898644738E0
6.429965375E0,8.364127703E-1,-2.680114271E0,-6.156025237E0,6.766036177E0
6.439935375E0,2.476136200E0,2.689745513E-1,-8.142816730E0,8.515225311E0
6.449905958E0,2.170973669E0,2.571497563E0,-6.051983975E0,6.924755333E0
6.459875958E0,1.956502331E0,-1.106257241E0,4.933763623E-2,2.248141601E0
6.469844958E0,2.122587156E-1,-1.943807441E0,3.123080910E0,3.684708334E0
6.479814958E0,6.316548264E-1,-1.044955909E-1,3.214215614E0,3.277360090E0
6.489784958E0,7.249744148E-1,1.517864093E0,-4.744003934E-1,1.747728537E0
6.499754958E0,1.947645846E0,6.733466434E-1,-2.368788922E0,3.139726262E0
6.509724958E0,1.989630901E0,-1.304172335E0,-3.017334015E0,3.842369212E0
6.519694958E0,2.275822140E0,-1.405213098E0,-1.231639963E-1,2.677528643E0
6.529664958E0,2.154476481E0,1.757003519E-1,8.993076146E-2,2.163498802E0
6.539634958E0,1.479684406E0,2.062453879E0,-1.274063852E0,2.840144475E0
6.549604958E0,1.375867823E0,1.008208205E0,-2.791815094E0,3.271655173E0
6.559573958E0,3.796995830E-1,1.071440873E0,-2.358509517E0,2.618152871E0
6.569543958E0,1.477041757E0,2.778897717E0,-5.151607490E-1,3.188936417E0
6.579513958E0,2.786105872E0,1.079198666E0,1.984761924E0,3.586967464E0
6.589483958E0,3.316760573E0,-1.995862571E0,2.620027406E0,4.674281946E0
6.599453958E0,3.276792808E0,-5.253758932E0,3.511930107E0,7.118497531E0
6.609423958E0,2.778558871E0,-3.614830870E0,1.244156513E0,4.726025502E0
6.619393958E0,2.074063379E0,-2.310314134E0,7.734901518E-1,3.199621433E0
6.629363958E0,6.362969309E-1,-1.208066621E0,8.828430247E-1,1.625949123E0
6.639332958E0,4.287883106E-1,7.078528172E-1,1.532982654E0,1.742111031E0
6.649302958E0,3.333117940E-1,1.490927725E0,2.244897532E0,2.715423938E0
6.659272958E0,5.147969060E-1,2.839779219E0,2.647578317E-1,2.898181943E0
6.669242958E0,1.654292060E0,2.434616583E0,1.304455340E-1,2.946363210E0
6.679212958E0,1.433471230E0,1.753425023E0,-1.071690549E0,2.505565746E0
6.689182958E0,2.825416703E0,1.150287652E0,-6.071169859E0,6.794501062E0
6.699152958E0,2.685383197E0,8.647470617E-1,-1.315830981E1,1.345734697E1
6.709122958E0,2.465452460E0,-3.756003706E0,-1.113147074E1,1.200398519E1
6.719092958E0,7.864410035E-2,-1.131785424E1,1.650451462E1,2.001247142E1
6.729061958E0,1.774175330E0,-6.144019734E0,2.838629072E1,2.909773492E1
6.739031958E0,2.421234061E0,7.963415968E0,7.094941306E0,1.093693560E1
6.749001958E0,1.121053620E0,8.141204068E0,-7.944717742E0,1.143042015E1
6.758971958E0,1.262682977E0,-3.282818948E0,-5.357478597E0,6.408888006E0
6.768941958E0,-5.683570359E-2,-6.265569314E0,-5.398779820E0,8.270877383E0
6.778911958E0,1.373342849E0,-5.563599381E-1,-6.562967473E0,6.728160894E0
6.788881958E0,-1.990436939E0,2.315450913E0,-6.814394823E0,7.467203556E0
6.798851958E0,-2.642554389E0,-3.952214921E-1,-6.894705745E0,7.394339797E0
6.808821958E0,-3.357292595E0,-3.651784396E0,-5.114601631E0,7.125032820E0
6.818790958E0,-2.686260572E0,-2.519657611E0,1.128910232E-1,3.684754363E0
6.828760958E0,-1.199877011E0,-1.909499780E0,7.866185542E0,8.183078225E0
6.838730958E0,-2.235665363E-1,-5.134999058E0,2.157152226E1,2.217540912E1
6.848700958E0,8.206760126E-1,-1.094721269E0,1.395800777E1,1.402490302E1
6.858670958E0,-3.391687379E0,6.573696529E0,3.164930602E0,8.045732723E0
6.868640958E0,-7.843709430E-1,4.624635073E0,-2.034800642E0,5.113012907E0
6.878610958E0,2.049667260E-1,-4.922361553E0,-9.939348596E-1,5.025889087E0
6.888580958E0,-2.368706695E-1,-4.678097042E0,-5.841533328E0,7.487603841E0
6.898550958E0,2.388858028E0,-1.313662073E0,-7.937187697E0,8.392335745E0
6.908519958E0,-2.251302280E-2,1.925027646E0,-6.436790407E0,6.718519853E0
6.918489958E0,2.631152026E-1,5.934845535E0,-4.828341833E0,7.655357992E0
6.928459958E0,5.598644668E-1,9.237844101E0,-9.646812397E-1,9.304935344E0
6.938429958E0,-6.475813262E-1,1.629395346E0,4.525006412E0,4.852831523E0
6.948399958E0,-1.896413419E0,-9.115088825E0,6.619100744E0,1.142338491E1
6.958369958E0,-1.322289348E0,-8.215480664E0,2.108311837E0,8.584145296E0
6.968339958E0,-1.139259730E0,4.704842207E-1,-4.678221003E0,4.837873489E0
6.978309958E0,-4.416551817E-1,3.120371603E0,-5.624768858E0,6.447464846E0
6.988279958E0,1.374851577E0,-1.229180332E0,-9.743057567E-1,2.085754745E0
6.998248958E0,1.281968849E0,-4.048646909E0,1.669079522E0,4.562982837E0
7.008218958E0,1.713789964E0,-8.160616824E-1,2.400766175E0,3.060508281E0
7.018188958E0,1.796319612E0,2.175373261E0,1.617234600E0,3.251839591E0
7.028158958E0,1.935504979E0,2.627884018E0,5.160828549E-1,3.304284408E0
7.038128958E0,2.035198398E0,6.558846356E0,-3.287371298E0,7.613626474E0
7.048098958E0,1.845723176E0,8.107681981E0,-3.297770571E0,8.945193787E0
7.058068958E0,1.278218299E0,2.843359177E0,1.519825834E0,3.468198955E0
7.068038958E0,-1.190973309E-1,-9.376245942E0,6.778321595E0,1.157038529E1
7.078008958E0,-1.470743136E0,-9.311776296E0,3.349213205E0,1.000447361E1
7.087977958E0,-1.107146749E0,-1.253870200E0,-3.634858460E0,4.001269852E0
7.097947958E0,7.352361321E-1,2.987191619E0,-4.430784379E0,5.394046361E0
7.107917958E0,5.260527230E-1,3.922733259E-1,-1.594335149E0,1.724098140E0
7.117887958E0,6.541027989E-1,-1.015612827E0,1.923822243E0,2.271654002E0
7.127857958E0,1.177139894E0,6.958309418E-1,2.016094814E0,2.436078268E0
7.137827958E0,2.224610910E0,2.221921190E0,1.556513604E0,3.508356036E0
7.147797958E0,1.993361717E0,6.417211005E-1,-6.148113370E-2,2.095012371E0
7.157767958E0,3.557976638E-1,-1.546254956E0,5.777984619E-2,1.587713727E0
7.167737958E0,5.424066543E-1,-1.942001821E0,-3.912997645E-1,2.053945364E0
7.177706958E0,-1.635283493E-2,-1.673757002E0,4.282231772E0,4.597742801E0
7.187676958E0,9.115356043E-2,-2.635544747E-1,7.098917997E0,7.104393476E0
7.197646958E0,3.707626621E-1,1.245728830E0,3.530862222E0,3.762484990E0
7.207616958E0,1.407318096E0,1.849860519E0,-4.002903848E0,4.628797617E0
7.217586958E0,2.019855743E0,6.503735179E-1,-5.554733248E0,5.946247925E0
7.227556958E0,1.441417303E0,-1.223227867E0,-5.070418316E0,5.411387267E0
7.237526958E0,1.249392695E0,-1.631456782E0,-3.937270607E0,4.441253558E0
7.247496958E0,1.118387363E0,-1.605525550E0,-2.845190817E-1,1.977233849E0
7.257466958E0,1.063626873E0,-5.859810555E-1,1.902320276E0,2.256878011E0
7.267435958E0,1.261556950E0,6.828553855E-2,1.257203405E0,1.782343753E0
7.277405958E0,1.277648780E0,-8.828155428E-2,-7.401575142E-1,1.479193423E0
7.287375958E0,1.939116220E0,-7.286154029E-1,-2.547665774E0,3.283542753E0
7.297345958E0,1.937295689E0,-1.023409212E0,-3.545934005E0,4.168228517E0
7.307315958E0,1.641208915E0,-1.630024799E0,-3.723389398E0,4.383397787E0
7.317285958E0,8.385466386E-1,-1.094961590E0,-4.039957654E0,4.268882663E0
7.327255958E0,1.218370365E0,-2.114320436E0,-1.843207265E0,3.058135097E0
7.337225958E0,9.115759501E-1,-1.797695170E0,-6.607353687E-4,2.015608859E0
7.347195958E0,9.618443900E-1,-1.410659487E0,1.875849931E0,2.536516861E0
7.357164958E0,4.471014246E-1,-2.486374967E0,5.192826267E0,5.774721188E0
7.367134958E0,4.613657802E-1,-2.616124682E0,9.358241195E0,9.727982576E0
7.377104958E0,-2.123838095E-1,9.051510295E-1,8.177235780E0,8.229920430E0
7.387074958E0,1.272281913E0,3.186899761E0,3.428604945E0,4.850810574E0
7.397044958E0,4.141463563E0,1.169717657E0,-4.140618056E-1,4.323355991E0
7.407014958E0,3.684762692E0,-1.072318247E0,-2.917819667E0,4.820893499E0
7.416984958E0,2.613215985E0,-3.726101337E0,-5.051004390E0,6.798924496E0
7.426954958E0,1.719753978E0,-1.924392054E0,-5.334810696E0,5.926301012E0
7.436924958E0,1.380514898E0,-4.743758351E-2,-1.998391199E-1,1.395710350E0
7.446893958E0,1.016326480E0,-7.144402903E-1,7.176584224E0,7.283316934E0
7.456863958E0,1.012283715E0,3.113656953E-1,9.501782738E0,9.560624567E0
7.466833958E0,1.186408461E0,2.616575502E0,4.388623030E0,5.245383160E0
7.476803958E0,2.481087037E0,3.129364621E0,1.248888665E0,4.184308630E0
7.486773958E0,2.971257371E0,1.929526201E0,-7.575132197E-1,3.622881175E0
7.496743958E0,1.763552693E0,7.068821794E-1,-2.957276094E0,3.515008167E0
7.506713958E0,1.493530028E0,3.559001362E-1,-4.590205205E0,4.840173621E0
7.516683958E0,5.440221669E-1,9.974782723E-1,-3.216330552E0,3.411114955E0
7.526653958E0,2.422040977E-1,2.292552924E-1,6.098973954E0,6.108085143E0
7.536622958E0,-1.710835366E-1,3.674480948E-1,1.464545088E1,1.465105863E1
7.546592958E0,-8.779118485E-1,5.378886423E0,3.863790987E0,6.680720706E0
7.556562958E0,-1.743396317E-1,8.067113999E0,-3.658840815E0,8.859787734E0
7.566532958E0,4.394120582E0,8.289525710E0,-1.220913363E1,1.539764515E1
7.576502958E0,1.334900622E0,2.846553511E0,-1.348102466E1,1.384279063E1
7.586472958E0,1.103944521E0,-3.440649917E0,-1.200175043E1,1.253390517E1
7.596442958E0,-1.946476110E0,-7.915845945E0,-7.902976808E0,1.135369670E1
7.606412958E0,-2.011394530E0,-6.995164418E0,3.725824179E0,8.176784148E0
7.616382958E0,4.187186743E-1,-5.329473943E0,1.362478547E1,1.463603078E1
7.626351958E0,1.545797704E0,-2.547960766E0,6.858139012E0,7.477677803E0
7.636321958E0,3.197690944E-1,1.914527509E0,-3.873252366E0,4.332407154E0
7.646291958E0,7.515804885E-1,3.063801838E0,-3.813255256E0,4.949007030E0
7.656261958E0,8.766328432E-1,-1.365851104E-2,1.026440116E0,1.349907778E0
7.666231958E0,1.308801283E-1,-5.570123119E0,7.969577179E0,9.724071245E0
7.676201958E0,-6.690857774E-1,-5.418207194E0,8.092763395E0,9.762042017E0
7.686171958E0,-1.194633740E0,-3.939441678E-1,4.216312602E0,4.399958379E0
7.696141958E0,1.106843936E0,8.900219437E-1,5.670957769E0,5.846110209E0
7.706111958E0,9.426062465E-1,-1.995223762E0,4.274643840E0,4.810613720E0
7.716080958E0,4.027857426E0,2.022573821E0,-2.767615222E0,5.289057981E0
7.726050958E0,3.755906642E0,3.363880361E0,-2.333812632E0,5.556006406E0
7.736020958E0,-6.015850083E-1,-4.109609102E0,5.232235916E0,6.680350602E0
7.745990958E0,-5.634459595E-1,-7.931529347E0,1.144846818E1,1.393894016E1
7.755960958E0,-2.767071139E0,-3.382831771E0,5.611466442E0,7.112579639E0
7.765930958E0,-1.876992331E0,-9.219252294E-1,7.819680297E-1,2.232603937E0
7.775900958E0,-1.513598549E0,-2.636813593E-1,-1.466406257E0,2.123877524E0
7.785870958E0,-2.229922228E0,-1.871571816E0,-2.685775838E0,3.960899652E0
7.795840958E0,-1.164022908E0,-1.315710353E0,-4.608122243E0,4.931615726E0
7.805810958E0,-1.425942940E0,1.494780163E0,-3.392168021E0,3.971710574E0
7.815779958E0,-1.476695456E0,4.163256429E0,-3.234059894E0,5.474712500E0
7.825749958E0,-4.960519020E-1,5.460615880E0,-4.805013782E0,7.290579587E0
7.835719958E0,-6.989668036E-1,2.074586851E0,-6.519552482E0,6.877283603E0
7.845689958E0,-4.176227599E-1,1.734234461E-1,-6.325876912E0,6.342018856E0
7.855659958E0,-8.940780111E-1,-4.492643827E-1,-2.183390670E0,2.401751193E0
7.865629958E0,-1.532953272E0,1.684290469E-1,4.545338935E0,4.799835425E0
7.875599958E0,-1.712569065E0,2.277153405E0,8.365108573E-1,2.969523673E0
7.885569958E0,-1.894166919E0,2.289783390E0,-5.696315973E0,6.424872914E0
7.895539958E0,-1.730278089E0,7.833813018E-1,-5.441764457E0,5.763709650E0
7.905508958E0,-2.535688337E0,-1.154559043E0,-1.424305719E0,3.129116282E0
7.915478958E0,-2.774037804E0,-2.397170137E0,2.789336459E0,4.606745954E0
7.925448958E0,-1.568321179E0,-2.282272350E0,2.502204257E0,3.732214428E0
7.935418958E0,-1.780363145E0,2.748484302E0,-1.043550823E0,3.436983737E0
7.945388958E0,-3.196416689E0,4.747663998E0,-1.212728314E0,5.850478874E0
7.955358958E0,-4.717494412E0,1.875673930E0,2.715873796E0,5.757506118E0
7.965328958E0,-4.990650600E0,-4.311687998E0,5.930465970E0,8.869479884E0
7.975298958E0,-4.055934294E0,-6.189902251E0,3.838606444E0,8.336689529E0
7.985268958E0,-2.787717365E0,-3.032294409E0,-2.575318426E-1,4.127044965E0
7.995237958E0,-2.617881186E0,-1.702598101E-1,-1.328023127E0,2.940397207E0
8.005207958E0,-1.972083699E0,-2.571519782E0,1.306055138E0,3.493938770E0
8.015177958E0,-1.258533647E0,-5.303328702E0,6.211159803E0,8.263637720E0
8.025147958E0,-9.566565210E-1,-4.232998216E0,4.924683482E0,6.563990630E0
8.035117958E0,-2.419274366E0,-2.344767683E0,3.172441936E0,4.627657267E0
8.045087958E0,-1.956111737E0,-1.908378869E0,1.887950159E0,3.321541636E0
8.055057958E0,-1.173427496E0,-1.823141375E0,3.779868239E-1,2.200829526E0
8.065027958E0,-1.924849891E0,-1.021569093E0,-4.876402438E-2,2.179685400E0
8.074997958E0,-1.293302215E0,-2.522898138E-2,-1.459128812E0,1.949954874E0
8.084966958E0,-1.332577524E0,-1.773489743E-2,-2.072002382E0,2.463589100E0
8.094936958E0,-1.161297667E0,-1.264127678E0,-3.638064489E0,4.022703604E0
8.104906958E0,-4.695495067E-1,-5.461492378E-1,-3.644575363E0,3.715061952E0
8.114876958E0,1.337988025E-1,5.743535748E-1,-2.242478539E0,2.318726837E0
8.124846958E0,-1.794737063E-1,1.222822655E0,1.080848458E0,1.641870715E0
8.134816958E0,4.099903163E-1,1.823935427E0,1.647640121E0,2.491896962E0
8.144786958E0,3.564708610E-1,2.528204486E0,4.899194884E-1,2.599790473E0
8.154756958E0,4.235671856E-2,2.979785828E0,-1.571142753E0,3.368888128E0
8.164726958E0,8.827760741E-1,1.470706007E0,-2.294284869E0,2.864613904E0
8.174695958E0,-1.104193320E-1,5.253594625E-1,-2.900107282E0,2.949375737E0
8.184665958E0,4.342069619E-1,2.913609087E-1,-2.890157660E0,2.937079870E0
8.194635958E0,1.770840589E-1,1.726179922E-1,-2.491828957E0,2.504070144E0
8.204605958E0,-7.061463073E-2,-4.362309390E-1,-3.677734923E-1,5.749271257E-1
8.214575958E0,-1.580385447E-2,-5.839579189E-1,1.130452142E0,1.272469512E0
8.224545958E0,-1.238478282E-1,5.859936270E-1,2.565746534E-1,6.515806690E-1
8.234515958E0,4.892205634E-1,9.562311360E-1,2.587344979E0,2.801440484E0
8.244485958E0,1.329906515E0,4.544549561E-1,3.098553595E0,3.402383727E0
8.254455958E0,1.484519323E0,-4.617081347E-1,1.462575161E0,2.134501844E0
8.264424958E0,1.846476151E0,-1.275028350E0,-3.781236488E-1,2.275554650E0
8.274394958E0,1.960142807E0,-2.224658272E0,-1.115915380E0,3.168048514E0
8.284364958E0,1.951447559E0,-2.037790615E0,-2.373780105E0,3.687217129E0
8.294334958E0,1.952630159E0,-1.475467979E0,-4.496055093E0,5.119011788E0
8.304304958E0,2.003077450E0,3.552358925E-2,-1.076453807E1,1.094937720E1
8.314274958E0,1.605245761E0,-1.210336803E0,-1.385890214E1,1.400396007E1
8.324244958E0,3.889860213E-1,-7.542145715E0,-5.363097187E0,9.262725492E0
8.334214958E0,-1.390323748E0,-6.278471196E0,1.428453500E1,1.566525266E1
8.344184958E0,7.940385101E-1,2.102489179E0,1.871920135E1,1.885363246E1
8.354153958E0,-9.509278576E-1,6.898787102E0,9.084302065E0,1.144648729E1
8.364123958E0,1.780010412E0,3.135170906E0,-2.074419036E0,4.159440829E0
8.374093958E0,1.996446708E0,-1.701126357E0,-2.667208005E0,3.740805913E0
8.384063958E0,-2.464616308E0,1.394887500E0,2.605115837E-1,2.843925275E0
8.394033958E0,-2.014822752E0,4.689355856E0,9.551339060E-1,5.192480125E0
8.404003958E0,9.186011604E-1,3.526194389E0,-4.311554974E0,5.645120128E0
8.413973958E0,2.989789719E-1,5.702356732E-1,-1.062240980E1,1.064190524E1
8.423943958E0,-1.005736880E0,-3.054076457E0,-2.951120145E0,4.364401424E0
8.433913958E0,5.215794934E-1,-3.361267240E0,8.272818460E0,8.944813464E0
8.443883958E0,2.356395748E0,-6.126507908E-1,9.925385445E0,1.021964863E1
8.453852250E0,1.967643908E0,1.362751788E0,7.748065354E0,8.109329918E0
8.463822250E0,2.123333918E0,-4.805110261E-1,6.516881474E0,6.870893822E0
8.473792250E0,1.965367002E0,-2.000596476E0,1.624035496E0,3.240763029E0
8.483762250E0,-1.151491448E-1,4.004635209E-1,-4.982360417E0,4.999754562E0
8.493732250E0,-9.074920719E-2,-1.336377337E0,-6.779962909E0,6.911008381E0
8.503702250E0,-2.065700253E0,-7.532651006E0,-5.105040264E0,9.331097728E0
8.513672250E0,-1.833374733E0,-1.131255667E1,-5.108381363E0,1.254714156E1
8.523642250E0,-2.161565353E0,-4.401778973E0,-5.922060598E0,7.688876682E0
8.533612250E0,-1.849144820E0,5.420250796E0,6.850120726E0,8.928751828E0
8.543581250E0,-7.963121268E-1,9.889579436E0,1.764461409E1,2.024278392E1
8.553551250E0,2.480654636E0,6.873741138E0,1.382567826E1,1.563813749E1
8.563521250E0,3.193884845E0,3.559944811E0,1.803454385E0,5.111414205E0
8.573491250E0,2.288554306E0,-9.682974502E-1,-4.524493611E0,5.161988299E0
8.583461250E0,5.650098704E-1,-6.531116520E0,-8.377125186E0,1.063724332E1
8.593431250E0,1.333399204E0,-6.499382511E0,-9.074647143E0,1.124140326E1
8.603401250E0,3.039511700E-1,-4.103581207E0,-2.114268980E0,4.626218581E0
8.613371250E0,-5.836969138E-1,1.461113649E0,1.162359229E0,1.956178458E0
8.623340250E0,-1.177816636E0,3.787271984E0,6.914332509E-3,3.966198295E0
8.633310250E0,-2.384334476E0,2.544975762E0,1.007434443E1,1.066088028E1
8.643280250E0,-1.014930969E0,1.506469332E0,1.337572332E1,1.349850025E1
8.653250250E0,-7.954044928E-1,4.874402398E0,5.786589966E0,7.607699421E0
8.663220250E0,2.787914782E-1,5.511921689E0,1.333817133E0,5.677858182E0
8.673190250E0,1.032759166E-1,3.901628027E0,-3.421515781E0,5.190388946E0
8.683160250E0,-3.488716368E-1,-2.812915649E0,-5.378029221E0,6.079260166E0
8.693130250E0,6.494174250E-1,-2.826465109E0,-9.137564353E0,9.586747640E0
8.703100250E0,4.931462013E-1,2.200246731E0,-6.045204713E0,6.452036801E0
8.713070250E0,6.403417423E-1,3.857069905E0,-2.490243777E0,4.635551732E0
8.723039250E0,3.310795829E-1,2.332087119E0,-2.242256929E0,3.252070134E0
8.733009250E0,8.352093402E-2,4.783941294E0,-2.684276027E0,5.486201586E0
8.742979250E0,1.491418014E0,1.043178005E1,-2.268084081E0,1.077917288E1
8.752949250E0,1.623557486E0,8.338060523E0,1.874830177E0,8.699090780E0
8.762919250E0,5.180653899E-1,-4.825695384E0,4.493494597E0,6.614168230E0
8.772889250E0,3.819065415E-1,-8.355980485E0,2.470384294E-1,8.368350522E0
8.782859250E0,-4.477879608E-1,-2.376685294E0,-3.727395911E0,4.443267640E0
8.792829250E0,-2.928598059E-1,2.570848230E0,-5.502360322E0,6.080377998E0
8.802799250E0,8.027470607E-1,3.946849808E0,-3.875929222E0,5.589709615E0
8.812768250E0,-4.174571376E-1,-8.386488917E-1,-2.446976135E0,2.620170726E0
8.822738250E0,-2.552304333E-1,-6.966752797E-2,-3.424897810E0,3.435101330E0
8.832708250E0,-7.581105859E-1,9.629767764E-1,-5.538961553E0,5.672931431E0
8.842678250E0,-1.475092880E0,7.003824145E-2,4.201433192E0,4.453408271E0
8.852648250E0,-2.012394550E0,-5.595991201E0,1.244332047E1,1.379134053E1
8.862618250E0,-3.000388492E0,-8.385255740E0,7.345478709E0,1.154430173E1
8.872588250E0,-2.150975315E0,-6.096571333E0,-1.381730388E0,6.610904302E0
8.882558250E0,-1.609006982E0,-2.033381522E0,-3.709064305E0,4.525560949E0
8.892528250E0,-1.309481460E0,-4.695312415E0,-3.009637325E0,5.728753547E0
8.902497250E0,-1.815692753E0,-4.061576857E0,-3.189246249E0,5.473978295E0
8.912467250E0,-2.088102398E0,-3.025425100E0,-3.975043620E0,5.414271921E0
8.922437250E0,-2.998905346E0,-3.252673920E0,1.958188668E0,4.838163264E0
8.932407250E0,-2.127909072E0,-3.153744294E0,1.210237400E1,1.268627434E1
8.942377250E0,4.524679625E-1,1.085345551E0,9.044512932E0,9.120631360E0
8.952347250E0,-1.226757538E0,3.685296835E0,4.903763899E0,6.255657215E0
8.962317250E0,-1.865236212E0,2.598759036E0,1.071525657E0,3.373547375E0
8.972287250E0,-8.409543758E-1,6.868171665E-1,-2.632135236E0,2.847289585E0
8.982257250E0,-2.943594340E-1,-5.229331604E-1,-6.617754714E0,6.644906623E0
8.992226250E0,5.068536462E-2,-5.841669568E-1,-7.751798801E0,7.773943960E0
9.002196250E0,1.598888047E-1,-2.689114013E-1,-6.885864755E0,6.892968243E0
9.012166250E0,7.255080463E-1,-7.771817914E-1,-2.124694566E0,2.375857836E0
9.022136250E0,1.372661101E-1,-1.386171933E0,6.337498838E-1,1.530344251E0
9.032106250E0,2.920828754E-1,-9.180192894E-1,2.848951746E0,3.007423794E0
9.042076250E0,1.549751153E-1,2.654279226E0,-2.523155415E-1,2.670744958E0
9.052046250E0,6.059851477E-1,4.664508990E0,-1.194792565E0,4.853080608E0
9.062016250E0,-4.879163054E-1,3.792694107E0,2.930390596E-2,3.824061928E0
9.071986250E0,-1.333828828E0,-1.814991526E0,4.830588334E0,5.329904054E0
9.081956250E0,-8.699357347E-1,-5.012544329E0,1.377896719E1,1.468816958E1
9.091925250E0,-1.143708584E0,-9.263267210E-1,1.238262988E1,1.246979042E1
9.101895250E0,-1.318851770E0,4.413659931E0,2.805104645E0,5.393364075E0
9.111865250E0,1.177724981E-1,2.318973568E0,-6.028841865E0,6.460529623E0
9.121835250E0,5.318118284E-1,8.020719266E-1,-9.685874721E0,9.733566269E0
9.131805250E0,1.402908930E-1,1.665292865E0,-8.941181522E0,9.096021596E0
9.141775250E0,1.935735945E0,-1.181956172E-2,-3.534628998E0,4.029989516E0
9.151745250E0,2.805165749E0,1.384573889E-1,-1.338410121E0,3.111184176E0
9.161715250E0,4.512064769E0,-3.870808522E0,-1.419057843E0,6.111923777E0
9.171685250E0,5.118228659E0,-5.817301882E0,-1.125502474E0,7.829688475E0
9.181654250E0,3.903084276E0,-2.978478390E0,-2.066862094E-1,4.914073623E0
9.191624250E0,2.104622682E0,-1.322488153E-1,2.156103469E0,3.015909242E0
9.201594250E0,5.114208698E-1,1.750856633E0,3.268200032E0,3.742750554E0
9.211564250E0,-4.409038145E-1,2.719110230E0,2.251511902E0,3.557704662E0
9.221534250E0,-1.143755143E0,2.129805032E0,4.909906983E-2,2.417985943E0
9.231504250E0,-7.610582404E-1,9.486157224E-1,-1.698960548E0,2.089389475E0
9.241474250E0,4.121680386E-1,2.370029993E0,-4.590383545E0,5.182523107E0
9.251444250E0,6.430196940E-1,3.638868481E-2,-3.355336409E0,3.416589071E0
9.261414250E0,1.564564197E0,-2.120413819E-1,-1.489584035E-1,1.585878709E0
9.271383250E0,1.130405218E0,2.277621767E0,1.197486961E0,2.810578569E0
9.281353250E0,1.929950709E0,4.571987035E0,1.172006550E0,5.099154297E0
9.291323250E0,1.808966116E0,-1.142013842E-1,3.702613657E0,4.122468709E0
9.301293250E0,1.174170604E0,-6.264931383E0,3.015040153E0,7.051135296E0
9.311263250E0,6.838177641E-1,-6.073407004E0,-7.467455721E-1,6.157232196E0
9.321233250E0,7.906709524E-1,-2.763996088E0,-1.952786425E0,3.475371887E0
9.331203250E0,-4.722214285E-1,-9.802254778E-1,1.888251291E0,2.179295300E0
9.341173250E0,-8.774507225E-1,3.422331467E-1,2.026737331E0,2.234884227E0
9.351143250E0,-1.475148721E0,-1.711209003E0,1.248667055E-1,2.262717768E0
9.361113250E0,-1.280895446E0,-1.068143920E0,-1.624845920E0,2.328464911E0
9.371082250E0,-1.558565684E0,1.888057163E-1,-6.866204077E-1,1.713540830E0
9.381052250E0,-9.371081096E-1,5.894852918E-1,-8.493560207E-1,1.395374562E0
9.391022250E0,1.870142756E-1,-7.693982702E-1,-1.077909063E0,1.337473732E0
9.400992250E0,8.665276120E-1,1.599798203E-2,-3.709613358E0,3.809508801E0
9.410962250E0,8.226497403E-1,7.109237748E-1,-4.951821579E0,5.069783246E0
9.420932250E0,4.380137185E-1,-1.230064139E0,-4.085203993E-1,1.368138414E0
9.430902250E0,9.292053418E-2,-3.423618439E0,6.695959470E0,7.521015268E0
9.440872250E0,2.611620133E-1,-1.697449043E0,8.680875760E0,8.849132320E0
9.450842875E0,-1.324317601E-2,3.009617153E0,4.882757192E0,5.735790144E0
9.460811875E0,-1.283996809E0,4.828792654E0,1.578830087E-1,4.999081250E0
9.470781875E0,-2.020160383E0,2.672930382E0,-4.081599770E0,5.280630784E0
9.480751875E0,-1.065395144E0,-5.012350202E-2,-8.941909500E0,9.005294259E0
9.490721875E0,-4.978564990E-1,-2.523683126E0,-8.401177123E0,8.786160405E0
9.500691875E0,1.669684124E-1,-4.420027256E0,-8.115561104E-1,4.497014867E0
9.510661875E0,-1.927220717E-1,-5.001472042E0,1.435523018E1,1.520277928E1
9.520631875E0,5.315972722E-1,-4.838161647E-2,1.429191653E1,1.430188150E1
9.530601875E0,1.633591820E-1,4.314456070E0,4.397489748E0,6.162721273E0
9.540571875E0,-3.163763206E-1,3.684650133E0,-2.079701411E0,4.242864426E0
9.550540875E0,-8.783374527E-1,4.682225177E-1,-4.417609432E0,4.528353134E0
9.560510875E0,-6.530582669E-1,-2.146129873E-1,-4.980270038E0,5.027487790E0
9.570480875E0,6.306450123E-1,5.759437251E-1,-1.390336320E0,1.631704443E0
9.580450875E0,8.717649630E-1,1.709348711E0,-1.027841109E0,2.176764689E0
9.590420875E0,9.314727093E-1,2.595696557E0,-5.163836356E0,5.854100097E0
9.600390875E0,9.922792936E-1,6.147695294E-1,-1.014436484E1,1.021130245E1
9.610360875E0,1.196133843E-1,-6.339133134E-1,-1.084990158E1,1.086906241E1
9.620330875E0,-8.099252488E-3,-1.644053147E0,-2.453830826E-1,1.662284333E0
9.630300875E0,2.070221320E-1,2.651368482E0,1.675061224E1,1.696041342E1
9.640270875E0,1.901853084E0,8.752524617E0,1.403277261E1,1.664759560E1
9.650239875E0,2.737933586E0,7.131820865E0,1.777119695E0,7.843296729E0
9.660209875E0,-6.076577072E-1,-2.793736489E0,-2.708585241E0,3.938355681E0
9.670179875E0,-1.944256507E0,-6.587992972E0,3.834066081E-1,6.879591949E0
9.680149875E0,-4.512269641E-1,-1.585175486E0,1.446442108E0,2.192847889E0
9.690119875E0,1.053585449E0,7.723784791E0,-1.776323889E0,7.995137295E0
9.700089875E0,4.106349864E0,1.191038535E1,-4.181515821E0,1.327420291E1
9.710059875E0,1.773180133E0,3.768347178E0,-9.114376634E-1,4.263253083E0
9.720029875E0,9.028296849E-1,-4.027256040E0,-1.950443446E0,4.564879219E0
9.729999875E0,8.736338063E-1,-7.222780151E0,-2.264566981E0,7.619714742E0
9.739969875E0,-1.788603700E-1,-4.305937261E0,-1.166486194E0,4.464725834E0
9.749938875E0,6.766925664E-1,-1.907221120E0,6.175893492E-1,2.115850145E0
9.759908875E0,5.321370798E-1,-2.338426670E0,8.629695082E-1,2.548749798E0
9.769878875E0,-5.211630620E-2,-1.254543799E0,1.314265798E0,1.817660816E0
9.779848875E0,-8.477022819E-1,-2.209644376E0,5.634587502E-1,2.432820008E0
9.789818875E0,-2.033671544E0,-7.127688053E0,6.668141341E-1,7.442069471E0
9.799788875E0,-2.023978907E0,-5.481989207E0,7.808155435E-1,5.895622885E0
9.809758875E0,-3.763864410E-1,1.079382561E0,2.929491879E0,3.144623370E0
9.819728875E0,-5.483412858E-1,8.564989793E0,4.205550216E0,9.557530065E0
9.829698875E0,-4.247527816E-1,6.699258469E0,3.837299591E0,7.732098493E0
9.839668875E0,-1.012559119E0,-2.122552438E0,-5.147654772E-1,2.407382046E0
9.849637875E0,-1.309891935E0,-7.863675917E0,-5.944119219E0,9.944132396E0
9.859607875E0,1.024526651E-1,-4.723471144E0,-6.477610989E0,8.017550768E0
9.869577875E0,-2.684504946E-1,-2.670511097E-2,-9.087222165E-1,9.479213563E-1
9.879547875E0,-1.175305037E0,1.324852182E0,2.973736591E0,3.461168090E0
9.889517875E0,-1.688672226E0,-4.141001341E0,3.054751518E0,5.415811373E0
9.899487875E0,-1.333386047E0,-4.712847337E0,-5.415381235E-1,4.927688293E0
9.909457875E0,-7.506859376E-1,-7.998052534E-1,-1.487770813E0,1.848426307E0
9.919427875E0,-1.340809088E0,9.570351282E-1,3.823254579E0,4.163047060E0
9.929397875E0,-2.955547949E0,-8.845436874E-1,7.017658072E0,7.665846726E0
9.939367875E0,-2.848334280E0,2.493819934E-1,3.630516903E0,4.621239285E0
9.949336875E0,-2.214221284E0,2.500476112E0,-7.937145013E-1,3.432949081E0
9.959306875E0,-1.424370477E0,2.973094859E0,-2.686228997E0,4.252522842E0
9.969276875E0,-9.933431945E-1,-1.117551723E0,-4.959632875E0,5.180116872E0
9.979246875E0,-1.129606196E0,-2.194495118E0,-5.455130607E0,5.987509409E0
9.989216875E0,-1.066052663E0,1.635331147E0,-2.868933436E0,3.470094423E0
9.999186875E0,-1.059581404E0,6.285832840E0,1.691384895E0,6.595088332E0
1.000915688E1,1.717834483E-1,5.841476610E0,3.891165896E0,7.020935164E0
1.001912688E1,9.592736616E-1,-1.501950896E-1,2.181281580E0,2.387625149E0
1.002909688E1,1.105736327E0,-3.744747523E0,-1.835438070E0,4.314466334E0
1.003906587E1,8.389875917E-1,-1.223914037E0,-2.524228379E0,2.928070126E0
1.004903588E1,3.408124926E-1,2.914872378E0,-8.844931090E-1,3.065120258E0
1.005900588E1,-3.981680685E-2,2.251685857E0,2.542652371E0,3.396579994E0
1.006897588E1,-1.057581236E-1,1.246864944E0,4.102015323E0,4.288634594E0
1.007894588E1,1.973005878E-1,1.494843898E0,3.061952364E0,3.413068719E0
1.008891588E1,1.482454378E0,2.735631830E0,4.101494336E-1,3.138403264E0
1.009888588E1,1.793614252E0,2.776715829E0,-2.500396882E0,4.144778335E0
1.010885588E1,1.685368988E0,2.053092779E0,-5.868407716E0,6.441573387E0
1.011882588E1,1.208287427E0,2.114467201E-1,-6.317706013E0,6.435687802E0
1.012879588E1,2.746524352E-1,-1.744393121E0,-3.562870465E0,3.976479256E0
1.013876488E1,5.586094533E-2,-4.252058093E0,-8.399800104E-1,4.334591663E0
1.014873488E1,-6.841237745E-2,-5.466398191E0,1.141191139E0,5.584667103E0
1.015870488E1,-1.791416393E-1,-4.014411753E0,3.847102448E0,5.563073854E0
1.016867488E1,-8.427516637E-1,-5.109074843E-1,5.312972515E0,5.403603776E0
1.017864488E1,-9.292539833E-1,1.756957911E0,5.764450069E0,6.097482978E0
1.018861488E1,-1.790566537E-1,9.330080420E-1,4.442399873E0,4.542849537E0
1.019858488E1,4.791398906E-1,-1.768239529E0,2.357606707E0,2.985725280E0
1.020855488E1,4.424313265E-1,-2.518503955E0,1.378279361E0,2.904868611E0
1.021852488E1,6.437376590E-1,-1.504466660E0,7.077709562E-1,1.782907129E0
1.022849388E1,4.926137758E-1,-1.603319688E0,-1.131202340E-1,1.681100396E0
1.023846388E1,2.401769776E-1,-1.645678380E0,-1.542511277E0,2.268321703E0
1.024843388E1,6.705566445E-1,-6.454332054E-2,-3.923361250E0,3.980775748E0
1.025840388E1,5.069260786E-1,6.084337789E-1,-4.377484669E0,4.448543328E0
1.026837388E1,-2.282416959E-1,-1.087157604E0,-2.440782765E0,2.681683507E0
1.027834388E1,-5.932409585E-1,-5.142233233E0,1.251795316E-1,5.177853549E0
1.028831388E1,-2.927493301E-1,-5.679978853E0,2.379764730E0,6.165317681E0
1.029828388E1,3.687383560E-1,-2.329562583E0,4.441407015E0,5.028809609E0
1.030825388E1,5.973230002E-3,6.517286101E-1,5.498499990E0,5.536992686E0
1.031822288E1,5.617351098E-2,1.220513589E0,3.274527304E0,3.495044771E0
1.032819288E1,3.077290195E-1,1.097954780E0,-1.484585835E0,1.871950039E0
1.033816288E1,4.683548109E-1,1.614483485E0,-6.411173755E0,6.627900276E0
1.034813288E1,8.815174609E-1,2.542840651E0,-8.449583298E0,8.867839056E0
1.035810288E1,6.814641868E-1,1.635448969E0,-7.636864761E0,7.839693243E0
1.036807288E1,6.090982419E-1,-5.170561239E-1,-4.455628613E0,4.526695709E0
1.037804288E1,4.783544268E-1,-1.829677100E0,-1.038526896E0,2.157563293E0
1.038801288E1,4.376345997E-1,3.642289102E-1,4.237535655E-2,5.709486954E-1
1.039798288E1,1.922077909E-1,1.875897878E0,-5.787030262E-1,1.972519677E0
1.040795288E1,-3.252606531E-1,6.349930018E-1,8.993725187E-1,1.147990214E0
1.041792188E1,-8.440074264E-1,-1.242846445E0,6.173924149E0,6.354081776E0
1.042789188E1,2.014919451E-2,3.788411021E-2,7.946590020E0,7.946705867E0
1.043786188E1,5.852408711E-2,3.396811879E0,3.807870555E0,5.103100447E0
1.044783188E1,-5.479115520E-1,3.171568362E0,1.949192727E0,3.762765635E0
1.045780146E1,-1.047908607E0,1.741833210E0,-5.064039588E-2,2.033386296E0
1.046777146E1,-6.411881268E-1,2.292687995E0,-3.379252691E0,4.133629060E0
1.047774146E1,-2.550012773E-1,3.925340240E0,-3.367979844E0,5.178475633E0
1.048771146E1,-5.281961661E-2,2.219008107E0,-1.016246665E0,2.441217765E0
1.049768146E1,5.487246073E-1,-1.205266097E-1,-5.637838554E-1,7.959130568E-1
1.050765046E1,4.378005510E-1,-2.955963102E0,1.847076952E-2,2.988265107E0
1.051762046E1,1.921321973E-2,-3.205153599E0,1.862322398E0,3.706969578E0
1.052759046E1,-9.889772978E-1,-2.672497396E0,2.720272656E0,3.939568726E0
1.053756046E1,-1.843168381E0,-2.217534609E0,1.580308263E0,3.288176338E0
1.054753046E1,-1.985094923E0,-2.807337990E0,-5.062694728E-2,3.438649666E0
1.055750046E1,-2.003091191E0,-2.175080315E0,-8.689330834E-1,3.081946366E0
1.056747046E1,-1.597529775E0,-2.064657694E-1,-1.108263128E0,1.955243376E0
1.057744046E1,-1.169432094E0,-7.753144830E-2,-8.281113321E-1,1.435043876E0
1.058741046E1,-9.559187485E-1,-9.391204289E-1,-5.348068088E-1,1.442825754E0
1.059737946E1,-6.475981370E-2,8.263402104E-2,-8.674139768E-1,8.737443688E-1
1.060734946E1,-1.179391072E-1,3.563280939E0,-6.332575482E-1,3.621035185E0
1.061731946E1,-2.944964781E-1,4.602465939E0,9.218778670E-1,4.703113830E0
1.062728946E1,-8.766115008E-1,3.349574563E-1,6.582619965E-1,1.146277923E0
1.063725946E1,-6.593128873E-1,-4.196522700E0,-1.275482971E0,4.435352643E0
1.064722946E1,4.466584614E-1,-4.849439172E0,-2.541173610E0,5.493098159E0
1.065719946E1,1.426317746E0,-2.967594968E0,5.622770280E-1,3.340233175E0
1.066716946E1,1.728795381E0,-7.583525875E-1,2.039018823E0,2.778746098E0
1.067713946E1,2.764225591E0,-3.089668751E-2,1.910333886E0,3.360248991E0
1.068710846E1,2.028443549E0,-2.770469248E-1,1.868073134E0,2.771468106E0
1.069707846E1,3.129315212E0,-1.572284129E0,2.869023483E0,4.527249366E0
1.070704846E1,2.985473122E0,-1.777268214E0,1.417037630E-1,3.477328288E0
1.071701846E1,3.312006787E0,-2.218648796E0,1.921982709E0,4.425585721E0
1.072698846E1,2.142690541E0,-1.789362010E0,1.361148189E0,3.105746859E0
1.073695846E1,1.009686966E0,6.842552090E-1,2.054957163E-1,1.236891851E0
1.074692846E1,2.174954892E0,1.097510684E-1,5.450891376E-2,2.178404302E0
1.075689846E1,2.062573600E0,-1.713882642E0,-2.689701658E-1,2.695171334E0
1.076686846E1,1.609849566E0,-2.081585383E-1,8.229692906E-1,1.819951663E0
1.077683746E1,1.025117768E0,1.119645318E-1,2.299496493E0,2.520136230E0
1.078680746E1,9.268675885E-1,1.600404851E0,9.298879677E-1,2.070041267E0
1.079677746E1,1.059107560E0,1.537727669E0,1.310665083E0,2.281262407E0
1.080674746E1,1.187153616E0,1.009117447E0,-7.049034816E-1,1.710128840E0
1.081671746E1,2.198263941E0,1.031741202E-2,-3.553797340E-1,2.226828587E0
1.082668746E1,1.241832830E0,1.432829205E0,-1.789212906E0,2.606996573E0
1.083665746E1,1.572477234E0,1.489853884E0,-2.519563470E0,3.322732208E0
1.084662746E1,1.465537360E0,2.024644905E0,-3.086118321E0,3.971286069E0
1.085659746E1,2.014620585E0,6.181039041E-1,-7.867007661E-1,2.249365829E0
1.086656646E1,1.664438587E0,1.298563393E0,-9.340786672E-1,2.308489907E0
1.087653646E1,1.525368556E0,1.523658392E0,1.187417471E-1,2.159255364E0
1.088650646E1,1.440061626E0,1.263042435E0,1.652806721E0,2.529984928E0
1.089647646E1,1.844061397E0,1.043362251E0,8.809795171E-1,2.294622438E0
1.090644646E1,2.530362693E0,3.509814584E-1,3.554060465E-1,2.579193052E0
1.091641646E1,3.210545609E0,-1.137380801E0,3.980936444E-1,3.429244340E0
1.092638646E1,1.922110178E0,-8.760669789E-1,-6.671450865E-1,2.215193773E0
1.093635646E1,1.273922788E0,-1.726302713E0,-1.459623486E0,2.594899044E0
1.094632646E1,1.157216529E0,-2.944027765E0,-3.787469620E-1,3.185890588E0
1.095629546E1,4.292967260E-2,-1.538601828E0,-3.511896193E-1,1.578756692E0
1.096626546E1,6.894957029E-1,-2.796468893E-1,1.623574151E0,1.785945052E0
1.097623546E1,-6.533574982E-1,-7.598211157E-1,2.914252866E0,3.081732291E0
1.098620546E1,-7.265187375E-1,-1.865247175E0,2.916570702E0,3.537422955E0
1.099617546E1,5.337152068E-1,-5.989899409E-1,3.354664564E-1,8.695853118E-1
1.100614546E1,1.439715179E0,-2.585028312E0,1.905749668E0,3.519521696E0
1.101611546E1,4.694328182E-1,-1.671275151E0,3.134057304E0,3.582714472E0
1.102608546E1,1.157302703E0,-9.682802010E-1,1.714848602E0,2.284211423E0
1.103605546E1,9.823737448E-1,-4.685523006E-1,7.766494024E-1,1.337080299E0
1.104602446E1,4.840867446E-1,1.594579563E-1,2.986658353E-1,5.907352176E-1
1.105599446E1,2.556938434E-1,1.860072389E-1,-6.885260153E-1,7.576583057E-1
1.106596446E1,1.818408785E-1,-5.571630532E-1,-8.179219741E-1,1.006227175E0
1.107593446E1,3.891592450E-2,-6.057990235E-1,-2.568816322E0,2.639568943E0
1.108590446E1,-4.050586284E-1,-6.660145274E-1,4.600624359E-1,9.051548420E-1
1.109587446E1,-9.408433110E-2,-2.221804538E-1,1.696221128E0,1.713295692E0
1.110584446E1,4.564888369E-1,-1.617486030E-2,1.904655070E0,1.958661435E0
1.111581446E1,2.199461596E-1,1.671362275E-1,1.977460506E0,1.996662436E0
1.112578446E1,7.535730004E-1,3.137905356E-1,-7.070687056E-2,8.193511022E-1
1.113575346E1,1.133189809E0,-1.312167817E-1,-1.282245861E0,1.716243407E0
1.114572346E1,8.205979523E-1,-3.181902730E-1,-2.633634462E0,2.776806894E0
1.115569346E1,8.680682802E-1,-2.817948639E-1,-4.006250795E0,4.108892346E0
1.116566346E1,1.213135426E0,1.414608112E-1,-3.689217101E0,3.886133238E0
1.117563346E1,3.528174841E-1,-2.115353054E-1,-1.229180624E0,1.296191487E0
1.118560346E1,3.599441437E-1,-1.657097700E0,1.578704372E0,2.316859959E0
1.119557346E1,6.616219528E-1,-3.186507413E-1,2.900175110E0,2.991704793E0
1.120554346E1,2.797415411E-1,1.915313374E0,2.435296907E0,3.110844206E0
1.121551346E1,7.858807672E-1,2.082082981E0,1.577542530E0,2.727878032E0
1.122548246E1,5.218336646E-2,8.120803133E-1,1.084426954E0,1.355794733E0
1.123545246E1,-6.806897230E-1,4.479791647E-1,2.558495986E-1,8.540976807E-1
1.124542246E1,-1.550634082E-1,8.971067226E-1,-1.850842559E0,2.062635041E0
1.125539246E1,-3.117553026E-1,1.807242503E0,-3.683145352E0,4.114471597E0
1.126536246E1,-8.216501588E-1,1.731862246E0,-4.036782031E0,4.468787866E0
1.127533246E1,-8.127770090E-1,-1.966527090E0,-1.312407553E-1,2.131914491E0
1.128530246E1,8.383566041E-2,-1.116311528E0,2.357245349E0,2.609556568E0
1.129527246E1,9.662866659E-1,1.419107544E-1,4.961246122E0,5.056462366E0
1.130524246E1,8.808271971E-1,-1.320505947E-1,5.181701354E0,5.257691778E0
1.131521146E1,3.599199143E-1,-5.148219028E-1,2.051848199E0,2.145848309E0
1.132518146E1,3.539162125E-1,-2.413136252E0,7.722400171E-1,2.558288080E0
1.133515146E1,-6.858409739E-1,-1.335120478E0,-7.410842979E-1,1.673956531E0
1.134512146E1,-4.674741106E-1,-5.499215689E-1,-1.455035176E0,1.624214623E0
1.135509146E1,-7.466990867E-1,-2.446065432E0,-2.830058223E-1,2.573108610E0
1.136506146E1,-1.611210652E0,-1.392862317E0,-6.630502814E-1,2.230627910E0
1.137503146E1,-1.459112732E0,-7.167385384E-1,1.943403983E-1,1.637220904E0
1.138500146E1,-1.792021909E0,1.342292965E0,1.628562410E0,2.768629345E0
1.139497146E1,-9.706625028E-1,1.283604169E-1,2.203560056E0,2.411294053E0
1.140494046E1,-6.132462932E-2,-1.112993234E0,1.625815389E0,1.971240809E0
1.141491046E1,-3.464541786E-1,-6.779738376E-1,3.423199779E-1,8.347826002E-1
1.142488046E1,1.411783359E-1,1.215517436E0,-3.699439788E-1,1.278386681E0
1.143485046E1,2.599927895E-1,9.468603882E-1,-2.358059281E-1,1.009824381E0
1.144482046E1,-2.022660981E-1,-1.472904560E0,-4.949521869E-1,1.566951526E0
1.145479071E1,-1.995562974E-1,-1.658677618E0,-9.874491280E-1,1.940641630E0
1.146476071E1,-6.953759553E-1,4.317279983E-1,-2.269954020E0,2.413012233E0
1.147473071E1,-9.631877147E-1,2.139466679E0,-7.727130568E-1,2.470249727E0
1.148470071E1,-3.568552789E-1,2.130014947E-1,1.190427618E0,1.260885895E0
1.149467071E1,-8.839683214E-1,-1.545369980E0,2.362713665E-1,1.795937785E0
1.150463971E1,-6.753419327E-1,-1.453712244E0,-1.008061733E0,1.893556038E0
1.151460971E1,-8.135193679E-2,-9.608516058E-1,-1.316616964E0,1.631972480E0
1.152457971E1,-1.425965451E0,-3.261784467E0,-6.387469143E-1,3.616713010E0
1.153454971E1,-1.897629640E0,-3.088338217E0,6.679976106E-1,3.685790553E0
1.154451971E1,-2.187817597E0,-1.502518953E0,1.642489893E0,3.121198823E0
1.155448971E1,-2.201746688E0,6.051958832E-1,1.198580976E0,2.578865427E0
1.156445971E1,-2.007815010E0,4.557284796E-1,3.545763266E-1,2.089194566E0
1.157442971E1,-1.875663405E0,-1.915686719E0,5.751333010E-1,2.742033393E0
1.158439971E1,-2.051805076E0,-1.994265696E0,5.483214784E-1,2.913358230E0
1.159436871E1,-1.683612923E0,-5.175809115E-2,-2.548976719E-2,1.684601170E0
1.160433871E1,-1.034601514E0,1.223964031E0,-3.520719641E-1,1.640866512E0
1.161430871E1,-5.841633754E-1,-7.375414699E-1,-6.840388620E-1,1.163238339E0
1.162427871E1,6.333529309E-1,-1.952251990E0,-2.542368196E0,3.267424033E0
1.163424871E1,5.003136817E-1,1.615746483E-1,-2.305595723E0,2.364781552E0
1.164421871E1,-6.526149018E-1,-1.871252266E-1,1.831009389E0,1.952822942E0
1.165418871E1,-3.607343949E-1,8.157614279E-1,2.760964599E0,2.901468857E0
1.166415871E1,-6.274522863E-1,1.305260209E0,1.867646872E0,2.363367391E0
1.167412871E1,-8.771829931E-1,2.230168396E0,5.779247618E-1,2.465177094E0
1.168409771E1,-1.503989089E0,2.895101480E0,9.553180933E-2,3.263850807E0
1.169406771E1,-1.908887284E0,2.590650995E0,-2.531398820E0,4.094301311E0
1.170403771E1,-9.076617508E-1,2.015789589E-1,-4.537393738E0,4.631676356E0
1.171400771E1,-2.574428918E-1,3.394080645E-1,-4.379170421E0,4.399841844E0
1.172397771E1,2.549329014E-1,-4.782583863E-2,-3.369146363E0,3.379116055E0
1.173394771E1,-5.091419906E-1,-4.411159953E-1,1.910212263E0,2.025517163E0
1.174391771E1,-2.921730139E-1,-2.290527449E0,8.098840991E0,8.421585745E0
1.175388771E1,7.764340787E-1,-1.141585826E0,5.294295924E0,5.471346946E0
1.176385771E1,4.977204050E-1,1.011465397E0,9.096209335E-1,1.448515824E0
1.177382671E1,-1.453126645E0,-2.382255059E-1,2.113417041E0,2.575822204E0
1.178379671E1,-2.300810654E-1,-8.988202491E-1,-2.141513497E-1,9.521953253E-1
1.179376671E1,-1.679583168E0,-1.808237115E0,-1.830903554E0,3.072934901E0
1.180373671E1,-1.685813376E0,-1.257320057E0,-6.069485861E-1,2.188882603E0
1.181370671E1,-1.345925547E0,-6.518636808E-1,3.300132262E0,3.623163643E0
1.182367671E1,-1.764025148E0,-9.616272390E-2,4.809433692E0,5.123639764E0
1.183364671E1,-3.270052430E-1,1.797490810E0,2.089151680E0,2.775330680E0
1.184361671E1,2.359368327E-1,1.958345373E0,1.238662469E-1,1.976392076E0
1.185358671E1,-4.028302911E-1,6.233275142E-1,-3.981667346E-1,8.422269183E-1
1.186355671E1,-1.085167942E0,-2.174951969E0,-1.633511494E0,2.928543209E0
1.187352571E1,-2.752548629E-1,-3.832170121E0,-2.247666188E0,4.451212910E0
1.188349571E1,5.719745255E-1,-2.555498996E0,-2.942037081E0,3.938694220E0
1.189346571E1,-3.957737981E-1,-1.876175621E0,-1.100881019E0,2.211020325E0
1.190343571E1,-6.845230114E-1,-3.012258925E0,7.665594471E-1,3.182748650E0
1.191340571E1,-6.660377701E-1,-1.957208967E0,-7.084194124E-2,2.068644927E0
1.192337571E1,-9.179273419E-1,1.574759256E0,8.567585957E-1,2.014073636E0
1.193334571E1,-6.832633019E-1,3.746450232E0,2.563014715E0,4.590401127E0
1.194331571E1,-6.269532996E-1,2.426233723E0,1.476406165E0,2.908514342E0
1.195328571E1,-2.030474871E-2,-1.734382396E0,-2.200528859E0,2.801931805E0
1.196325471E1,2.508012588E-1,-3.787856998E0,-5.431094458E0,6.626277153E0
1.197322471E1,5.237058699E-2,-1.958888580E0,-5.016039210E0,5.385223904E0
1.198319471E1,6.223451820E-1,-7.974035096E-1,-1.062149647E0,1.466740521E0
1.199316471E1,7.288386203E-1,-2.907975295E-1,4.452054795E0,4.520681457E0
1.200313471E1,3.503656370E-1,-1.969584891E-1,6.664293289E0,6.676402756E0
1.201310471E1,-7.463973704E-1,1.443514115E0,4.923298277E0,5.184564394E0
1.202307471E1,-8.785286201E-2,1.838368987E0,1.389024205E0,2.305798538E0
1.203304471E1,-1.400498488E0,1.511942910E0,-3.000184717E0,3.639845562E0
1.204301471E1,-2.976732412E0,-1.074718237E-1,-2.046835381E0,3.614141823E0
1.205298471E1,-2.368024545E0,-2.358010164E0,3.664596230E-1,3.361851400E0
1.206295371E1,-2.173750366E0,-3.155751058E-1,6.030601877E-1,2.277819108E0
1.207292371E1,-1.291415026E0,1.618143842E0,1.351535951E0,2.472406052E0
1.208289371E1,-2.715055368E-1,1.547102510E0,1.505176805E0,2.175499632E0
1.209286371E1,6.540020075E-1,2.694016904E-1,1.338865035E0,1.514217777E0
1.210283371E1,1.736794226E0,1.460059396E0,-1.957468291E0,2.996649752E0
1.211280371E1,1.247604762E0,1.514689640E0,-1.700641038E0,2.596725301E0
1.212277371E1,1.585469454E0,5.986382309E-1,-8.439303893E-1,1.893224663E0
1.213274371E1,4.833388858E-1,-8.689576417E-2,-1.730484642E0,1.798817514E0
1.214271371E1,-1.201342159E-1,-3.289952259E0,-1.263275739E0,3.526199610E0
1.215268371E1,-4.784962218E-1,-2.336883590E0,-2.453599861E0,3.422007572E0
1.216265271E1,-4.486390230E-1,-6.857614517E-1,-2.072342105E0,2.228485482E0
1.217262271E1,-1.743657980E0,1.257271526E0,-5.237526476E-2,2.150306492E0
1.218259271E1,-1.597546586E0,2.684071667E0,1.964322982E0,3.689845604E0
1.219256271E1,-7.775814486E-1,1.150970899E0,3.338729147E0,3.616141485E0
1.220253271E1,7.178409579E-1,-1.645795617E0,1.152376862E0,2.133520866E0
1.221250271E1,6.071494380E-1,-5.005617718E0,-6.438445169E-1,5.083244528E0
1.222247271E1,8.051959477E-1,-3.925508640E0,-1.567485319E0,4.302902372E0
1.223244271E1,8.375683994E-1,1.856654692E-1,1.123990969E0,1.413983093E0
1.224241271E1,-3.441454786E-1,6.974134907E-1,1.956553786E0,2.105451117E0
1.225238171E1,-8.971466298E-1,-3.271347588E-1,1.867015958E0,2.097054556E0
1.226235171E1,-2.800518090E-1,-9.730676088E-1,-1.043225133E-1,1.017925721E0
1.227232171E1,-9.644778297E-1,-1.484673251E0,-3.712028843E-1,1.808939945E0
1.228229171E1,-4.944075553E-1,-9.099293742E-1,1.940674503E0,2.199688119E0
1.229226171E1,1.120613763E-1,-1.839718816E0,1.649027081E0,2.473138368E0
1.230223171E1,1.088219969E0,-1.315136449E0,2.402211607E-1,1.723807642E0
1.231220171E1,7.552552443E-1,-1.448850869E0,1.249178102E0,2.056702520E0
1.232217171E1,8.568275928E-1,4.887795737E-1,1.638362929E0,1.912404790E0
1.233214171E1,1.279439343E0,-6.011364537E-1,1.812519908E-2,1.413739224E0
1.234211171E1,1.578054783E-1,-4.061777124E-1,-1.819926576E0,1.871367320E0
1.235208071E1,4.080757186E-1,-1.044747456E0,-1.721195170E0,2.054394279E0
1.236205071E1,-8.279164005E-3,-8.765873811E-1,-1.440720608E0,1.686460747E0
1.237202071E1,-1.025504415E0,-2.086809871E-1,-2.979618305E-1,1.088112270E0
1.238199071E1,-8.248778949E-1,1.090180322E0,3.525350636E-1,1.411806519E0
1.239196071E1,-9.565430119E-1,8.476281685E-1,2.675311661E-1,1.305764516E0
1.240193071E1,-5.636005087E-1,-3.203335699E-1,1.011515683E-1,6.561179537E-1
1.241190071E1,3.893509972E-1,-1.221368744E0,4.281968647E-1,1.351550356E0
1.242187071E1,-4.284574678E-3,4.557176623E-1,-7.906686866E-1,9.126083044E-1
1.243184071E1,5.682243041E-1,9.555654305E-1,-2.256561558E0,2.515562405E0
1.244181071E1,1.162557376E0,1.401438721E0,-2.725049831E0,3.277417691E0
1.245177933E1,8.439893000E-1,-8.212238967E-2,-2.137625683E0,2.299675104E0
1.246174933E1,1.945545526E-1,-2.004264727E0,-2.253364885E-1,2.026253958E0
1.247171933E1,-2.136311667E-1,-4.346042436E-1,4.540380496E-1,6.638295523E-1
1.248168933E1,1.968278404E-1,9.914766902E-1,3.423317893E0,3.569435897E0
1.249165933E1,7.849895236E-2,8.906861874E-1,4.904734536E0,4.985569661E0
1.250162933E1,4.771244650E-1,1.415993902E0,3.175171416E0,3.509187941E0
1.251159933E1,5.374954317E-1,7.392450562E-1,1.839330561E0,2.053903967E0
1.252156933E1,3.392842131E-1,1.892698098E0,4.902007395E-1,1.984368069E0
1.253153933E1,1.471251735E-1,6.342425117E-1,-1.138365179E0,1.311405605E0
1.254150933E1,4.349813525E-1,-8.468572131E-1,-2.433021755E0,2.612655886E0
1.255147933E1,-1.810620111E-1,-4.125213566E-1,-2.494687661E0,2.535039220E0
1.256144833E1,-4.412650993E-1,9.877341798E-1,-7.071733707E-1,1.292450337E0
1.257141833E1,-3.920334439E-1,-1.950458649E-1,1.025305756E0,1.114892374E0
1.258138833E1,-8.030774284E-1,-1.225925480E0,9.868854564E-1,1.766853005E0
1.259135833E1,-5.805793611E-1,-4.608257899E-1,-2.345920461E-1,7.774742641E-1
1.260132833E1,-9.298842401E-1,-6.374891782E-1,-1.304613215E-1,1.134943747E0
1.261129833E1,-1.212080735E0,-4.423208141E-1,-6.002751589E-2,1.291661996E0
1.262126833E1,-8.096240442E-1,-8.913255805E-1,-8.097721249E-1,1.451097267E0
1.263123833E1,-1.417958292E-1,-2.328602763E0,-1.094741442E0,2.577005182E0
1.264120833E1,-2.853452750E-1,-1.843064301E0,-1.155402796E0,2.193915122E0
1.265117833E1,-5.794552705E-1,-5.668206069E-1,1.832495751E0,2.003770118E0
1.266114733E1,-1.844085919E-1,4.829963851E-1,3.479543549E0,3.517742933E0
1.267111733E1,3.469413248E-1,2.222692146E0,1.197875801E0,2.548653584E0
1.268108733E1,7.937047072E-1,9.955010363E-1,8.035214514E-1,1.505535187E0
1.269105733E1,8.436913113E-1,-3.983795732E-2,-2.424343318E-1,8.787357377E-1
1.270102733E1,4.344538971E-1,-2.194908808E0,-1.322537854E0,2.599130863E0
1.271099733E1,3.190094680E-1,-3.889768119E0,-1.594945598E0,4.216149253E0
1.272096733E1,-6.314296355E-1,-3.600218678E0,-1.238996345E0,3.859454606E0
1.273093733E1,-7.550804856E-1,-1.784069111E0,1.016631997E-1,1.939944468E0
1.274090733E1,-1.265432777E0,-8.475308123E-1,1.804072435E0,2.360996811E0
1.275087733E1,-1.075335557E0,-1.465742890E0,2.552449965E0,3.133647971E0
1.276084633E1,-4.542087152E-1,-7.585174790E-1,2.638304633E0,2.782499894E0
1.277081633E1,6.408087887E-1,-2.826125970E-1,1.462553526E0,1.621594462E0
1.278078633E1,7.954704932E-1,4.288391814E-1,2.270877296E-1,9.317967514E-1
1.279075633E1,5.671004327E-1,3.864486220E-1,-1.080010552E0,1.279596901E0
1.280072633E1,1.267824818E-1,-3.193056294E-1,-1.446855506E0,1.487084644E0
1.281069633E1,-2.644185607E-2,-1.196337399E-1,-2.753223470E0,2.755948273E0
1.282066633E1,-4.300338406E-1,6.082978311E-1,-1.864179474E0,2.007515994E0
1.283063633E1,1.682011699E-1,5.758042690E-1,1.992045216E0,2.080405329E0
1.284060633E1,5.803065520E-1,1.246050719E0,3.862681185E0,4.099963905E0
1.285057633E1,4.232334557E-1,3.332288147E0,1.260821663E0,3.587888253E0
1.286054633E1,2.946935293E-1,3.279667007E0,-1.135016479E0,3.483004789E0
1.287051533E1,1.504895700E-1,1.705029958E0,-9.231087059E-1,1.944711791E0
1.288048533E1,-5.098727098E-1,-9.367005587E-2,-2.271467280E0,2.329872928E0
1.289045533E1,-1.273606307E0,6.744669700E-1,-3.818921208E0,4.081805717E0
1.290042533E1,-8.897284135E-1,2.056095909E0,-3.482277122E0,4.140700543E0
1.291039533E1,-8.445997493E-1,5.499031502E-1,-1.391406360E0,1.718066899E0
1.292036533E1,-6.439146835E-1,-6.358139509E-1,-1.342237124E0,1.618791523E0
1.293033533E1,-4.943250000E-1,-6.971790174E-1,-1.990663519E0,2.166369551E0
1.294030533E1,-3.378214591E-1,-1.378454778E-1,-3.475596678E-1,5.039071707E-1
1.295027533E1,9.830107807E-2,-1.681686704E0,4.687215775E0,4.980735387E0
1.296024533E1,-1.626608783E-1,-1.027936126E0,5.065818311E0,5.171617387E0
1.297021533E1,-1.027638064E0,-5.956196058E-1,2.275501859E0,2.566848538E0
1.298018433E1,-7.731890202E-1,-5.935593393E-1,6.145493817E-1,1.152304167E0
1.299015433E1,-9.998265141E-1,-2.175856241E0,1.926544706E0,3.073365898E0
1.300012433E1,-1.295259570E0,-1.854420763E0,6.538403320E-1,2.354587204E0
1.301009433E1,-1.107374279E0,1.076825281E0,-1.065664408E0,1.876558315E0
1.302006433E1,-2.755057084E-1,1.628115683E0,-7.692099899E-1,1.821633355E0
1.303003433E1,1.320933068E-1,8.596196383E-2,-1.092920619E0,1.104225331E0
1.304000433E1,3.713281609E-1,-1.361515979E0,-1.241655074E0,1.879712129E0
1.304997433E1,1.006501330E0,-1.808259042E0,-2.023020256E0,2.894038121E0
1.305994433E1,7.851150743E-1,-1.910363122E0,-8.586022228E-1,2.236758975E0
1.306991433E1,3.859611835E-1,-2.336771323E0,1.671481558E0,2.898847504E0
1.307988433E1,2.600535640E-1,-2.546644557E0,4.703968048E0,5.355403043E0
1.308985333E1,-3.024092593E-1,-1.500471258E0,8.735033256E0,8.868126710E0
1.309982333E1,-3.222977959E-1,1.696034601E0,9.838935531E0,9.989247300E0
1.310979333E1,-3.613384488E-1,3.043851431E0,4.366868464E0,5.335272926E0
1.311976333E1,-3.649621145E-1,2.557135632E0,-1.917442930E0,3.216943794E0
1.312973333E1,2.469387344E-1,1.307147983E0,-7.087121240E0,7.210887744E0
1.313970333E1,1.474509913E-1,5.960935226E-1,-1.072294215E1,1.074051012E1
1.314967333E1,-1.330969905E-1,-6.328751403E-1,-9.959370632E0,9.980346143E0
1.315964333E1,8.630495785E-2,-2.249355741E0,-4.589618729E0,5.111912546E0
1.316961333E1,-1.970796178E-1,-3.971170132E0,2.214636437E0,4.551224795E0
1.317958333E1,7.738243201E-1,-2.161717966E0,5.198739556E0,5.683196426E0
1.318955333E1,1.409625407E0,2.772895843E-1,3.804060509E0,4.066301718E0
1.319952233E1,1.016542242E0,-6.771733537E-1,1.359203405E0,1.827390428E0
1.320949233E1,7.063492057E-1,-2.158115788E0,1.902654737E-1,2.278726378E0
1.321946233E1,4.811004254E-1,-1.777111801E0,1.024336873E0,2.106857850E0
1.322943233E1,7.117257936E-1,-1.894149962E-1,2.040930862E0,2.169753542E0
1.323940233E1,2.021302965E-1,1.549957121E0,1.915986389E0,2.472696418E0
1.324937233E1,8.277570639E-1,1.630319499E0,2.757406569E-1,1.849096086E0
1.325934233E1,7.918140100E-1,9.929317698E-1,-1.141437891E0,1.707560653E0
1.326931233E1,9.142211574E-1,2.949345515E0,-3.653849047E-1,3.109331990E0
1.327928233E1,8.660621736E-1,3.656431470E0,2.334811336E0,4.423900853E0
1.328925233E1,8.756008096E-1,3.007583783E0,1.332337203E0,3.404021065E0
1.329922233E1,7.391247497E-1,5.481413841E-1,-1.901133876E0,2.112125562E0
1.330919133E1,1.104052110E0,-2.800353783E0,-3.086184980E0,4.311084562E0
1.331916133E1,1.917441469E0,-4.884934695E0,-3.440286512E0,6.274929485E0
1.332913133E1,1.422289307E0,-2.434230667E0,-1.845786472E0,3.369764608E0
1.333910133E1,1.129306892E0,-5.049626201E-2,2.210284354E0,2.482587532E0
1.334907133E1,3.035873636E-1,8.791949469E-1,5.149836953E0,5.233160582E0
1.335904133E1,-4.088690761E-1,1.364971098E0,3.585565263E0,3.858315471E0
1.336901133E1,-1.136026001E0,1.463150527E0,-8.734336853E-2,1.854452319E0
1.337898133E1,-6.740246281E-1,8.799735036E-1,-1.989656628E0,2.277585578E0
1.338895133E1,2.200611671E-1,-3.909834301E-1,-1.769437623E0,1.825432678E0
1.339892133E1,7.176520197E-1,-1.222337043E0,-1.093811735E0,1.790406764E0
1.340889133E1,9.295152077E-1,-9.444647840E-1,-6.343644261E-1,1.469159785E0
1.341886133E1,7.442536350E-1,2.576309529E-1,6.616387635E-1,1.028617049E0
1.342883033E1,2.329222641E-1,7.304996681E-1,-4.212076879E-1,8.748133873E-1
1.343880033E1,-5.391505592E-2,-3.158943638E-1,-2.871590411E0,2.889416476E0
1.344877033E1,-2.482792816E-1,-1.379944648E0,-3.134143258E0,3.433474012E0
1.345874113E1,-1.834188227E-1,-1.691385480E0,-1.717148897E0,2.417235537E0
1.346871113E1,-5.905100164E-1,-4.963049403E-1,-6.292200458E-1,9.954589591E-1
1.347868113E1,3.915518161E-1,-9.381234786E-1,1.993421066E-1,1.035917835E0
1.348865113E1,6.031786669E-1,-2.883196549E0,1.935471650E0,3.524584707E0
1.349862113E1,4.923414417E-1,-3.903540066E0,3.162188843E0,5.047718635E0
1.350859113E1,1.382448426E-1,-3.389028358E0,3.531742228E0,4.896716044E0
1.351856113E1,-7.240420762E-1,-5.251010156E-1,3.079256029E0,3.206522368E0
1.352853113E1,-1.030192567E0,1.034777661E0,2.073781689E0,2.536263399E0
1.353850012E1,-5.136982872E-1,1.932067109E0,9.127801841E-1,2.197711744E0
1.354847013E1,-5.393877734E-1,1.449521837E0,-1.059769830E0,1.874877281E0
1.355844013E1,1.208337164E-1,2.597187012E-1,-2.572134032E0,2.588035562E0
1.356841013E1,2.841963885E-1,-1.241993336E0,-2.822504790E0,3.096748024E0
1.357838013E1,7.247108515E-1,-2.235620047E0,-5.082364762E-1,2.404476477E0
1.358835013E1,8.597085160E-1,-1.312483859E0,2.407542513E0,2.873669008E0
1.359832013E1,6.236448719E-1,1.605890124E0,3.547036205E0,3.943257772E0
1.360829013E1,3.066299257E-1,2.230352875E0,2.680275362E0,3.500338823E0
1.361826013E1,-1.152978742E-1,1.033800884E0,-2.732696235E-1,1.075506464E0
1.362823013E1,-1.730913608E-1,-3.112978676E-1,-3.094583920E0,3.115014706E0
1.363820013E1,-3.852074043E-1,-3.974200451E-1,-4.479530277E0,4.513592686E0
1.364816913E1,-4.958070499E-1,-6.455326080E-2,-4.089027488E0,4.119482680E0
1.365813913E1,-7.520132556E-1,-3.132865056E-1,-2.479340474E0,2.609751244E0
1.366810913E1,-7.382527106E-1,-3.727216986E-1,-1.076154313E0,1.357220187E0
1.367807913E1,-4.887941918E-1,-1.094350263E-1,2.745033860E-2,5.016465967E-1
1.368804913E1,-4.637480455E-1,5.362785530E-1,5.553439844E-1,9.005908489E-1
1.369801913E1,-1.852219761E-1,1.137191351E0,1.753225048E0,2.097929793E0
1.370798913E1,5.222657007E-1,1.935948491E0,1.741071610E0,2.655558016E0
1.371795913E1,3.913056117E-1,2.026677982E0,6.975114316E-1,2.178776244E0
1.372792913E1,6.023578640E-2,1.307174003E0,-9.511250550E-1,1.617705503E0
1.373789913E1,-7.029385248E-1,3.307126701E-2,-2.103732297E0,2.218311488E0
1.374786913E1,-7.965033308E-1,-1.340487052E0,-1.014865553E0,1.860450264E0
1.375783912E1,-1.057142822E0,-7.122724351E-1,-2.214545220E-1,1.293802564E0
1.376780813E1,-4.922477401E-1,9.017757243E-1,-1.306297213E-1,1.035650240E0
1.377777813E1,-3.833629367E-1,1.817238903E0,-7.680335301E-1,2.009776076E0
1.378774813E1,2.235423069E-1,1.056216477E0,3.487682873E-1,1.134550011E0
1.379771813E1,1.039875592E-1,-1.097837835E0,2.311690861E0,2.561245002E0
1.380768813E1,-1.468803761E-1,-2.115729322E0,4.228910428E0,4.730916171E0
1.381765813E1,-3.427044323E-1,-1.235650569E0,3.396148220E0,3.630165477E0
1.382762813E1,-4.693372528E-1,-1.075361431E-2,7.635890615E-1,8.963600571E-1
1.383759813E1,-1.665816556E-1,7.364772767E-2,-7.238595700E-1,7.464222082E-1
1.384756812E1,-7.890495195E-1,-7.695023507E-2,-1.524447473E0,1.718272557E0
1.385753813E1,-1.690695509E0,-3.921689531E-1,-2.446597236E0,2.999680954E0
1.386750813E1,-1.012342698E0,-8.989766622E-1,-3.040014195E0,3.327864644E0
1.387747813E1,-1.005800103E0,-8.704270470E-1,-1.427950873E0,1.951491939E0
1.388744713E1,-6.846213178E-1,-1.122187980E0,1.339825147E0,1.877003899E0
1.389741713E1,-3.204554113E-1,-1.112226371E0,2.990039797E0,3.206255941E0
1.390738713E1,-1.002346701E-1,-8.356516090E-1,3.716601366E0,3.810706800E0
1.391735713E1,-7.725459178E-2,-8.542913631E-1,3.049368571E0,3.167716952E0
1.392732713E1,-2.379795574E-1,-9.078992209E-1,1.236931109E0,1.552711768E0
1.393729712E1,-2.602094654E-1,-2.807765713E-1,-1.419576491E0,1.470286320E0
1.394726713E1,-3.905003040E-1,-5.885222554E-4,-3.855682653E0,3.875407017E0
1.395723713E1,-3.825494063E-1,-8.282785624E-1,-4.496563216E0,4.588188115E0
1.396720713E1,-3.371041884E-1,-2.424020844E0,-3.863412087E0,4.573343333E0
1.397717712E1,-1.266279143E-1,-2.769914055E0,-1.546873299E0,3.175102440E0
1.398714713E1,-1.248400422E0,-9.118297192E-1,1.482738115E0,2.142066611E0
1.399711613E1,-1.304936127E0,1.267499768E0,3.784468244E0,4.199001529E0
1.400708613E1,-1.210918089E0,8.937872583E-1,3.448322926E0,3.762460535E0
1.401705613E1,-4.182883924E-1,-8.554113972E-1,1.817808715E0,2.052101937E0
1.402702612E1,-3.390645771E-1,-1.551641119E0,6.289861572E-1,1.708267700E0
1.403699613E1,7.899496984E-3,-1.480016236E0,2.779345322E-1,1.505907721E0
1.404696613E1,-4.262540542E-1,-7.310212398E-1,1.546928848E0,1.763256485E0
1.405693613E1,4.402420285E-2,5.246379161E-1,1.805973365E0,1.881149348E0
1.406690612E1,-4.307501611E-1,1.588283865E0,3.026156294E-1,1.673250596E0
1.407687613E1,-7.119223057E-2,2.554362297E0,-1.495880316E0,2.960995272E0
1.408684613E1,4.715345268E-1,2.329463765E0,-2.690562369E0,3.589968259E0
1.409681613E1,8.204616391E-1,1.092946639E0,-2.694387617E0,3.021161083E0
1.410678613E1,7.527771212E-1,1.405451372E-1,-1.167809418E0,1.396497464E0
1.411675512E1,4.497352663E-1,2.162326661E-1,2.196635199E-1,5.452251256E-1
1.412672513E1,4.177007472E-1,-1.570854485E-3,1.660349629E0,1.712085650E0
1.413669513E1,4.024623916E-1,-7.509812951E-2,2.389801476E0,2.424616836E0
1.414666513E1,6.346819299E-1,9.623707125E-1,-1.221068197E-1,1.159262100E0
1.415663513E1,3.635933179E-1,2.361303901E0,-2.447431049E0,3.420215630E0
1.416660513E1,5.433384446E-2,2.395405447E0,-2.582963076E0,3.523154506E0
1.417657513E1,-6.047226242E-1,1.051568525E0,-1.289765965E0,1.770588055E0
1.418654513E1,-2.963196948E-1,2.150059202E-1,8.333907831E-1,9.102599104E-1
1.419651513E1,1.916466592E-1,7.845139074E-1,1.749713210E0,1.927092845E0
1.420648513E1,-2.008893164E-1,9.680144450E-1,1.127220386E-1,9.950450950E-1
1.421645513E1,9.040509855E-2,-2.291719696E-1,-1.319693769E0,1.342491906E0
1.422642513E1,4.240226471E-1,-1.581710133E0,-8.754334331E-1,1.856875291E0
1.423639413E1,8.372647827E-1,-1.167559742E0,1.327777544E0,1.956323408E0
1.424636413E1,5.680326981E-1,-2.961611804E-1,3.685124635E0,3.740389841E0
1.425633413E1,6.231385761E-1,3.618783295E-2,2.733146471E0,2.803515806E0
1.426630413E1,2.262628884E-1,4.691191882E-2,-7.105220711E-1,7.471527530E-1
1.427627413E1,-5.362735006E-2,-1.204548644E0,-1.661923115E0,2.053241770E0
1.428624413E1,-6.417841043E-1,-2.165280674E0,4.287593669E-1,2.298730482E0
1.429621413E1,-4.753510045E-1,-1.686680810E0,1.821486613E0,2.527580704E0
1.430618413E1,-5.021694418E-1,-1.054624280E0,1.945321285E0,2.269070608E0
1.431615413E1,1.955876734E-2,-4.120328218E-2,1.833454109E0,1.834021327E0
1.432612413E1,3.724500954E-1,1.747995883E-1,1.244952319E0,1.311175140E0
1.433609412E1,3.434885805E-1,-3.746977651E-1,-9.677475196E-1,1.093123086E0
1.434606413E1,3.216659311E-1,-1.595285906E0,-3.387577956E0,3.758203095E0
1.435603413E1,6.853933695E-1,-2.935864760E0,-3.399374129E0,4.543656064E0
1.436600313E1,-3.932433881E-2,-2.930572445E0,-1.217796680E0,3.173772206E0
1.437597313E1,3.972677800E-2,-1.002848063E0,2.174449693E0,2.394893301E0
1.438594313E1,2.251150617E-1,3.584907451E-1,4.893419589E0,4.911694991E0
1.439591313E1,5.046168304E-1,5.144640532E-1,4.111418231E0,4.174095264E0
1.440588313E1,6.878217912E-1,3.675723481E-1,5.319592148E-1,9.440279942E-1
1.441585313E1,3.199006202E-1,8.561741665E-1,-2.582049741E0,2.739042072E0
1.442582312E1,1.231661708E-1,2.127551515E0,-4.032775519E0,4.561241469E0
1.443579313E1,3.980422620E-1,1.951801462E0,-3.715282819E0,4.215601145E0
1.444576313E1,1.560193549E-1,-2.992119652E-1,-2.404292046E0,2.427857096E0
1.445573263E1,1.036036895E-1,-1.894770352E0,-3.448804736E-1,1.928686328E0
1.446570263E1,-4.045820072E-1,-1.309880971E0,1.021824324E0,1.709853710E0
1.447567263E1,-9.895782454E-1,-3.487907991E-1,1.770480766E0,2.058038452E0
1.448564263E1,-3.977340041E-1,6.484553388E-1,2.350308212E0,2.470351262E0
1.449561163E1,3.293579433E-1,1.366614458E0,2.737245369E0,3.077112923E0
1.450558163E1,5.606187942E-1,1.554618521E0,2.717628545E0,3.180666139E0
1.451555162E1,8.710143998E-1,1.052941159E0,2.019049412E0,2.438013884E0
1.452552163E1,2.594571114E-1,3.400030187E-1,2.603811908E-1,5.007178945E-1
1.453549163E1,1.830399963E-1,5.395097244E-1,-1.043049132E0,1.188497318E0
1.454546163E1,4.729411111E-1,1.427220556E0,-1.842865203E0,2.378399455E0
1.455543163E1,2.922855728E-1,2.180513548E0,-2.392684153E0,3.250385769E0
1.456540163E1,9.334311611E-1,2.032866383E0,-2.975310076E0,3.722406414E0
1.457537163E1,1.312911583E0,7.120262673E-1,-1.666729526E0,2.238013750E0
1.458534163E1,1.539942595E0,1.356349379E-2,-1.283873141E-1,1.545344773E0
1.459531163E1,2.238290763E0,-1.066737665E0,-3.578636312E-1,2.505182860E0
1.460528163E1,1.455383378E0,-1.857435587E0,-1.629755827E0,2.867806094E0
1.461525063E1,1.031039317E0,-2.607563774E0,-9.497223079E-2,2.805610563E0
1.462522063E1,-3.138645029E-1,-3.187418701E0,4.295351170E0,5.358002480E0
1.463519063E1,-6.751114793E-1,-1.027751939E0,6.694462582E0,6.806458611E0
1.464516063E1,-6.540520012E-2,2.147851878E0,3.625864273E0,4.214787926E0
1.465513063E1,3.420121220E-1,2.063627999E0,-4.161527699E-1,2.132771891E0
1.466510063E1,4.166963783E-1,6.164011949E-1,-1.539917452E0,1.710243276E0
1.467507063E1,5.714837248E-1,-7.037925106E-1,-1.591360670E-1,9.204574045E-1
1.468504063E1,3.991383225E-1,-1.719783068E-1,4.530750132E-1,6.278255379E-1
1.469501063E1,7.561932108E-1,1.809637231E-1,-4.179221374E-1,8.827428584E-1
1.470498063E1,1.215628240E0,-3.366692287E-1,-1.976887479E0,2.345033538E0
1.471495063E1,1.351153543E0,-2.344102270E0,-2.143495118E0,3.451811505E0
1.472492063E1,6.910332283E-1,-3.331997540E0,-3.272844476E-1,3.418603464E0
1.473489062E1,1.160518160E0,-2.496433055E0,2.441706625E0,3.679797771E0
1.474485963E1,7.716093218E-1,-1.716939274E0,3.914957047E0,4.343978602E0
1.475482963E1,7.268901088E-1,-9.586682555E-1,3.869293801E0,4.052017840E0
1.476479963E1,4.352936304E-1,-2.250099215E-1,2.418242918E0,2.467389069E0
1.477476963E1,5.261931293E-1,1.184354992E0,1.860484618E-1,1.309270784E0
1.478473962E1,9.328872970E-1,4.481133583E-1,-2.731261328E0,2.920765779E0
1.479470963E1,4.540053783E-1,-9.761678025E-1,-6.227925525E0,6.320291196E0
1.480467963E1,-5.507930964E-2,-2.024240570E0,-7.058165243E0,7.342906796E0
1.481464963E1,-9.185850075E-1,-1.265846175E0,-4.178117419E0,4.461258805E0
1.482461962E1,-9.683888130E-1,-7.223509884E-1,9.702343404E-1,1.549491052E0
1.483458963E1,-5.573191373E-1,-1.235715473E0,4.598325818E0,4.793975144E0
1.484455963E1,1.394362128E-1,-1.212530678E0,4.253810796E0,4.425446801E0
1.485452963E1,6.019701571E-1,-8.050905517E-1,1.087420143E0,1.480885355E0
1.486449963E1,1.480377447E0,6.833252093E-1,-4.190401250E-1,1.683462312E0
1.487446862E1,1.807320856E0,1.460291238E0,-5.799929219E-1,2.394838401E0
1.488443863E1,1.967694486E0,4.568935373E-1,6.857760698E-1,2.133274974E0
1.489440863E1,1.896209936E0,-2.903008085E-1,1.472358722E0,2.418207371E0
1.490437863E1,1.104438611E0,3.733824340E-1,1.204855623E0,1.676566777E0
1.491434862E1,8.574410389E-1,2.277696319E0,4.183466452E-1,2.469437096E0
1.492431863E1,3.969545337E-1,3.380889034E0,8.281668806E-1,3.503404622E0
1.493428863E1,3.826413903E-1,3.013014677E0,1.450567319E0,3.365830867E0
1.494425863E1,-1.088619261E-1,1.849563773E0,2.125292736E0,2.819504617E0
1.495422863E1,6.068339076E-2,1.453943793E0,1.122173654E0,1.837636727E0
1.496419863E1,-1.644014847E-1,1.342494986E0,-4.872461414E-1,1.437612409E0
1.497416863E1,-1.790816871E-1,-1.025300494E-1,-2.970286734E0,2.977446211E0
1.498413863E1,-2.596918041E-1,-1.954584737E0,-3.841172202E0,4.317689800E0
1.499410863E1,-3.368654028E-3,-1.994902458E0,-4.632115708E0,5.043425730E0
1.500407863E1,-5.450715959E-1,-1.464355930E0,-4.113370031E0,4.400142537E0
1.501404763E1,-4.240887937E-1,-1.498197276E0,-1.862912967E0,2.427939683E0
1.502401763E1,-9.312138239E-1,-2.838035579E0,5.740751304E0,6.471308266E0
1.503398763E1,-4.792231768E-2,-1.874894204E0,1.074777411E1,1.091018667E1
1.504395763E1,8.974658878E-1,2.899641843E0,3.023418628E0,4.284206816E0
1.505392763E1,6.027043846E-1,4.821361720E0,-6.293303243E0,7.950751355E0
1.506389763E1,2.749086712E-1,3.500061429E-1,-7.754648734E0,7.767409869E0
1.507386763E1,-2.160628776E-1,-4.470202506E0,-5.677470982E0,7.229320187E0
1.508383763E1,-1.374090562E0,-4.329931603E0,-1.006823292E0,4.652969557E0
1.509380763E1,-1.803078847E0,2.979825881E-1,3.027590616E0,3.536409463E0
1.510377763E1,-8.053468790E-1,2.430613287E0,5.457198182E0,6.028057444E0
1.511374763E1,-3.825490408E-1,1.108530346E0,4.683723818E0,4.828297019E0
1.512371763E1,4.475504176E-1,1.181400687E-1,2.409213063E0,2.453276591E0
1.513368762E1,5.066876949E-1,9.852888742E-1,1.608896470E-1,1.119558870E0
1.514365663E1,6.022891592E-1,-5.667179883E-2,-6.042670530E-1,8.550453763E-1
1.515362663E1,-9.789986772E-2,-4.246930962E0,-1.120737578E0,4.393410941E0
1.516359663E1,-1.080928345E0,-5.895347593E0,-2.104642124E0,6.352404883E0
1.517356663E1,-5.349258362E-1,-2.821767456E0,-1.730598662E0,3.353131217E0
1.518353663E1,-5.628199054E-1,-4.052985835E-1,7.697549504E-1,1.036125413E0
1.519350663E1,-6.641764551E-1,-1.838061715E0,4.047733866E0,4.494858249E0
1.520347663E1,-3.367805085E-1,-2.018176130E0,5.702224585E0,6.058202804E0
1.521344663E1,8.520998266E-1,3.687671682E0,4.910405166E0,6.199764144E0
1.522341662E1,1.414805309E0,6.096961927E0,4.268227106E0,7.575775962E0
1.523338663E1,8.590529700E-1,2.701598988E0,1.970591782E0,3.452512284E0
1.524335663E1,4.050287711E-1,-4.538891502E0,-1.960173798E0,4.960631582E0
1.525332663E1,-7.000130897E-1,-5.224345683E0,-5.368789451E0,7.523809295E0
1.526329662E1,-3.572979862E-1,5.098008987E-1,-5.559481187E0,5.594228264E0
1.527326663E1,-8.660969646E-1,5.632536299E0,-4.355099189E0,7.172341184E0
1.528323563E1,-1.557689625E0,5.146408145E0,-4.752778265E0,7.176406831E0
1.529320563E1,-1.182554635E0,8.187610495E-1,-2.366892670E0,2.769654497E0
1.530317563E1,-8.079915746E-1,-2.023048615E0,2.386899503E0,3.231542251E0
1.531314562E1,-5.047189374E-1,1.854476604E-1,2.845677890E0,2.896034305E0
1.532311563E1,-6.322343037E-2,1.448466122E0,4.491141093E-1,1.517812502E0
1.533308563E1,-6.368444496E-1,-5.031415048E-1,-7.879602563E-1,1.131195647E0
1.534305563E1,-1.747533807E0,-3.341151649E-1,-2.149489099E-1,1.792124545E0
1.535302562E1,-1.983174259E0,2.725869026E0,-2.178114728E0,4.013418226E0
1.536299563E1,-1.805504419E0,4.912188567E0,-5.665529214E0,7.712824644E0
1.537296563E1,-2.417258831E0,1.579246701E0,-1.021922557E1,1.061930938E1
1.538293563E1,-1.797968381E0,-3.391510501E0,-1.257374144E0,4.039309782E0
1.539290563E1,-2.531006033E-1,-4.597398157E0,1.668833939E1,1.731186880E1
1.540287563E1,1.614460534E0,2.431621932E0,1.358730599E1,1.389727139E1
1.541284563E1,2.576864430E0,6.270031909E0,-2.422663997E0,7.198807629E0
1.542281463E1,1.883962943E0,-2.426094266E0,-3.431953061E0,4.605817145E0
1.543278463E1,-1.267154343E0,-7.559927098E0,-2.112487918E-1,7.668298632E0
1.544275462E1,-5.947027258E-1,-1.940066392E0,-7.114161104E-1,2.150265523E0
1.545272421E1,-4.126495203E-2,2.865682969E0,-1.215324478E0,3.113013855E0
1.546269421E1,9.245225626E-1,7.319778442E-2,-1.150641993E0,1.477862267E0
1.547266421E1,-1.248072741E-1,-4.966147258E0,-9.560033870E-1,5.058867256E0
1.548263421E1,-4.452279767E-1,-3.590999373E0,1.324180922E0,3.853175257E0
1.549260421E1,5.965288478E-1,2.288196748E0,6.664913678E0,7.071970402E0
1.550257421E1,7.152951533E-1,2.589713394E0,9.696596176E0,1.006192029E1
1.551254421E1,3.726209437E-2,-1.160666460E-1,3.499660894E0,3.501783304E0
1.552251421E1,-1.272499137E0,-5.811486241E-1,-3.273246764E0,3.559653376E0
1.553248421E1,-1.861134536E0,2.909608715E0,-5.583856475E0,6.565751881E0
1.554245421E1,-1.869256611E0,6.524460635E-1,-6.260230806E0,6.565843121E0
1.555242321E1,-2.059257206E0,-6.164767410E0,-7.699453942E0,1.007603535E1
1.556239321E1,-2.107639261E0,-8.090080107E0,-8.320800127E0,1.179522167E1
1.557236321E1,-4.424033330E-1,9.489823428E-1,-6.156929217E0,6.245323497E0
1.558233321E1,5.988248301E-1,9.222741913E0,-1.176960311E0,9.316801765E0
1.559230321E1,4.740662250E-1,5.798527057E0,4.606194416E0,7.420558053E0
1.560227321E1,-9.345359012E-2,-8.576588330E0,8.788508967E0,1.228024800E1
1.561224321E1,1.546583278E0,-9.169848000E0,5.889417347E0,1.100741881E1
1.562221321E1,1.822600946E0,1.212318424E0,-2.433494210E-1,2.202455246E0
1.563218321E1,1.672734909E0,3.743696778E0,1.257584059E-1,4.102331388E0
1.564215321E1,2.627800475E-1,-1.047658785E0,1.397042491E0,1.765890712E0
1.565212321E1,8.131708921E-1,-3.240527499E0,9.811393976E-2,3.342437990E0
1.566209321E1,2.941973931E-1,2.199722528E-1,-4.176847989E0,4.192970191E0
1.567206321E1,3.070450415E-1,4.578370148E0,-6.335471023E0,7.822655748E0
1.568203321E1,5.845931458E-1,7.970748961E-2,-1.061604686E0,1.214539806E0
1.569200221E1,4.608884282E-1,-3.853779384E0,4.851543585E0,6.213011254E0
1.570197221E1,1.124055581E0,-1.383219966E0,4.256459584E0,4.614568952E0
1.571194221E1,1.262094894E0,2.258719473E0,2.703003489E0,3.741780998E0
1.572191221E1,1.468352356E0,1.192089981E0,1.611876211E0,2.485011486E0
1.573188221E1,1.153369281E0,-1.219264331E0,-1.985749519E-1,1.690058644E0
1.574185221E1,4.388918241E-1,1.498270951E0,-1.254534736E0,2.002822828E0
1.575182221E1,-5.393871521E-1,4.445990648E0,-9.249476552E-2,4.479545359E0
1.576179221E1,-1.508149968E0,3.077312999E0,2.331273186E-1,3.434926487E0
1.577176221E1,-1.364284635E0,2.809806392E-1,-1.994830245E0,2.433016726E0
1.578173221E1,-1.350571891E0,2.712836167E-1,-3.365237499E0,3.636270433E0
1.579170221E1,-2.242846658E-2,2.067816068E0,-1.579321253E0,2.602041880E0
1.580167221E1,5.357947325E-1,2.607526352E0,-1.122133309E-1,2.664368875E0
1.581164221E1,1.106907013E0,9.428293177E-1,-1.524911157E0,2.107017868E0
1.582161221E1,1.438737817E0,-1.678108500E0,-1.384210192E0,2.608074481E0
1.583158221E1,1.313959258E0,-1.898133670E0,-1.291233031E0,2.645124402E0
1.584155121E1,1.067400008E0,-2.131394890E0,-4.362461418E-1,2.423323678E0
1.585152121E1,3.558176174E-1,-4.750570357E0,2.531571897E0,5.394754968E0
1.586149121E1,-2.675982081E-1,-3.660131881E0,1.998114626E0,4.178592615E0
1.587146121E1,3.792078687E-1,9.047472793E-1,5.739164954E-1,1.136550215E0
1.588143121E1,-5.160578946E-3,3.503167470E0,1.669449066E0,3.880627415E0
1.589140121E1,2.101273324E-1,1.755135334E0,1.630883170E0,2.405084915E0
1.590137121E1,7.721268734E-1,-7.246068442E-1,-6.795698351E-1,1.258193208E0
1.591134121E1,6.675508102E-1,-1.687793536E0,-1.223498885E0,2.188885704E0
1.592131121E1,-2.939406637E-1,-9.832449800E-1,-1.656364167E-1,1.039522596E0
1.593128121E1,-4.881086057E-1,-8.453267044E-1,-8.266331559E-1,1.279120644E0
1.594125121E1,1.478967592E-1,-2.742482428E0,-2.206509392E0,3.523033780E0
1.595122121E1,-9.277723720E-1,-2.830959279E0,-1.308381745E0,3.253760102E0
1.596119121E1,-1.484868529E-1,-1.673935927E0,1.860717922E0,2.507265646E0
1.597116121E1,-1.305184415E-1,-5.708879301E-1,4.005791788E0,4.048372011E0
1.598113021E1,-5.941032766E-1,2.132605264E-1,1.300554662E0,1.445642136E0
1.599110021E1,-2.908857494E-1,-9.555677694E-1,3.783658989E0,3.913285017E0
1.600107021E1,2.219134188E-1,-1.008238611E0,7.103358373E0,7.177986545E0
1.601104021E1,-1.756655701E-2,3.180350295E-1,5.890951656E0,5.899556448E0
1.602101021E1,7.324014750E-1,2.953949905E0,-3.389128053E-1,3.062204084E0
1.603098021E1,-2.362088744E-1,3.403947237E0,-2.060918984E0,3.986231112E0
1.604095021E1,-5.753472726E-1,1.315007810E0,-3.108610221E0,3.423992922E0
1.605092021E1,-1.219371920E0,8.759666991E-1,-4.931973791E0,5.155438973E0
1.606089021E1,-6.549162928E-1,-4.054166973E-3,-4.406575736E0,4.454979406E0
1.607086021E1,-4.560907695E-2,4.165114966E-1,-2.360356067E0,2.397257345E0
1.608083021E1,-3.652672295E-1,-3.890839621E-1,-1.469878333E0,1.563761105E0
1.609080021E1,-4.214298455E-3,-1.179765805E0,-1.209743895E0,1.689776733E0
1.610077021E1,-1.907211911E-1,2.894208026E-1,-6.336884880E-1,7.222880821E-1
1.611074021E1,1.941140745E-1,1.090817083E0,1.772041973E0,2.089903093E0
1.612070921E1,3.119536328E-1,4.146944743E-1,2.358773226E0,2.415180678E0
1.613067921E1,2.040604807E-1,4.729128617E-1,-6.759118170E-1,8.497905853E-1
1.614064921E1,1.347465174E-1,1.146589580E0,-1.640973126E0,2.006394051E0
1.615061921E1,-6.312602855E-1,1.914225792E0,-6.606938535E-1,2.121147402E0
1.616058921E1,-1.848163438E-1,2.806271457E0,3.181838411E-1,2.830292835E0
1.617055921E1,2.344108373E-1,1.565831434E0,-8.546313787E-1,1.799214083E0
1.618052921E1,-2.745099641E-1,6.353672236E-1,-2.266546263E0,2.369869024E0
1.619049921E1,-3.706119501E-1,-6.252027163E-1,-1.670380527E0,1.821648364E0
1.620046921E1,-1.799877497E-1,-1.480354789E0,5.827335119E-1,1.601069717E0
1.621043921E1,4.795231390E-1,-3.580549229E0,1.560960411E0,3.935336406E0
1.622040921E1,3.419339886E-1,-3.283488747E0,1.526833137E0,3.637229252E0
1.623037921E1,6.725756150E-2,-1.315004302E0,1.454436421E0,1.961923851E0
1.624034921E1,3.321157826E-1,-1.469128135E0,3.091208907E0,3.438635032E0
1.625031921E1,1.578837944E-1,-3.984690356E-1,2.266498901E0,2.306669055E0
1.626028921E1,-2.466630747E-1,5.118763679E-1,1.588837597E0,1.687384069E0
1.627025821E1,-4.580799374E-1,-5.724970838E-1,-5.631009007E-1,9.244851347E-1
1.628022821E1,-1.381283734E-1,-1.159248510E0,-1.525661355E-1,1.177375463E0
1.629019821E1,-5.153930296E-1,-8.767145580E-1,-5.496879727E-1,1.156034281E0
1.630016821E1,6.856973151E-2,-7.824246973E-2,-5.674863124E-1,5.769440241E-1
1.631013821E1,2.405912894E-1,4.659192994E-1,-2.972724438E-1,6.027734798E-1
1.632010821E1,1.619148832E-3,-3.733654770E-1,8.482450497E-1,9.267815630E-1
1.633007821E1,-9.501312476E-2,-8.366006121E-1,3.277949095E-1,9.035361535E-1
1.634004821E1,-3.023842259E-1,6.633286089E-2,2.213978040E-1,3.805959224E-1
1.635001821E1,-1.467147446E-1,3.773629260E-1,7.601661015E-1,8.612667972E-1
1.635998821E1,4.482804425E-4,1.373642519E-1,-4.119784427E-1,4.342756911E-1
