"Time (s)","Linear Acceleration x (m/s^2)","Linear Acceleration y (m/s^2)","Linear Acceleration z (m/s^2)","Absolute acceleration (m/s^2)"
1.264124992E-3,-1.002841339E0,1.585733018E0,-5.139375114E-1,1.945346169E0
1.123512501E-2,-1.808336225E0,3.850189193E0,-4.102134606E0,5.909445410E0
2.120612503E-2,-1.930003334E0,3.103976595E0,-3.758449304E0,5.242663897E0
3.117712500E-2,-8.181670455E-1,1.086160069E0,-2.402025665E0,2.760229756E0
4.114712501E-2,-4.025644255E-1,-1.522465852E-1,-1.127391125E0,1.206750964E0
5.111812503E-2,9.814599712E-1,1.876278825E0,1.091862273E-1,2.120284777E0
6.108912500E-2,6.873759411E-1,1.835223185E0,1.469915171E0,2.449730685E0
7.105912501E-2,2.506865803E-1,1.157154622E0,1.920601012E0,2.256226679E0
8.103012503E-2,-8.627400050E-1,4.610188065E0,-1.844936287E0,5.040034148E0
9.100112499E-2,-1.607791054E0,4.944770422E0,-3.011191515E0,6.008578945E0
1.009721250E-1,-1.896910725E0,2.822483740E0,-2.112325950E0,4.003324329E0
1.109421250E-1,-6.075709491E-1,2.020022096E0,-3.200790991E0,3.833365975E0
1.209131250E-1,3.776975329E-1,4.357278154E0,-4.392489209E0,6.198587725E0
1.308841250E-1,6.877417575E-1,4.954724722E0,-6.140092160E0,7.919786457E0
1.408541250E-1,1.454335411E0,3.027935017E0,-3.140720791E0,4.598652959E0
1.508251250E-1,1.614395923E0,2.460196690E0,-5.039317560E-1,2.985429477E0
1.607961250E-1,1.396325769E0,2.390216044E0,1.319432398E0,3.066555110E0
1.707661250E-1,9.513714420E-1,2.698625094E0,3.490448021E0,4.513414717E0
1.807371250E-1,2.012948281E0,3.552599538E0,2.633860749E0,4.859027342E0
1.907081250E-1,1.481077067E0,4.484085842E0,-3.985824716E-1,4.739143710E0
2.006791250E-1,2.113196601E0,4.234394531E0,-4.069085559E0,6.241246206E0
2.106491250E-1,3.222711618E0,3.858288757E0,-7.986472124E0,9.436948622E0
2.206201250E-1,2.790611737E0,3.319990575E0,1.284657252E0,4.523294766E0
2.305911250E-1,4.188837412E0,4.756035165E0,1.151139007E0,6.441377987E0
2.405611250E-1,2.153849806E0,1.441987115E0,-3.202210110E0,4.119774923E0
2.505321250E-1,4.623584620E0,-3.264197613E0,-2.468292745E0,6.174543697E0
2.605031250E-1,6.921257951E0,-3.566578184E0,3.257877942E0,8.440264229E0
2.704731250E-1,4.061269293E0,9.022721529E-1,-1.726888019E0,4.504458407E0
2.804441250E-1,2.156200825E0,7.105422440E-1,-3.768296599E-1,2.301319811E0
2.904151250E-1,1.865671391E0,-2.789259568E0,2.627138205E0,4.261754782E0
3.003861250E-1,2.777070170E0,-2.346116051E0,4.108574145E0,5.486051472E0
3.103561250E-1,1.493897818E0,1.130986870E0,4.805859289E0,5.158211463E0
3.203271250E-1,-7.616586763E-1,-2.523760602E-1,1.590868335E0,1.781763080E0
3.302981250E-1,-1.437089194E-1,-2.637741838E0,-3.121579930E0,4.089327025E0
3.402681250E-1,-4.538654105E-1,-7.093423369E0,2.373478389E-1,7.111890248E0
3.502391250E-1,2.857738942E-1,-5.594187335E0,4.372789940E0,7.106186778E0
3.602101250E-1,1.424807995E0,-2.233777882E0,4.919771821E0,5.587843611E0
3.701801250E-1,3.979473909E-1,-2.202433882E0,3.190773541E0,3.897449541E0
3.801511250E-1,-6.480314156E-1,-3.727905495E0,3.565919788E0,5.199327652E0
3.901221250E-1,-2.518383210E0,-3.676670438E0,2.348131294E0,5.037249257E0
4.000931250E-1,-2.470398912E0,-2.349078250E0,9.326636410E-1,3.534246861E0
4.100631250E-1,-3.404860864E0,-3.307786559E0,-4.103002333E0,6.274484646E0
4.200341250E-1,-2.616353893E0,-4.809030819E0,-5.149693696E0,7.516078118E0
4.300051250E-1,1.395756835E0,-3.926495065E0,3.152818680E-1,4.179103169E0
4.399751250E-1,1.840814877E0,-1.629220515E0,2.254247814E-1,2.468557317E0
4.499461250E-1,2.316569047E0,7.204412878E-2,-2.481032073E-1,2.330930652E0
4.599171250E-1,4.940916595E-1,6.521952179E-1,-2.369988770E0,2.507255859E0
4.698881250E-1,6.894309450E-2,7.192271134E-1,7.225076938E-1,1.021791641E0
4.798581250E-1,-4.344141726E-1,2.239046516E0,2.115840127E0,3.111080908E0
4.898291250E-1,-1.224094132E0,1.618714822E0,2.347351275E0,3.103015006E0
4.998001250E-1,-1.524182741E0,9.594991449E-1,-6.909134334E-1,1.929023849E0
5.097701250E-1,-1.441078457E0,2.313465491E-1,-2.459776860E0,2.860197641E0
5.197411250E-1,-4.858433944E-1,-7.895039213E-1,-2.064749495E0,2.263305265E0
5.297121250E-1,1.195680610E0,-3.485069168E-1,-8.145323431E-1,1.488143854E0
5.396821250E-1,1.814676507E0,1.808368092E0,-2.095530993E0,3.309757714E0
5.496531250E-1,2.712810439E0,2.214701633E0,-4.709084362E-1,3.533553248E0
5.596241250E-1,2.719321022E0,2.029402784E0,2.227864593E0,4.059133297E0
5.695951250E-1,2.240342989E0,8.933893552E-1,3.961289799E-1,2.444217547E0
5.795651250E-1,1.323989864E0,-1.192858306E-1,-1.436067393E0,1.956902611E0
5.895361250E-1,5.777020559E-1,1.246052181E0,-9.717247957E-1,1.682449043E0
5.995071250E-1,-6.773702404E-2,5.643648933E0,-2.333765270E0,6.107521749E0
6.094771250E-1,9.037070596E-1,6.447482041E0,1.271230291E0,6.633455929E0
6.194481250E-1,2.874383626E0,5.154699497E0,-2.169872493E-1,5.905936979E0
6.294191250E-1,2.016236170E0,1.956857842E0,-2.644850591E0,3.858722011E0
6.393891250E-1,1.667534249E0,-5.416980448E-1,-4.951362573E0,5.252627778E0
6.493601250E-1,2.354881027E0,-1.123395138E0,-4.311077841E0,5.039134195E0
6.593311250E-1,1.644300484E0,2.850990086E0,-2.144772150E0,3.928347760E0
6.693021250E-1,2.647422489E0,6.246727831E0,1.566814059E-1,6.786383683E0
6.792721250E-1,1.876628049E0,6.542389952E0,4.209356169E0,8.002704448E0
6.892431250E-1,3.449086280E0,5.489195316E0,4.012876275E0,7.624345046E0
6.992141250E-1,3.397116227E0,4.069621748E0,9.203096437E-1,5.380445119E0
7.091841250E-1,1.723902431E0,2.543155231E0,-4.973038201E0,5.845561314E0
7.191551250E-1,1.891756843E0,-1.088446622E0,-6.862803921E0,7.201495516E0
7.291261250E-1,1.347238686E0,-1.324731437E0,-5.601302227E0,5.911391723E0
7.390961250E-1,3.770337643E-2,3.465167292E0,-7.599904511E0,8.352685465E0
7.490671250E-1,-9.263181695E-1,7.218464906E0,-2.449709709E0,7.678891757E0
7.590381250E-1,-1.535701902E0,7.547815175E0,8.770911187E-1,7.752237295E0
7.690091250E-1,-2.471214306E0,6.811692240E0,-2.726473628E0,7.742073996E0
7.789791250E-1,-2.226795429E0,3.230706224E0,-4.513512540E-1,3.949658028E0
7.889501250E-1,-5.388835461E0,3.296324555E0,-3.514581234E0,7.228940755E0
7.989211250E-1,-4.531954366E0,5.758046198E0,-4.212666863E0,8.452234527E0
8.088911250E-1,-5.274751605E0,4.619995892E0,6.825969386E-1,7.045090852E0
8.188621250E-1,-6.951541851E0,3.955703662E0,9.028989744E-1,8.049021811E0
8.288331250E-1,-3.990327949E0,2.711489261E0,2.438911071E0,5.405846684E0
8.388041250E-1,-7.392117271E0,2.336167306E-1,2.417484534E0,7.780887224E0
8.487743334E-1,-3.097402571E0,1.779175576E0,-2.817527640E-1,3.583120572E0
8.587453333E-1,-6.242000358E0,2.922372894E0,1.659082537E0,7.089103375E0
8.687163334E-1,-4.152837860E0,4.051705880E0,6.435854852E-1,5.837515319E0
8.786863334E-1,-4.642590702E0,9.069253671E-1,1.298504629E0,4.905331418E0
8.886573333E-1,-3.401162792E0,-1.535517422E0,7.789181221E-1,3.812143168E0
8.986283334E-1,-3.423094821E0,-3.791275572E0,6.758515906E-1,5.152487166E0
9.085983334E-1,-2.779514891E0,-2.979295246E0,1.071992265E0,4.213201943E0
9.185693333E-1,-1.222730926E0,-8.164049140E-1,1.550564647E-1,1.478387774E0
9.285403333E-1,-2.886666580E0,-4.036239409E-1,5.175487518E-1,2.960340004E0
9.385113334E-1,-1.328629045E0,-1.685141239E0,-2.880835444E-1,2.165167029E0
9.484813333E-1,-1.292972578E0,-1.373346065E0,-1.006608115E0,2.138017165E0
9.584523333E-1,-2.392727423E-1,-4.370177111E0,1.869377648E0,4.759230213E0
9.684233334E-1,-7.060399611E-1,-3.146486145E0,2.323972937E0,3.974885873E0
9.783933333E-1,-7.751359968E-1,-3.144208655E0,1.529079638E0,3.581196506E0
9.883643333E-1,4.492659176E-1,-1.378740706E0,-5.422976768E-1,1.548177177E0
9.983353334E-1,-1.218485482E0,1.080805188E-1,-1.829213124E0,2.200547414E0
1.008306333E0,2.029765896E-2,-8.558753738E-1,1.071442042E0,1.371467353E0
1.018276333E0,5.003845426E-1,-1.693283194E0,1.440080338E0,2.278469672E0
1.028247333E0,2.755074114E0,-3.279756469E0,9.567951000E-1,4.388928427E0
1.038218333E0,3.724289870E0,-2.849464255E0,-9.923654670E-1,4.793179612E0
1.048188333E0,4.494653223E0,-2.516654188E0,4.511296445E-1,5.170974169E0
1.058159333E0,4.210953921E0,-1.212487409E0,-6.079233170E-2,4.382459851E0
1.068130333E0,3.669623081E0,-3.316122642E-1,-7.059594887E-1,3.751596867E0
1.078100333E0,2.641760045E0,3.499213582E-1,-3.568637574E-1,2.688622851E0
1.088071333E0,1.203368091E0,-5.706701213E-1,1.251404722E0,1.827504563E0
1.098042333E0,7.936847536E-1,-2.834575197E-1,1.508516150E0,1.727977033E0
1.108013333E0,-6.073054855E-1,-2.790276691E-1,7.319860303E-1,9.912012619E-1
1.117983333E0,-1.702099626E0,-3.131327239E-1,-3.032664245E-1,1.757033228E0
1.127954333E0,-1.735591308E0,-1.015438872E0,2.475582469E-1,2.026000586E0
1.137925333E0,-2.394678492E0,1.158227879E0,-1.399097203E0,3.005569810E0
1.147895333E0,-3.388516434E0,2.378936472E0,-3.254211738E0,5.266049411E0
1.157866333E0,-3.218907127E0,8.986378160E-1,-1.660442600E0,3.731753294E0
1.167837333E0,-2.890907857E0,-4.073570958E-1,-1.964333507E0,3.518791578E0
1.177808333E0,-4.152640224E0,9.923324302E-1,-3.477222204E-1,4.283696444E0
1.187778333E0,-2.753535127E0,1.422798015E0,1.186581320E-1,3.101675295E0
1.197749333E0,-2.402100656E0,-3.698849219E-1,2.364438593E-1,2.441886180E0
1.207720333E0,-1.652448871E0,1.653987566E0,6.262274408E-1,2.420417928E0
1.217690333E0,-8.119938476E-1,4.635288700E0,1.929440832E-1,4.709826192E0
1.227661333E0,-1.283241203E0,3.785575122E0,-1.089335691E0,4.142938478E0
1.237632333E0,8.729080937E-1,7.967772728E-1,-1.649645716E0,2.029323422E0
1.247602333E0,1.843166773E0,3.619853336E-1,-2.433605307E0,3.074204275E0
1.257573333E0,1.299289910E0,1.568837196E0,-2.597481712E0,3.300956780E0
1.267544333E0,1.883785480E0,2.871205372E0,3.997624397E-2,3.434248990E0
1.277515333E0,2.248091573E0,4.284676493E0,5.336075449E-1,4.867967274E0
1.287485333E0,2.450398218E0,1.805233108E0,1.230371118E-2,3.043594813E0
1.297456333E0,2.816865443E0,1.681705999E-1,-7.826761276E-1,2.928411548E0
1.307427333E0,2.069185778E0,6.560692906E-2,-4.738829148E-1,2.123770013E0
1.317397333E0,8.741156168E-1,-6.056431952E-1,-2.664582020E0,2.868950877E0
1.327368333E0,1.452555080E0,-1.883365942E0,1.282931739E-1,2.381898963E0
1.337339333E0,1.626326581E0,-2.962171383E0,6.479095012E-1,3.440811557E0
1.347310333E0,1.263563861E0,-1.690918288E0,3.879825806E0,4.416881996E0
1.357280333E0,7.886227459E-2,-3.588123420E-1,2.738244073E0,2.762778703E0
1.367251333E0,2.415455550E-1,-1.647158895E0,1.838154101E-1,1.674892470E0
1.377222333E0,5.163810629E-1,-3.184095729E0,-1.721660024E0,3.656395527E0
1.387192333E0,-6.084552674E-1,-2.110888120E0,-1.435684986E0,2.624358559E0
1.397163333E0,-1.760617391E0,-2.133058715E0,1.785443791E0,3.292039278E0
1.407134333E0,-8.932627630E-1,-2.375996785E0,5.928193742E-1,2.606667201E0
1.417104333E0,-1.748684101E0,-1.852977670E0,3.430251521E-1,2.570814771E0
1.427075333E0,-1.894291611E0,-1.391410453E0,1.451886451E0,2.762668641E0
1.437046333E0,-1.989771819E0,-1.625115769E0,1.947160234E0,3.223604525E0
1.447017333E0,-1.452719387E0,-1.573272601E0,5.197437966E0,5.621293597E0
1.456987333E0,-3.645647158E0,-1.428980860E0,2.841724003E0,4.838194375E0
1.466958333E0,-4.550646745E0,-3.229540581E0,6.687992638E-1,5.620107705E0
1.476929333E0,-3.526052887E0,-3.110862276E0,1.204358025E0,4.853966555E0
1.486899333E0,-4.253577492E0,8.170115626E-1,-2.005204375E0,4.772973283E0
1.496870333E0,-2.413357423E0,-5.458580464E-2,8.115637118E-1,2.546744848E0
1.506841333E0,-5.823598748E-1,9.300376564E-2,5.792573422E-1,8.266388527E-1
1.516811333E0,-2.495947151E0,1.481778002E0,-2.290686493E0,3.697656398E0
1.526782333E0,-2.511240544E0,5.880147171E-1,-1.852746413E0,3.175651059E0
1.536753333E0,-6.782504109E-1,6.748622417E-2,5.761162180E-1,8.924617117E-1
1.546724333E0,-1.704873399E0,-9.857733160E-2,4.306900005E0,4.633108940E0
1.556694333E0,-9.064165132E-1,8.861569342E-1,4.731192099E0,4.898065301E0
1.566665333E0,-1.079735148E-1,6.954649061E-1,5.526051486E-1,8.948196275E-1
1.576636333E0,-6.915335307E-1,-7.987413526E-2,-1.517923150E0,1.669936882E0
1.586606333E0,-2.309767419E0,9.950616181E-1,-4.102734531E0,4.812234801E0
1.596577333E0,-4.068037153E0,7.195747304E-1,-2.720162728E0,4.946311690E0
1.606548333E0,-2.832747650E0,-1.648559303E0,2.177564505E0,3.934970673E0
1.616519333E0,-4.603124043E-1,-2.904151216E0,4.184507841E0,5.114302266E0
1.626489333E0,2.462413077E-1,-8.201415771E-1,4.352091966E0,4.435535082E0
1.636460333E0,1.090112202E0,-3.676094779E-1,2.519575750E0,2.769791201E0
1.646431333E0,2.032366446E-1,7.413795823E-1,-1.571148600E0,1.749130282E0
1.656401333E0,-3.092563123E-1,9.591369098E-1,-2.382945616E0,2.587279051E0
1.666372333E0,-5.014135064E-1,-2.179511628E-1,-1.751619987E0,1.834963431E0
1.676343333E0,-1.331405303E0,6.917957783E-2,-4.215216833E-1,1.398251202E0
1.686313333E0,-1.134424887E0,1.031021410E0,-1.497729206E-1,1.540245727E0
1.696284333E0,-7.111885075E-1,-4.205601087E-1,-4.738934398E-2,8.275902659E-1
1.706255333E0,-1.075355876E0,-5.019869721E-1,-1.250935775E-1,1.193327106E0
1.716226333E0,-8.412292680E-1,1.142755561E0,5.147888660E-1,1.509491481E0
1.726196333E0,-8.314652950E-2,1.199270655E0,-8.123273581E-1,1.450875317E0
1.736167333E0,-6.208740225E-1,4.431590125E-1,-1.580276104E0,1.754749847E0
1.746138333E0,4.201256606E-1,-7.719017556E-1,4.399275488E-1,9.827889596E-1
1.756108333E0,1.508765095E-1,2.922409147E-2,6.633607686E-2,1.673865100E-1
1.766079333E0,-4.629602429E-1,1.162673809E0,3.680237532E-2,1.251997199E0
1.776050333E0,-1.222156730E0,4.826364890E-1,3.907284915E-1,1.370866079E0
1.786020333E0,-1.082253836E0,1.336992171E0,-6.557354146E-1,1.840872175E0
1.795991333E0,-1.638229904E0,1.916771670E0,-2.094455105E0,3.277888504E0
1.805962333E0,-2.311754011E0,8.688725647E-1,-2.062355645E0,3.217523418E0
1.815933333E0,-1.555735924E0,1.235457610E0,-1.922101407E0,2.764261853E0
1.825903333E0,-1.380124158E0,-1.414128640E0,-6.406086677E-1,2.077229397E0
1.835874333E0,-1.469228123E0,-1.044087890E0,5.727757037E-2,1.803338992E0
1.845845250E0,-1.198828240E0,6.046725574E-1,2.423854491E0,2.770900330E0
1.855815250E0,5.825874046E-1,1.790563613E-1,2.367900730E0,2.445081416E0
1.865786250E0,3.666527273E-1,-1.274304172E-1,2.293315401E0,2.325933847E0
1.875757250E0,8.958242820E-1,1.120780555E0,-1.789871888E0,2.293968520E0
1.885728250E0,1.189166958E0,-1.611638814E-2,-5.449441266E-1,1.308182668E0
1.895698250E0,5.737550027E-1,-8.493197680E-1,-2.168492550E-1,1.047646157E0
1.905669250E0,1.573799581E0,-9.014517885E-1,2.126929956E0,2.795226554E0
1.915640250E0,5.708452820E-1,3.923130870E-1,-1.190507140E0,1.377345688E0
1.925610250E0,1.884105615E0,-4.851662868E-1,-1.183985156E-1,1.949168670E0
1.935581250E0,1.939825926E0,-9.760350707E-1,-3.325089347E-1,2.196845755E0
1.945552250E0,1.601908755E0,5.793511900E-1,-1.420151272E0,2.217789236E0
1.955522250E0,1.637373580E0,2.524234226E-1,1.727475665E0,2.393508303E0
1.965493250E0,1.796878314E0,1.470558364E0,-1.644342291E-1,2.327735422E0
1.975464250E0,1.568735746E0,2.260500534E0,-2.039647983E0,3.425048672E0
1.985435250E0,1.381677471E0,1.652136630E-1,-1.466437247E0,2.021575224E0
1.995405250E0,5.347896692E-1,-1.810652307E0,-9.015646398E-2,1.890129614E0
2.005376250E0,1.791514224E0,-1.298272786E0,2.034240478E0,3.005523210E0
2.015347250E0,7.555397844E-1,-1.288776031E-1,2.221102288E0,2.349626603E0
2.025317250E0,1.123845264E-1,1.119426048E0,1.311714658E0,1.728103094E0
2.035288250E0,-1.163789604E-1,5.260067493E-1,8.490256530E-1,1.005520622E0
2.045259250E0,-1.333914928E0,-4.823336032E-1,-3.189397107E0,3.490591446E0
2.055229250E0,-7.503677029E-1,-5.362826461E-1,-6.285470313E0,6.352777961E0
2.065200250E0,-3.632796147E-1,2.264962837E-1,-4.866702492E0,4.885495450E0
2.075171250E0,-3.601186831E-1,-5.853495562E-1,1.407327744E0,1.566170791E0
2.085142250E0,3.481049207E-1,-1.800135505E-1,3.066747081E0,3.091685555E0
2.095112250E0,1.401453192E0,5.837173060E-1,7.700710509E0,7.848932366E0
2.105083250E0,-5.319689723E-1,2.458431123E0,4.748582304E-1,2.559758761E0
2.115054250E0,1.477925856E0,8.063026795E-1,-5.953944880E0,6.187394321E0
2.125024250E0,1.273497841E0,-3.212563775E0,-5.236581566E0,6.274085532E0
2.134995250E0,5.953772387E-1,-2.613410697E0,8.260466802E-1,2.804771407E0
2.144966250E0,3.013043913E0,-5.763524455E-1,8.544713404E0,9.078697204E0
2.154936250E0,7.903696015E-1,2.960505511E0,2.198263648E0,3.771158980E0
2.164907250E0,4.014029638E0,1.258449155E0,1.396278845E0,4.432349583E0
2.174878250E0,3.461920333E0,-1.268609277E0,1.775007681E0,4.092055004E0
2.184849250E0,1.396421371E0,-2.609720812E0,3.493187442E0,4.578536214E0
2.194819250E0,1.111997891E-1,2.827909079E0,-8.979235786E-1,2.969124771E0
2.204790250E0,2.107595845E0,3.765844570E0,8.168981266E-1,4.392137079E0
2.214761250E0,8.249925003E-1,9.336310628E-1,-3.571929556E0,3.782982995E0
2.224731250E0,1.339672389E0,-1.306688976E0,-3.418427866E0,3.897153739E0
2.234702250E0,-6.534513460E-1,-2.447816965E-1,-6.727740256E0,6.763830697E0
2.244673250E0,-5.666730012E-1,9.837873092E-1,-5.173719905E0,5.296822955E0
2.254644250E0,-5.247301925E-1,5.327459577E-1,-2.381742259E0,2.496368606E0
2.264614250E0,2.067330237E-1,-2.270416243E0,1.295323743E0,2.622096882E0
2.274585250E0,-1.703977861E-1,-4.261677932E0,9.929582577E0,1.080682860E1
2.284556250E0,1.929531172E0,-1.620226620E0,1.803670381E1,1.821183432E1
2.294526250E0,3.230033794E0,5.609470203E0,-3.161379004E-1,6.480680322E0
2.304497250E0,1.779425252E0,6.197067429E0,-8.046316622E0,1.031082975E1
2.314468250E0,-7.347337101E-1,4.693756763E0,-1.050272432E1,1.152728954E1
2.324438250E0,1.488350418E0,2.759776737E0,-9.389629049E0,9.899327668E0
2.334409250E0,1.384223202E0,-1.188980725E0,-3.358419646E0,3.822137040E0
2.344380250E0,9.803731200E-1,-2.934913418E0,4.222538717E0,5.234948084E0
2.354351250E0,8.268467255E-1,-2.259033760E0,7.361451548E0,7.744538588E0
2.364321250E0,2.093878716E0,4.739051342E-2,5.639440691E0,6.015801297E0
2.374292250E0,-4.398052689E-1,2.056879143E0,5.400722265E-2,2.104066839E0
2.384263250E0,3.115138491E-1,3.752247747E0,-5.630382770E0,6.773301570E0
2.394233250E0,1.483299593E0,1.821983919E0,-7.960450845E0,8.299914502E0
2.404204250E0,2.617366923E0,-1.899553666E0,-1.190487844E0,3.446182678E0
2.414175250E0,-1.130130472E0,-6.643997018E0,1.198587758E1,1.375067826E1
2.424145250E0,3.667983960E-2,-1.774525870E0,1.050308217E1,1.065199617E1
2.434116250E0,-1.152281114E0,5.685127326E0,1.871766236E0,6.095238578E0
2.444087250E0,1.265194649E0,5.195984348E0,-2.412178770E0,5.866649577E0
2.454058250E0,-2.205945720E0,-3.104839352E0,-2.136488984E0,4.367013751E0
2.464028250E0,-2.164375379E0,-3.597384532E0,-2.548200209E0,4.911111947E0
2.473999250E0,-1.683877071E0,-3.717786304E0,6.044570875E-1,4.125862984E0
2.483970250E0,-3.706098012E0,-3.145828333E-1,2.234461421E0,4.339002498E0
2.493940250E0,-2.063361366E0,-1.759193301E-1,3.868924257E0,4.388277868E0
2.503911250E0,-2.379077536E0,-3.419761616E0,9.392908752E-1,4.270485544E0
2.513882250E0,-1.607324446E0,-7.037021711E-1,-1.643697343E0,2.404252395E0
2.523852250E0,-1.330807279E0,-9.725168011E-1,-2.725740387E0,3.185356746E0
2.533823250E0,3.615602044E-1,2.841951460E-1,-2.750080007E0,2.788266972E0
2.543794250E0,6.659259421E-1,1.720683539E-1,-2.226589900E0,2.330400708E0
2.553764250E0,2.419961561E-2,-2.652895482E0,-1.086347764E0,2.866808596E0
2.563735250E0,1.427013272E0,-9.357302132E-1,1.244506177E0,2.112049605E0
2.573706250E0,1.485148629E0,2.532725261E0,-3.493372214E-1,2.956755010E0
2.583677250E0,4.536734757E-1,3.448897999E0,-2.202364885E0,4.117174774E0
2.593647250E0,8.173904622E-1,1.654198943E0,2.040029222E-1,1.856372404E0
2.603618250E0,-7.701749998E-1,3.525852912E0,1.131816298E-1,3.610764236E0
2.613589250E0,8.610359801E-1,2.262262301E0,3.048956927E0,3.892987544E0
2.623559250E0,-3.362137671E-1,-4.327445367E-1,1.007779312E0,1.147138472E0
2.633530250E0,-8.764138649E-1,-7.853447968E-1,-4.039012159E0,4.206956968E0
2.643501250E0,-7.511334689E-1,6.839575857E-1,-2.896301914E0,3.069293769E0
2.653472250E0,-2.301797957E0,2.310673153E0,-6.853223258E-1,3.332739255E0
2.663442250E0,-7.207482666E-1,-1.421492039E0,1.387692794E0,2.113246074E0
2.673413250E0,-2.828249679E0,-2.186998695E0,1.286019069E0,3.799447932E0
2.683384250E0,-2.066073013E0,-3.299808618E0,1.477451647E0,4.164163539E0
2.693354250E0,-4.177946315E-1,-7.749607265E-2,-3.984553531E0,4.007146721E0
2.703325250E0,-1.779394700E-1,1.923827797E0,-2.852257177E0,3.445017686E0
2.713296250E0,-4.831080669E-1,6.234008968E-3,1.860967013E0,1.922662345E0
2.723266250E0,-1.044878726E0,-1.503106890E0,1.981257103E0,2.697495428E0
2.733237250E0,5.721065629E-2,-2.516769086E0,3.525724858E-1,2.541988798E0
2.743208250E0,-1.073436235E-1,-1.959780572E0,-1.204018886E0,2.302590720E0
2.753179250E0,2.868157949E-1,-1.447297556E0,8.954326648E-1,1.725900684E0
2.763149250E0,9.914205569E-1,-3.917146245E-1,3.976457477E-1,1.137750943E0
2.773120250E0,1.171554560E0,-5.525162709E-1,3.788964168E0,4.004255709E0
2.783091250E0,-1.147467028E0,1.754190716E0,2.477370547E0,3.245185738E0
2.793061250E0,-1.380765013E0,3.548099521E0,-1.392678130E0,4.054019561E0
2.803032250E0,-1.811754654E0,1.673535100E0,-5.595941500E0,6.115368830E0
2.813003250E0,-1.421947829E0,-4.362894112E-1,-9.145632341E0,9.265790576E0
2.822973250E0,-1.141639839E0,-9.095118830E-1,-8.518054778E0,8.642210978E0
2.832944250E0,-1.475772729E-1,-3.204085312E0,2.530953262E0,4.085788315E0
2.842915250E0,1.747385872E0,-4.807345067E0,2.049115327E1,2.111992629E1
2.852886250E0,-6.068753497E-1,2.687751612E-1,1.662677055E1,1.664001312E1
2.862856250E0,-1.432650427E0,8.613518175E0,-2.346608094E0,9.041667553E0
2.872827250E0,1.739618833E-2,5.442313510E0,-1.144766711E1,1.267549452E1
2.882798250E0,7.523473509E-1,-4.899777852E0,-6.305731500E0,8.020978698E0
2.892768250E0,3.415359832E0,-3.837083244E0,-7.393926984E-1,5.189854735E0
2.902739250E0,2.907456538E-1,1.488769810E0,1.503072976E0,2.135461766E0
2.912710250E0,1.002109852E0,2.638126000E0,2.558452717E0,3.809148626E0
2.922680250E0,2.140966782E0,1.737129418E0,4.265269584E0,5.078767764E0
2.932651250E0,7.599576482E-1,-8.872834003E-1,1.473481387E0,1.880413481E0
2.942622250E0,2.037596049E0,-5.521104741E-1,-1.166386206E0,2.411862437E0
2.952592250E0,1.729363292E0,2.434759255E0,-2.954286997E0,4.200781081E0
2.962563250E0,1.465041809E0,2.464888788E0,-3.680543926E0,4.665664779E0
2.972534250E0,2.227648246E0,-1.211729025E0,-5.439164785E0,6.001267990E0
2.982505250E0,8.297755958E-1,-2.464856628E0,-4.546024228E0,5.237402221E0
2.992475250E0,2.235558651E-1,2.746174067E-2,-4.023341036E0,4.029640737E0
3.002446250E0,1.196602497E0,2.276593241E0,-3.318770846E0,4.198687206E0
3.012417250E0,9.854128352E-1,-9.317567378E-1,1.743865410E0,2.209134591E0
3.022387250E0,1.262487680E0,-8.194057050E0,1.351482858E1,1.585518961E1
3.032358250E0,-3.399439253E-1,-5.231797959E0,2.513089550E1,2.567195319E1
3.042329250E0,-9.284132999E-1,1.115166059E0,1.163746305E1,1.172757830E1
3.052299250E0,1.721174559E0,1.742605627E0,3.618806099E0,4.369768165E0
3.062270250E0,9.646167742E-1,4.604974687E0,-1.433076543E0,4.918331604E0
3.072241250E0,3.305245652E0,1.049500365E1,-1.544928632E1,1.896708197E1
3.082212250E0,2.641945986E0,9.737366472E0,-1.579994619E1,1.874658593E1
3.092182250E0,3.989142134E0,-1.645178736E0,-1.261121040E1,1.332900956E1
3.102153250E0,2.011838041E0,-1.144174622E1,-1.975318671E0,1.178401174E1
3.112124250E0,-1.408167989E0,-6.767531143E0,5.348551068E0,8.740103740E0
3.122094250E0,-4.510971632E0,5.561409599E0,3.242793295E0,7.860906446E0
3.132065250E0,-4.010032481E0,2.193984656E0,-4.072334272E-1,4.589092311E0
3.142036250E0,-1.246230374E0,-4.385930680E0,-7.191853643E0,8.515411728E0
3.152006250E0,4.136966470E-1,-6.142763168E0,-1.120527195E1,1.278525728E1
3.161977250E0,7.978498714E-1,-5.513261286E0,-2.704072360E0,6.192303429E0
3.171948250E0,4.290099201E0,-2.134635125E0,2.316827289E1,2.365862395E1
3.181919250E0,3.696873445E0,2.324894751E0,1.809288620E1,1.861248344E1
3.191889250E0,3.516154062E-1,1.340143528E0,1.443370566E0,2.000734030E0
3.201860250E0,-2.719478604E-1,1.923406506E-1,-6.099707780E0,6.108795754E0
3.211831250E0,1.689307526E0,3.469626671E-1,-7.000858437E0,7.210142985E0
3.221801250E0,1.835430907E0,1.075980651E0,-3.851560950E0,4.400120763E0
3.231772250E0,7.979779986E-1,3.161893559E-1,1.994099343E-1,8.811974335E-1
3.241743250E0,4.443489209E-1,-1.489446625E-1,4.545704970E0,4.569799137E0
3.251713250E0,2.943850339E-1,4.080831445E0,3.674080414E-1,4.107899281E0
3.261684250E0,9.165004751E-1,7.848860242E0,1.263865138E0,8.002620528E0
3.271655250E0,1.803006342E0,6.186073494E0,7.604387571E0,9.967198577E0
3.281626250E0,2.447814480E0,-8.231499696E-1,8.014804807E0,8.420597823E0
3.291596250E0,1.791128162E0,-1.580348317E0,1.521001124E-1,2.393486022E0
3.301567250E0,-9.115699567E-3,-6.811754805E-1,-9.393468331E0,9.418138373E0
3.311538250E0,-1.043600232E0,-3.697076928E0,-1.154697388E1,1.216922697E1
3.321508250E0,-1.611041521E0,-2.861818544E0,-8.146049656E0,8.783142100E0
3.331479250E0,-3.149130256E0,-2.410213521E-1,-6.300871879E0,7.048127347E0
3.341450250E0,-1.328289468E0,-1.064616587E0,-4.962581626E0,5.246425238E0
3.351420250E0,-2.325014473E-1,-4.741264221E0,-3.649651331E0,5.987787419E0
3.361391250E0,2.461519184E-1,-7.217021813E0,-1.326596407E0,7.342060518E0
3.371362250E0,2.417362619E0,-6.552395123E0,8.786115117E0,1.122378469E1
3.381333250E0,3.348545453E0,-4.096666875E0,1.274673833E1,1.380125988E1
3.391303250E0,3.797784839E-1,3.169898981E0,4.009825782E0,5.125543293E0
3.401274250E0,-3.749364485E0,8.758475329E0,-3.025975031E0,9.996256750E0
3.411245250E0,-4.636439724E0,9.654578669E0,-1.954535912E0,1.088704153E1
3.421215250E0,-4.770314065E0,5.357388550E0,1.066052663E0,7.252170478E0
3.431186250E0,-2.541545201E0,-2.797523730E0,2.478054087E0,4.519551204E0
3.441157250E0,-7.427169136E-1,-6.309885947E0,1.649665012E0,6.564120941E0
3.451127250E0,-3.690418996E-1,-4.939718428E0,-1.095667056E0,5.073213613E0
3.461098250E0,-1.462281631E0,6.336238763E-1,-4.668102981E0,4.932639479E0
3.471069250E0,-3.483517024E0,1.666420793E0,-2.125897338E0,4.408093534E0
3.481040250E0,-2.981723887E0,-3.245915124E-1,1.870835359E0,3.534976935E0
3.491010250E0,-2.138032064E0,7.647014943E-1,3.026662663E0,3.783733125E0
3.500981250E0,-3.390160671E0,2.903768516E0,2.928136495E0,5.338449616E0
3.510952250E0,-1.779652709E0,1.935562867E-1,3.458077251E0,3.893960204E0
3.520922250E0,-1.321915126E0,-1.975378312E0,6.984136569E-1,2.477369717E0
3.530893250E0,3.069551405E-1,-4.493544591E0,1.385497749E-1,4.506146967E0
3.540864250E0,1.823749193E0,-3.687490126E0,3.123505418E0,5.165261914E0
3.550834250E0,-2.889889857E-1,-9.186411408E-1,1.739090574E0,1.987926609E0
3.560805250E0,1.320799039E-1,-1.547600693E0,1.073820105E0,1.888280335E0
3.570776250E0,8.767117806E-2,-2.435085822E0,1.168314033E0,2.702274390E0
3.580747250E0,-8.159758745E-1,-1.561165356E0,-8.205362642E-1,1.943279099E0
3.590717250E0,-2.314089389E0,3.687537780E-1,-3.151377341E0,3.927106848E0
3.600688250E0,-2.674614380E0,3.885160806E0,-2.550485886E0,5.362183774E0
3.610659250E0,-3.184563506E0,5.772056712E0,-3.371165991E0,7.404244968E0
3.620629250E0,-3.101578360E0,3.880756390E0,-4.156235969E-1,4.985258414E0
3.630600250E0,-1.283916995E-2,-1.686034985E0,2.715749835E0,3.196588178E0
3.640571250E0,1.303203890E0,-4.149921269E0,5.551978040E-1,4.385023548E0
3.650541250E0,7.782082701E-1,-2.700722198E0,-4.350591570E-1,2.844078932E0
3.660512250E0,1.184126805E0,5.334999561E-3,-7.597187895E-1,1.406896368E0
3.670483250E0,3.020515924E-1,2.772317261E0,-2.821209632E0,3.966888194E0
3.680454250E0,-6.064604898E-1,2.407634607E0,-3.150856939E0,4.011533145E0
3.690424250E0,-1.378153354E0,-8.033293703E-1,-7.543492913E-1,1.764564421E0
3.700395250E0,-1.807287819E0,-2.404989911E0,2.849738197E0,4.143823539E0
3.710366250E0,-9.089714541E-1,-4.774926934E-1,4.440159804E0,4.557328983E0
3.720336250E0,-9.541434608E-1,2.762101298E0,-5.311242324E-1,2.970132366E0
3.730307250E0,-2.616499489E0,1.728273810E0,-1.256794685E0,3.378244043E0
3.740278250E0,-1.720736749E0,4.885874927E-2,1.916148942E0,2.575839456E0
3.750248250E0,-2.255588727E0,1.898955789E0,9.066125411E-1,3.084746326E0
3.760219250E0,-1.257729070E0,2.464254950E0,-3.598885220E-1,2.789973946E0
3.770190250E0,-1.245782332E0,1.107079360E0,8.118052018E-1,1.853813910E0
3.780161250E0,-2.157822843E0,8.209376755E-1,-5.816927075E-1,2.380862133E0
3.790131250E0,-1.950208534E0,7.530842462E-1,-2.566807804E0,3.310430713E0
3.800102250E0,-1.013167741E0,-1.280823525E0,-6.900316733E-1,1.772896355E0
3.810073250E0,-5.473596114E-1,-3.330056849E0,2.184696938E0,4.020171872E0
3.820043250E0,1.968194716E-2,-1.463788166E0,3.075084625E0,3.405761094E0
3.830014250E0,-1.003735889E0,-2.197299442E0,4.861376263E0,5.428497927E0
3.839985250E0,-7.686182517E-1,-3.810688913E0,5.021057290E0,6.350050419E0
3.849955625E0,-8.209938819E-1,-1.426364524E0,3.455470562E-2,1.646129016E0
3.859926625E0,-2.128355800E0,5.576413554E-1,-2.287835391E0,3.174122409E0
3.869897625E0,-7.224851089E-1,-1.842662012E0,-3.136741176E0,3.708980079E0
3.879868625E0,7.260953991E-1,-2.642240101E0,-1.004055220E0,2.918351276E0
3.889838625E0,-1.922606753E0,-1.431132928E0,-1.300979170E0,2.727105606E0
3.899809625E0,8.311995390E-1,-5.404815316E-1,2.171899722E0,2.387501071E0
3.909780625E0,3.240284986E-1,-1.934276479E-1,3.216404226E0,3.238466438E0
3.919750625E0,8.014967798E-1,1.613000338E0,-6.332177871E-1,1.909222864E0
3.929721625E0,6.349565298E-1,6.219423088E-1,-3.534928375E-1,9.565245509E-1
3.939692625E0,7.183830678E-2,7.135646698E-1,5.499961209E-1,9.037870398E-1
3.949662625E0,8.566510800E-1,4.987531695E-1,-8.347765732E-1,1.295938935E0
3.959633625E0,6.523786743E-1,6.954026332E-1,-4.900083661E-2,9.547689977E-1
3.969604625E0,-6.233230557E-1,1.982988756E0,-4.199670256E0,4.685937078E0
3.979575625E0,-4.927017398E-2,1.887687619E0,-1.785787023E0,2.599005077E0
3.989545625E0,-2.058844100E-1,9.010816598E-1,-2.399941133E0,2.571780315E0
3.999516625E0,2.042858543E-1,-3.397673759E-1,-4.292517024E-1,5.843214903E-1
4.009487625E0,-9.192758560E-2,-2.770269858E0,2.586632203E0,3.791241475E0
4.019457625E0,2.125923358E-2,-4.959191995E0,2.366134286E0,5.494781948E0
4.029428625E0,-2.359538919E0,3.315615689E0,-5.109749612E0,6.532248648E0
4.039399625E0,-3.769416341E-1,3.402470230E0,-2.554719855E0,4.271473071E0
4.049370625E0,-1.420086515E0,4.104279365E0,8.140499479E-1,4.418645961E0
4.059340625E0,-1.311000128E0,1.969075306E0,9.812616044E-1,2.561025817E0
4.069311625E0,-7.167937946E-1,-1.044233076E1,5.298408855E0,1.173154728E1
4.079282625E0,1.126842948E0,-3.835079696E0,3.173352347E0,5.103702227E0
4.089252625E0,2.637915062E-1,6.877419037E-1,-7.170376235E-1,1.027967820E0
4.099223625E0,2.831968070E-1,-2.131421202E-1,-5.912914968E-1,6.893878655E-1
4.109194625E0,7.640324266E-1,-1.126552927E0,-1.100532525E0,1.750439626E0
4.119164625E0,5.689218769E-1,-3.086196966E0,2.979665083E-1,3.152311510E0
4.129135625E0,1.324883611E0,3.273092982E-1,2.207777653E0,2.595521166E0
4.139106625E0,-1.079712271E0,6.521955103E-1,4.045709560E0,4.237794640E0
4.149077625E0,-1.597607689E0,-1.389008125E0,4.070512279E0,4.588111171E0
4.159047625E0,-5.378976470E-1,-2.641850969E-1,2.617213141E0,2.684945488E0
4.169018625E0,-2.196180285E0,9.614062142E-1,-1.003370512E-1,2.399495213E0
4.178989625E0,-2.799887760E0,1.295822803E0,-2.370305690E0,3.890613996E0
4.188959625E0,-3.039619801E0,-3.178069881E-1,-4.397838827E0,5.355490282E0
4.198930625E0,-2.193965360E0,-1.252008154E0,-2.670425143E0,3.675891574E0
4.208901625E0,-1.635954168E0,2.853081635E-1,-3.083939649E0,3.502631946E0
4.218871625E0,-3.448657386E0,1.212055299E0,-3.606734523E0,5.135255566E0
4.228842625E0,-3.710034943E0,1.390150378E0,-5.603525339E0,6.862679766E0
4.238813625E0,-1.613852424E0,-1.916243959E0,-1.316836234E0,2.830294724E0
4.248784625E0,1.034736219E0,-2.432679693E0,7.895711643E0,8.326516191E0
4.258754625E0,1.691768327E0,-7.433974564E-1,1.388614666E1,1.400856127E1
4.268725625E0,-6.128213102E-1,3.995880758E0,5.778195704E0,7.051961328E0
4.278696625E0,-1.153123040E0,6.027702243E0,-4.346721883E0,7.520430719E0
4.288666625E0,-1.118445762E0,2.263371225E0,-6.707715881E0,7.167093035E0
4.298637625E0,-1.465242661E0,1.592854342E0,-7.917067428E0,8.207562225E0
4.308608625E0,-3.147857317E0,2.754563652E0,-8.165972874E0,9.174951748E0
4.318579625E0,-3.860396678E0,6.893165588E-1,-6.526777886E0,7.614239910E0
4.328549625E0,-1.209346650E0,-4.295847891E0,6.009245507E0,7.485176015E0
4.338520625E0,1.023874358E0,-5.969946955E0,1.709356079E1,1.813500498E1
4.348491625E0,-1.327046350E0,2.226832559E0,1.021464136E1,1.053844074E1
4.358461625E0,-3.375948429E0,7.461911976E0,-5.067974179E0,9.631278234E0
4.368432625E0,-1.391440713E0,1.084945017E-1,-5.786903377E0,5.952825296E0
4.378403625E0,1.515795348E0,-6.214957570E0,-2.469403131E0,6.857206790E0
4.388373625E0,6.179618899E-1,-1.948191391E0,-1.731296820E0,2.678565898E0
4.398344625E0,-6.823209500E-1,6.935385409E-1,3.105410625E0,3.254248413E0
4.408315625E0,1.194363525E0,-6.984756374E-1,3.078471333E0,3.375108619E0
4.418286625E0,1.770397297E0,-4.808347279E0,4.064780254E0,6.540408906E0
4.428256625E0,7.920682177E-2,-2.917866738E0,1.271465934E0,3.183841334E0
4.438227625E0,-1.240241802E0,2.377974605E0,-4.826608719E0,5.521694910E0
4.448198625E0,-2.065867337E0,-9.622306716E-1,-3.039734114E0,3.799168225E0
4.458168625E0,-1.084570064E-1,-5.470232795E0,-4.677380759E-1,5.491264760E0
4.468139625E0,-5.622300310E-1,1.699873298E-2,7.181550264E-3,5.625327895E-1
4.478110625E0,1.856563475E0,3.855277733E0,2.862499745E0,5.148193773E0
4.488080625E0,3.631109810E0,3.483826342E0,1.534591223E0,5.260891052E0
4.498051625E0,8.788173629E-1,1.602534699E-1,-4.037318805E0,4.134966054E0
4.508022625E0,-8.100910905E-1,-5.943954327E0,1.584975511E-1,6.000996758E0
4.517993625E0,1.554749791E0,-5.808975447E0,3.135278202E0,6.781696842E0
4.527963625E0,9.966038212E-1,-2.906788310E-1,1.299172381E0,1.662997966E0
4.537934625E0,5.467986441E-1,1.737502762E0,6.460875088E-1,1.932701135E0
4.547905625E0,1.561355976E0,-8.467002153E-2,2.125693855E0,2.638858818E0
4.557875625E0,-5.223333457E-1,2.911709327E0,8.551663404E0,9.048857956E0
4.567846625E0,-1.760301349E0,5.089953863E0,3.299652205E0,6.316169396E0
4.577817625E0,8.886655359E-1,3.861088403E0,-2.253215196E0,4.557928127E0
4.587788625E0,-4.103086606E-1,5.317428678E-1,-9.613008474E0,9.636443099E0
4.597758625E0,-3.260693596E-1,-3.529348962E0,-1.045869244E1,1.104295581E1
4.607729625E0,2.875070455E-1,-2.695291597E0,-8.648208536E0,9.063044079E0
4.617700625E0,1.641901079E0,-8.428536245E-1,-3.832646962E0,4.253871662E0
4.627670625E0,-4.990707464E-1,-3.418241340E-1,1.623119822E0,1.732175888E0
4.637641625E0,-3.441074352E-1,-1.560326281E0,3.362699223E0,3.723006056E0
4.647612625E0,1.703499595E0,-3.678417586E0,2.863397877E0,4.963034778E0
4.657583625E0,6.116282590E-1,-1.921888276E0,1.047906414E0,2.272850969E0
4.667553625E0,2.093334998E-1,-1.456249058E-2,2.699205723E0,2.707350017E0
4.677524625E0,1.659801306E0,7.344857150E-1,3.810914031E0,4.221075146E0
4.687495625E0,4.353310525E-1,1.786681354E0,2.717325659E0,3.281097701E0
4.697465625E0,-2.801211350E-1,3.092123704E0,8.798422337E-2,3.106032530E0
4.707436625E0,-1.522422875E0,7.675178057E-1,1.249624245E0,2.113862754E0
4.717407625E0,-1.416881509E0,2.443549959E0,1.155558917E0,3.051852884E0
4.727377625E0,-9.382234660E-1,6.020296744E0,-1.852319566E0,6.368306206E0
4.737348625E0,-4.097633712E-1,2.402894854E0,-2.888874196E0,3.779868228E0
4.747319625E0,5.663632815E-1,3.204285872E-1,6.484737575E-1,9.186729888E-1
4.757290625E0,9.462315202E-1,7.434801945E-1,2.472256572E0,2.749576231E0
4.767260625E0,2.044964272E0,1.807578426E0,1.216211500E0,2.988041006E0
4.777231625E0,2.442235798E0,4.170287121E0,-2.040818596E0,5.246022389E0
4.787202625E0,2.167836492E0,-1.331995726E0,4.748137915E-1,2.588276609E0
4.797172625E0,1.358805758E-1,-4.551527628E0,-1.416236562E0,4.768709812E0
4.807143625E0,1.116477735E0,-2.067471374E0,1.333037115E0,2.701471519E0
4.817114625E0,-2.122782672E0,-3.122549691E0,2.307394327E0,4.424996206E0
4.827085625E0,-9.047795121E-2,4.158539772E-2,-1.193422562E0,1.197569629E0
4.837055625E0,1.018841075E0,-3.183808923E-4,-3.522801250E-1,1.078025289E0
4.847026083E0,1.630555288E-1,-1.380468851E0,-1.881626396E0,2.339401472E0
4.856997083E0,2.036286419E0,-2.298236125E0,-2.862659959E0,4.197996392E0
4.866967083E0,6.699609594E-1,-8.458614323E-1,-5.210405336E0,5.320963542E0
4.876938083E0,1.716550727E0,9.283983895E-1,-3.708231661E0,4.190399983E0
4.886909083E0,3.984710822E0,-3.288664410E0,1.229725819E1,1.333850790E1
4.896880083E0,3.999216594E0,1.172536308E0,1.540919314E1,1.596282581E1
4.906850083E0,1.683583979E0,6.718195261E0,8.676103263E0,1.110150307E1
4.916821083E0,2.297772880E0,8.040823163E0,6.038350022E0,1.031485668E1
4.926792083E0,3.300430177E0,2.795537431E0,-7.772634770E0,8.895039075E0
4.936762083E0,-2.161762039E-1,-4.947018092E0,-8.392724388E0,9.744616093E0
4.946733083E0,9.374921255E-1,-1.083406907E0,-1.258469328E1,1.266598464E1
4.956704083E0,2.329320070E0,4.123995884E0,-1.298014281E1,1.381727836E1
4.966674083E0,1.218380744E0,1.900285445E0,-1.089271489E1,1.112415273E1
4.976645083E0,2.799412381E0,-6.391106111E0,-6.078670083E0,9.253819588E0
4.986616083E0,1.106725968E0,-6.247537086E0,1.563564177E0,6.534622785E0
4.996587083E0,6.125515343E-1,-1.059956649E0,8.532595634E0,8.619971910E0
5.006557083E0,-2.839943672E-1,-1.839045509E0,9.774521434E0,9.950075902E0
5.016528083E0,1.285478202E0,-3.701183135E0,8.778994378E0,9.613633709E0
5.026499083E0,1.329735923E0,-4.198107003E0,9.376390952E0,1.035900610E1
5.036470083E0,6.068380737E-1,1.376383109E0,1.017203971E1,1.028265894E1
5.046440083E0,2.004640118E0,3.578008906E0,5.808073221E0,7.110164856E0
5.056411083E0,7.138276191E0,9.334688026E-1,3.246011603E-1,7.206366414E0
5.066382083E0,3.816961513E0,-1.319228623E0,-8.082068253E-1,4.118586848E0
5.076352083E0,3.806487688E-1,1.859701091E-1,-2.822069172E0,2.853691080E0
5.086323083E0,1.989692150E0,2.605235997E0,-3.520627840E0,4.810504115E0
5.096294083E0,1.417888838E0,-1.278385529E0,-4.809779263E-1,1.968760545E0
5.106264083E0,-1.275634706E0,3.932436714E0,-2.181845251E0,4.674585662E0
5.116235083E0,8.386314963E-1,6.994553969E0,-4.919174820E-1,7.061803652E0
5.126206083E0,3.264609257E0,6.891565790E0,9.595140553E-1,7.685832412E0
5.136177083E0,4.226122183E0,-6.458984098E0,3.966574513E0,8.678265821E0
5.146147083E0,1.930570953E0,-1.133081401E1,1.719058598E0,1.162194531E1
5.156118083E0,1.396758317E0,5.500548854E-1,-3.173634768E0,3.510762283E0
5.166089083E0,-1.218628812E-1,4.829551915E0,-4.334112947E0,6.490297165E0
5.176059083E0,2.436077949E0,-5.305634844E-1,1.508344826E0,2.913945349E0
5.186030083E0,-3.895121976E-1,-3.379889160E0,3.951349533E-1,3.425128044E0
5.196001083E0,-1.058757531E0,-1.023417106E0,-1.594083134E0,2.170126982E0
5.205972083E0,-1.546414293E0,1.686517381E0,-2.449743623E0,3.352160774E0
5.215942083E0,-1.690193233E-1,4.074337235E0,-4.753098108E0,6.262645852E0
5.225913083E0,-2.491362642E-1,3.805855020E0,-5.214000789E0,6.460062348E0
5.235884083E0,-1.168497051E0,5.139142395E0,-2.519911380E0,5.841756866E0
5.245855083E0,4.420513671E-1,7.403987703E0,4.762261280E0,8.814395942E0
5.255825083E0,4.672403316E-1,3.776548775E0,6.988276398E0,7.957175453E0
5.265796083E0,3.696466771E0,-4.027926715E0,4.781931313E0,7.263258724E0
5.275767083E0,2.113313691E0,-9.751008026E0,-4.773577396E0,1.106052862E1
5.285737083E0,2.205279759E-1,-9.049015873E0,-8.023166910E0,1.209564087E1
5.295708083E0,-1.463987263E0,-3.887544423E0,-4.277709535E0,5.962806321E0
5.305679083E0,-1.442364406E0,-2.763138886E0,2.956398427E0,4.296003171E0
5.315649083E0,-1.425461860E0,-1.285072697E0,5.503091809E0,5.828153464E0
5.325620083E0,-2.006862207E0,-8.626192600E-2,3.986354474E0,4.463850247E0
5.335591083E0,8.292114126E-1,6.514754257E-1,6.864859217E0,6.945380038E0
5.345562083E0,1.603229641E0,-1.713424805E0,1.043627188E1,1.069681918E1
5.355532083E0,-1.830528163E0,-2.915431372E0,2.240972296E0,4.107618565E0
5.365503083E0,-4.433025251E-1,-1.406134327E0,1.581703409E0,2.162294279E0
5.375474083E0,-1.522579873E0,2.139709923E0,-4.471702609E0,5.185820306E0
5.385445083E0,2.097943700E-1,-1.622276361E0,3.016230061E0,3.431244388E0
5.395415083E0,-1.081499984E0,-3.761807067E0,3.584030369E0,5.307175172E0
5.405386083E0,-4.713720473E-1,8.320599568E-1,3.080166441E0,3.225203975E0
5.415357083E0,-3.455242813E0,5.336712211E0,-1.851209764E0,6.621644638E0
5.425327083E0,-1.954904287E0,1.784651493E0,-4.808457207E0,5.488888087E0
5.435298083E0,-3.105725205E-1,-4.665667324E0,-3.831098034E0,6.045016048E0
5.445269083E0,-1.637663455E0,-3.143077219E0,-4.971347187E0,6.105339372E0
5.455240083E0,7.003900158E-1,1.008949340E0,-2.057535785E0,2.396242570E0
5.465210083E0,1.268194197E-1,2.638996651E0,-8.099001789E-1,2.763390090E0
5.475181083E0,-2.171875895E-1,1.357417665E0,-1.673474289E0,2.165702972E0
5.485152083E0,1.199980653E0,-1.796695588E0,-2.862077576E-1,2.179445683E0
5.495122083E0,-8.600138868E-1,-1.215083572E0,3.713642675E-1,1.534263143E0
5.505093083E0,6.042994685E-1,-2.195597318E-1,-1.803922747E0,1.915077440E0
5.515064083E0,2.073397381E0,6.102203956E-1,-2.561748208E0,3.351700988E0
5.525035083E0,-1.388018337E0,1.886747679E0,-4.482645673E0,5.057719243E0
5.535005083E0,2.688616635E-1,2.729313621E-1,-1.799448457E0,1.839780659E0
5.544976083E0,1.466432130E0,-2.545145624E0,4.849542668E0,5.669766620E0
5.554947083E0,7.907559563E-1,-1.246150121E0,7.011714962E0,7.165356364E0
5.564917083E0,-9.914490621E-1,2.250968988E0,-2.539962652E0,3.535709674E0
5.574888083E0,-9.759029967E-1,3.621598729E-1,-5.039554372E0,5.145935746E0
5.584859083E0,-1.845598776E0,-1.348354189E0,-2.697108911E0,3.535348687E0
5.594830083E0,-7.909993467E-1,-3.759031686E0,2.123894082E0,4.389410582E0
5.604800083E0,-2.476686496E-1,-5.234651985E0,3.730644039E0,6.432777480E0
5.614771083E0,-6.574501837E-1,-1.976984543E-1,2.228967378E0,2.332299508E0
5.624742083E0,-2.750013495E-1,2.140432639E0,3.423299181E-1,2.185009702E0
5.634712083E0,-3.170228764E-1,6.841508362E-1,-6.654628426E-1,1.005687161E0
5.644683083E0,-9.402560312E-1,-2.546872306E0,4.343884814E-1,2.749424177E0
5.654654083E0,-1.035717309E0,-9.757438794E-1,7.822685766E-1,1.623801277E0
5.664625083E0,-1.104593416E0,1.077186054E0,1.921307940E0,2.464118627E0
5.674595083E0,-2.151391637E0,1.114320259E0,1.946462662E0,3.107879101E0
5.684566083E0,-1.411819575E0,-4.349425051E-1,5.890128368E-1,1.590391655E0
5.694537083E0,-1.501706921E0,-5.129773986E-1,-5.391059157E0,5.619767639E0
5.704507083E0,-1.545427868E0,6.070789790E-1,-1.019998590E1,1.033424426E1
5.714478083E0,-9.680530366E-1,-1.347984937E0,-8.174170670E0,8.340938569E0
5.724449083E0,-1.503141974E0,-4.001796678E0,-8.270672532E0,9.310093264E0
5.734420083E0,-1.460617805E0,-5.342705607E0,-1.090160266E1,1.222795355E1
5.744390083E0,3.964142071E0,-8.397246040E0,2.927783674E1,3.071514101E1
5.754361083E0,5.641259176E0,1.070616415E0,4.095138179E1,4.135197329E1
5.764332083E0,-4.858297996E0,1.199371402E1,-4.311622801E0,1.363973338E1
5.774302083E0,-8.455232293E0,6.396565071E0,-1.449920500E1,1.796201390E1
5.784273083E0,-3.251242522E0,-5.733192608E0,-1.499481032E0,6.759328279E0
5.794244083E0,-6.467872451E0,-5.037726533E0,-3.208003532E0,8.803598657E0
5.804215083E0,-1.440118929E0,4.782823598E-1,-2.158200865E0,2.638281168E0
5.814185083E0,-3.290939415E-1,7.831664166E-1,6.189915115E-1,1.051096071E0
5.824156083E0,-3.239934007E0,4.118515581E-1,3.342531592E-1,3.283065526E0
5.834127083E0,-3.989005601E-1,8.212206808E-1,2.001789016E0,2.200155524E0
5.844098083E0,6.659814175E-1,3.579123386E0,-1.512451326E0,3.942228363E0
5.854068583E0,-7.488319317E-1,1.879457956E0,-1.342865700E-1,2.027595707E0
5.864039583E0,1.501004816E0,-1.283641299E0,-1.100779862E0,2.261076457E0
5.874010583E0,1.889361823E0,-2.687960650E0,-1.882174280E0,3.786476010E0
5.883980583E0,5.860718335E-1,-3.237427890E-2,-2.328830220E0,2.401661608E0
5.893951583E0,7.498147756E-1,5.797964555E-1,2.263170666E-1,9.744770608E-1
5.903922583E0,2.708487666E-1,-2.182778467E0,1.374188649E0,2.593506378E0
5.913893583E0,7.752929945E-1,-2.417616096E0,2.562153420E0,3.607017738E0
5.923863583E0,-1.988418773E-3,-3.361342669E0,1.503716170E0,3.682362124E0
5.933834583E0,-1.487359535E-1,-3.274815864E0,2.497088528E-1,3.287688525E0
5.943805583E0,-1.649028835E-1,-4.624223721E-1,-1.503649512E0,1.581767766E0
5.953775583E0,8.385271235E-1,4.440322942E-1,-3.005473523E0,3.151692167E0
5.963746583E0,8.199266919E-1,7.339119862E0,-3.290605978E0,8.084741668E0
5.973717583E0,2.205372766E-1,9.905971520E0,-1.912423680E0,1.009129688E1
5.983688583E0,1.963249433E0,3.450855939E0,2.107387977E0,4.494868089E0
5.993658583E0,4.167683940E0,-6.985324724E0,4.073403143E0,9.097085472E0
6.003629583E0,4.314312228E0,-7.224319139E0,4.062040833E0,9.343674478E0
6.013600583E0,1.937088698E0,-8.414046845E-1,1.001961333E0,2.337563043E0
6.023570583E0,1.516514994E0,-2.574561211E-1,-7.074306482E-1,1.693091700E0
6.033541583E0,1.925730774E0,-1.661681332E0,-5.051269269E-1,2.593217514E0
6.043512583E0,2.748265909E0,-9.012699401E-1,8.551804322E-1,3.016054804E0
6.053483583E0,3.726826099E0,-2.523365915E-3,9.989482623E-1,3.858385255E0
6.063453583E0,4.019307919E0,-2.318242666E-1,1.883671752E0,4.444861967E0
6.073424583E0,2.551405068E0,2.237706334E0,4.667949200E-2,3.393991225E0
6.083395583E0,2.098461325E0,6.932128510E-1,-1.010121707E0,2.429903260E0
6.093366583E0,6.126058769E-1,-7.591483936E-1,-2.311269277E0,2.508696457E0
6.103336583E0,4.655709516E-1,-7.543630323E-1,-1.296115456E0,1.570265956E0
6.113307583E0,7.823622783E-1,1.167285508E-1,7.174714869E-1,1.067933342E0
6.123278583E0,4.692066041E-1,1.104758307E-1,-8.432094276E-1,9.712681840E-1
6.133248583E0,1.041188110E0,2.320618390E0,-2.566189753E0,3.613124996E0
6.143219583E0,9.052320135E-1,2.954698934E0,-2.040444959E0,3.703121172E0
6.153190583E0,1.714408892E0,1.446518999E0,7.412123519E-1,2.362416308E0
6.163161583E0,2.640693805E0,9.341929802E-1,1.654791266E0,3.253354335E0
6.173131583E0,3.162505177E0,1.272909319E0,7.405054235E-1,3.488564950E0
6.183102583E0,3.130230009E0,2.795607890E0,-5.389536542E-1,4.231339554E0
6.193073583E0,4.013847789E0,2.167844678E0,-3.948782605E-1,4.578914005E0
6.203044583E0,4.510790661E0,1.569858412E0,-2.240797464E0,5.275685841E0
6.213014583E0,4.427828611E0,1.434179620E0,-3.350632324E0,5.734917119E0
6.222985583E0,5.053291821E0,8.288866729E-1,-2.124844839E0,5.544166027E0
6.232956583E0,3.983327370E0,2.040093541E-3,-1.684050733E-1,3.986886175E0
6.242926583E0,4.382085551E0,-1.283138146E0,2.556348304E0,5.232975628E0
6.252897583E0,2.583571478E0,-1.418998786E0,1.502616894E0,3.308512758E0
6.262868583E0,3.343073629E0,-2.485001748E0,1.412434702E0,4.398448222E0
6.272839583E0,2.195717478E0,-2.768694911E0,-6.983528459E-1,3.602019357E0
6.282809583E0,1.627464596E0,-3.000992802E0,-1.887726796E-1,3.419098409E0
6.292780583E0,2.142668029E0,-2.402652487E0,2.561119047E0,4.113769078E0
6.302751583E0,2.612911929E0,-1.404143642E0,5.367828754E0,6.132904177E0
6.312721583E0,1.983011706E0,2.682167521E-1,4.925390410E0,5.316365897E0
6.322692583E0,-3.239364780E-2,-2.979434118E-1,2.857680470E0,2.873352970E0
6.332663583E0,-4.882218225E-1,-1.462730697E0,1.290725493E0,2.010948517E0
6.342634583E0,-1.751956495E0,-7.592934045E-1,9.153155369E-1,2.117470322E0
6.352604583E0,-1.636855078E0,-1.223967832E0,-1.371289015E-2,2.043912875E0
6.362575583E0,-2.408650122E0,-1.356061111E0,9.747694409E-1,2.930984921E0
6.372546583E0,-2.426630310E0,2.850070319E-1,-8.237580800E-1,2.578437714E0
6.382517583E0,4.383057139E-1,1.345516242E0,-1.195463240E-2,1.415156801E0
6.392487583E0,3.913647782E-1,-1.238665393E-1,-3.268827438E-2,4.117982910E-1
6.402458583E0,-3.647094782E-2,-6.459126770E-3,-1.471376390E0,1.471842495E0
6.412429583E0,-5.263704461E-1,2.634018624E-1,-2.783157706E-1,6.510806830E-1
6.422400583E0,8.114188470E-1,-1.137321744E0,4.045688510E-3,1.397110469E0
6.432370583E0,5.240171611E-1,6.998327762E-1,-3.554996020E-1,9.437901603E-1
6.442341583E0,2.451605961E-1,-8.396908656E-1,-3.935708231E-1,9.592092891E-1
6.452312583E0,9.170882665E-1,-1.647537795E-1,-4.532048213E-1,1.036141547E0
6.462282583E0,1.490257195E-1,9.579931945E-1,-6.055353141E-1,1.143080331E0
6.472253583E0,-6.955096373E-1,5.596492893E-1,-9.634556633E-1,1.313464045E0
6.482224583E0,1.683803140E-1,7.354162994E-1,-1.555669266E0,1.728958047E0
6.492195583E0,-1.039200860E0,-5.283403730E-1,-9.367514294E-1,1.495521721E0
6.502165583E0,-1.648101759E0,-2.067274615E0,2.186393800E0,3.430769825E0
6.512136583E0,-1.061168046E0,-4.935289747E-1,1.958199193E0,2.281269942E0
6.522107583E0,-1.115156045E0,1.556142890E-1,2.496182209E-1,1.153298777E0
6.532077583E0,-9.688153674E-1,-4.194745731E-1,-1.313820825E0,1.685433859E0
6.542048583E0,-9.190646254E-1,-9.450784492E-1,7.450019324E-1,1.514226185E0
6.552019583E0,-1.418024202E0,9.602548975E-1,6.966156381E-1,1.848825425E0
6.561990583E0,1.473413706E0,4.397155872E-1,8.453769904E-1,1.754696556E0
6.571960583E0,1.205439467E0,-3.473564771E-1,2.739395390E0,3.012976590E0
6.581931583E0,-1.233801533E0,9.958243874E-1,-8.369897443E-1,1.792898286E0
6.591902583E0,-1.583670266E0,1.064436493E0,-5.373576567E0,5.702311959E0
6.601873583E0,-2.709700305E0,4.385312337E-1,-5.955761610E0,6.557886987E0
6.611843583E0,-5.367659915E-1,-1.440866788E0,-1.086349518E0,1.882649757E0
6.621814583E0,4.986027499E-1,-4.142833274E0,5.014073961E0,6.523236154E0
6.631785583E0,-6.596395274E-1,-8.207844785E-1,4.720257806E0,4.836284237E0
6.641756583E0,5.876141463E-1,2.206119967E0,8.375329506E-1,2.431813549E0
6.651726583E0,6.009223360E-1,8.075621697E-1,-1.985976976E0,2.226514958E0
6.661697583E0,-1.263233931E0,-3.500269005E-1,2.566296172E-1,1.335716121E0
6.671668583E0,-8.666335197E-1,-8.214551541E-1,-3.230756217E-1,1.237020649E0
6.681638583E0,-3.001996696E-1,-2.588252467E-1,2.745902756E0,2.774363404E0
6.691609583E0,3.507759288E-2,3.475093818E-1,2.208466455E0,2.235915314E0
6.701580583E0,1.126575731E-2,4.793333969E-1,7.511111033E-1,8.910978129E-1
6.711551583E0,-2.166250873E-2,-7.297792912E-1,6.677023262E-1,9.893803487E-1
6.721521583E0,-7.196619270E-1,1.360112062E-1,6.082981235E-1,9.520708715E-1
6.731492583E0,-4.869497972E-1,1.803620446E-1,1.777636004E0,1.851928815E0
6.741463583E0,-2.163975283E0,3.955957139E-1,-3.016899567E0,3.733760570E0
6.751434583E0,-1.950696192E0,4.741381457E-1,-2.403847073E0,3.131853024E0
6.761404583E0,-1.496833997E0,-2.921566271E0,-7.712302029E-2,3.283597029E0
6.771375583E0,-1.256817343E0,-2.863862731E0,-1.704691989E0,3.561920037E0
6.781346583E0,-1.691539262E0,-1.487305667E0,9.640889168E-3,2.252437828E0
6.791316583E0,-1.441991354E0,-2.089736402E0,1.175000324E0,2.797671006E0
6.801287583E0,-3.579688080E-1,-9.959846011E-1,2.284011896E0,2.517307557E0
6.811258583E0,-1.833902883E0,-1.476231041E0,8.365383393E-1,2.498450372E0
6.821229583E0,2.614140283E-1,-3.178476262E-1,-1.341875181E0,1.403564537E0
6.831199583E0,6.803283651E-1,-9.186847025E-1,1.282156398E0,1.717775683E0
6.841170583E0,9.625108995E-2,5.312946787E-1,1.572871774E-1,5.623856010E-1
6.851142208E0,3.112344984E-1,1.080486515E0,1.457377571E-1,1.133824288E0
6.861113208E0,-1.311690977E0,2.229825164E0,-1.124701990E0,2.820923262E0
6.871083208E0,-8.031823128E-1,-1.155082661E0,2.122507122E0,2.546439527E0
6.881054208E0,-1.348769779E0,-2.083341887E0,5.118932079E0,5.688845135E0
6.891025208E0,-1.319365740E0,8.703583422E-1,2.430246082E0,2.899024943E0
6.900995208E0,-9.657902373E-1,3.628886407E0,5.512532723E-1,3.795450896E0
6.910966208E0,-3.066455305E0,3.138693561E0,-6.411915182E0,7.769633306E0
6.920937208E0,-1.718892829E0,-8.796764651E-1,-8.765052862E0,8.975220048E0
6.930908208E0,-2.860482748E0,-2.083661730E0,-7.724162521E0,8.496275326E0
6.940878208E0,-1.879248625E0,-2.624720381E0,2.540967203E0,4.108192645E0
6.950849208E0,-7.550774889E-1,-1.705713205E0,1.092814434E1,1.108620486E1
6.960820208E0,5.040756706E-1,-1.183874059E-1,1.084100445E1,1.085336286E1
6.970791208E0,6.771517190E-1,-7.596801978E-1,4.988311129E0,5.091060437E0
6.980761208E0,-1.656950642E0,-9.336755016E-1,-3.131708477E0,3.663991452E0
6.990732208E0,-7.262877725E-2,-1.452401590E0,-1.725867096E0,2.256847924E0
7.000703208E0,4.808384702E-2,7.912668568E-1,-4.803493506E0,4.868466407E0
7.010674208E0,-8.681967728E-1,8.612659219E-1,-6.550853797E0,6.664025067E0
7.020644208E0,4.876256257E-1,-2.657503381E0,-8.570877939E-1,2.834555072E0
7.030615208E0,4.613784248E-1,-2.545320748E0,6.665669723E0,7.150012631E0
7.040586208E0,-5.668078161E-1,2.028457582E-2,4.848732244E0,4.881791365E0
7.050556208E0,-1.987439364E-2,3.093864713E0,-2.483430601E0,3.967344377E0
7.060527208E0,-1.239435471E0,1.646806016E0,-3.816548992E0,4.337535770E0
7.070498208E0,1.753260570E-1,-1.492196863E0,3.583366710E0,3.885602615E0
7.080469208E0,2.624661617E-2,1.417973185E-1,1.177810496E0,1.186605633E0
7.090439208E0,-2.034650368E0,3.614569207E0,-1.663396028E0,4.468981877E0
7.100410208E0,-1.200122082E0,5.026429127E0,7.092503017E-1,5.216159389E0
7.110381208E0,-7.462617881E-1,2.188728301E0,-2.683185521E0,3.542163573E0
7.120352208E0,2.804275510E0,-3.550289011E-1,-4.739827268E0,5.518692706E0
7.130322208E0,1.058022755E0,1.919743225E0,-7.220126100E0,7.545531598E0
7.140293208E0,1.567991688E0,-1.459705055E0,-2.541837269E-1,2.157300663E0
7.150264208E0,1.692372783E0,-1.674331783E0,3.672048506E0,4.376237286E0
7.160235208E0,2.697365896E-1,1.524092255E0,1.993887674E0,2.524124221E0
7.170205208E0,-9.741695166E-1,5.769847634E0,-3.136899635E0,6.639298704E0
7.180176208E0,-1.585640632E-1,1.399286068E0,6.123403037E-1,1.535612161E0
7.190147208E0,2.402879943E0,-6.829712774E0,5.705493178E0,9.217996583E0
7.200118208E0,4.346862508E-1,-3.767051435E0,4.056225777E0,5.552710708E0
7.210088208E0,2.148688030E-1,1.633264741E-1,6.261525380E0,6.267339485E0
7.220059208E0,8.404246911E-2,-1.959428278E-1,9.813557446E-2,2.347068796E-1
7.230030208E0,-3.781599746E-1,-2.177933464E0,-5.244143770E0,5.690996664E0
7.240000208E0,7.175162181E-2,-2.123720127E0,-1.148782345E1,1.168269759E1
7.249971208E0,-1.381880954E0,-1.027193822E0,-5.901303567E0,6.147365770E0
7.259942208E0,-2.282862918E0,-4.660755370E0,8.111673875E0,9.629816030E0
7.269913208E0,2.398582971E0,-3.234607193E0,1.757863995E1,1.803398088E1
7.279883208E0,5.924941959E-1,-2.752257510E0,1.023826879E1,1.061829169E1
7.289854208E0,-1.142400854E0,1.369531634E0,5.475759584E-1,1.865619479E0
7.299825208E0,-8.236264446E-1,5.064899129E0,-1.239094228E1,1.341145086E1
7.309796208E0,-2.546393420E0,-1.261680619E0,-6.564570195E0,7.153288704E0
7.319766208E0,-2.458027958E0,-3.496160166E0,-4.934775192E0,6.528173063E0
7.329737208E0,8.083315902E-1,2.045236752E0,-3.674357572E0,4.282207012E0
7.339708208E0,-1.173719638E-1,4.575799420E0,-2.206327543E0,5.081298824E0
7.349679208E0,-3.746669210E-1,-1.686195492E0,2.493708837E-1,1.745226740E0
7.359649208E0,1.522110926E0,-2.092720236E0,1.475903304E0,2.979025045E0
7.369620208E0,2.124464478E0,-2.197725704E-1,2.496602039E0,3.285524470E0
7.379591208E0,1.964858002E0,2.752636410E0,8.106242396E0,8.783441237E0
7.389561208E0,-7.892781457E-1,2.038200797E0,6.407130405E0,6.769678169E0
7.399532208E0,-2.340316636E0,9.508046275E-1,-1.150727363E0,2.775839487E0
7.409503208E0,-2.347031140E0,5.295928466E-1,-2.515386804E0,3.480832448E0
7.419474208E0,-1.358284222E0,1.549106059E0,-2.218602603E0,3.027682797E0
7.429444208E0,1.377190317E-1,3.256910228E0,-2.997165799E-2,3.259958445E0
7.439415208E0,-4.229181446E-1,1.781052532E0,-4.896333842E0,5.227340908E0
7.449386208E0,-8.385523396E-1,-2.591136314E0,-5.140491348E0,5.817371290E0
7.459357208E0,-1.250414788E0,-4.512381981E0,-4.026677458E0,6.175699121E0
7.469327208E0,1.920316252E-1,-4.161105823E0,7.677102376E0,8.734390574E0
7.479298208E0,2.219547513E-1,-1.012274067E0,1.329062762E1,1.333096941E1
7.489269208E0,6.899691081E-1,5.030779456E0,2.710111949E0,5.755823667E0
7.499240208E0,7.777521873E-1,6.979484525E0,-6.283559443E0,9.423440028E0
7.509210208E0,6.363144726E-2,-2.251828237E0,-7.671230602E0,7.995158429E0
7.519181208E0,2.935865344E0,-8.743690059E0,-1.400823301E-1,9.224480702E0
7.529152208E0,5.997974779E-1,-9.639497530E-1,4.210843116E0,4.361210370E0
7.539123208E0,4.665281773E-1,5.573471235E0,1.156527216E0,5.711285788E0
7.549093208E0,9.947842408E-2,3.439374931E0,-2.244546699E0,4.108185215E0
7.559064208E0,-1.660526653E0,-9.505944201E-1,-6.085734104E0,6.379430860E0
7.569035208E0,-1.221848435E0,-4.070250616E0,-4.964314740E0,6.534850765E0
7.579005208E0,-1.223634760E-1,-1.091205046E0,3.716268075E-1,1.159227224E0
7.588976208E0,5.501267697E-1,4.788324074E0,5.061625273E0,6.989330247E0
7.598947208E0,5.024057058E-1,4.728924549E0,4.208313026E0,6.350199793E0
7.608918208E0,-1.258824034E-1,9.836709496E-1,-1.603066796E0,1.885014077E0
7.618888208E0,-9.572848043E-1,-1.399706191E0,-2.773244337E0,3.250608523E0
7.628859208E0,-4.638338534E-1,-3.612522097E0,3.991766072E0,5.403670430E0
7.638830208E0,-2.725167580E-1,-1.922077141E0,2.665539209E0,3.297536231E0
7.648801208E0,-5.270991919E-1,2.164081118E0,-2.640940558E0,3.454800670E0
7.658771208E0,-5.725390376E-1,-1.371693057E0,-3.399923183E0,3.710636124E0
7.668742208E0,-3.089960015E-1,-3.332006603E0,-5.890297937E-1,3.397749642E0
7.678713208E0,-1.584664147E0,-2.812693747E0,4.037560880E0,5.169555535E0
7.688684208E0,-5.162463576E-1,3.610835175E0,3.904564791E0,5.343245003E0
7.698654208E0,8.655805092E-2,1.491730548E0,3.307436603E0,3.629309743E0
7.708625208E0,-2.253807519E0,-1.369009770E0,-1.254645249E0,2.920268957E0
7.718596208E0,7.298681688E-1,-4.035781572E0,1.483625722E-1,4.103931273E0
7.728567208E0,1.467071231E0,-4.141197515E0,2.208577552E0,4.917278684E0
7.738537208E0,1.463268056E0,1.076637001E0,9.139139593E-1,2.033602557E0
7.748508208E0,1.568957648E0,3.477349381E0,-1.319972096E0,4.036819683E0
7.758479208E0,1.871314758E-1,-1.839729634E0,1.716906822E0,2.523369246E0
7.768450208E0,-1.046647289E0,-3.427155713E0,1.163012947E0,3.767421657E0
7.778420208E0,-1.457212533E0,-1.670262706E0,-2.759016307E0,3.539126567E0
7.788391208E0,-1.388752601E0,9.851947340E-1,-2.118196555E0,2.717719466E0
7.798362208E0,-2.053323305E0,6.248577306E-1,-5.639282817E-1,2.219143728E0
7.808332208E0,-1.353359697E0,-2.070111685E0,3.352956008E0,4.166444389E0
7.818303208E0,-3.609389451E0,5.850536871E-1,-1.022589725E0,3.796797304E0
7.828274208E0,-5.198307739E-1,2.850605924E0,-2.971633347E0,4.150515982E0
7.838245208E0,-1.490955499E0,2.769469374E-1,1.820815353E0,2.369602594E0
7.848214083E0,-9.351984090E-1,-3.506966990E-1,4.239229594E0,4.355301573E0
7.858185083E0,-2.058915144E0,1.189261976E0,-3.475390856E0,4.210916435E0
7.868156083E0,-4.160655002E0,3.525858759E0,-5.441652190E0,7.704174751E0
7.878127083E0,-1.046366769E0,5.049950722E-1,-6.165684838E0,6.274198989E0
7.888097083E0,1.625200554E0,-4.540877217E0,2.334568092E0,5.358269396E0
7.898068083E0,9.083107918E-1,-1.650929472E0,9.024373367E0,9.218997304E0
7.908039083E0,-8.905587181E-2,4.067836009E0,9.143877007E0,1.000828194E1
7.918010083E0,8.492830036E-1,3.650815804E0,-9.312842828E-1,3.862256863E0
7.927980083E0,2.615210762E0,-1.528387035E0,-6.568436959E0,7.233232911E0
7.937951083E0,2.497048767E0,-2.793154106E0,-1.109941162E1,1.171468740E1
7.947922083E0,1.329316531E0,-1.443186086E0,-5.806993825E0,6.129522478E0
7.957893083E0,-7.221008737E-1,-5.299609289E-1,7.492370707E-1,1.167751877E0
7.967863083E0,-5.178260560E-1,-1.747230775E0,3.305937377E0,3.774941211E0
7.977834083E0,9.779418477E-1,-5.164861958E0,8.785560801E0,1.023807833E1
7.987805083E0,-1.115291335E-1,-5.339969695E0,1.516854045E1,1.608142825E1
7.997776083E0,-3.347175158E0,4.428263352E0,1.140402934E0,5.666887744E0
8.007746083E0,2.204899361E0,6.815199984E0,-9.040563138E0,1.153431029E1
8.017717083E0,1.414165770E0,2.127601801E0,-1.222759212E1,1.249161973E1
8.027688083E0,1.391714070E0,-2.389205645E0,-8.445016623E0,8.886139624E0
8.037659083E0,3.059802635E-1,-5.593755226E0,3.625158514E0,6.672742742E0
8.047629083E0,-1.338892516E0,-7.279154912E-1,1.039348196E1,1.050461619E1
8.057600083E0,4.833820090E-2,6.032794583E0,7.828237697E0,9.883230874E0
8.067571083E0,-5.504600975E-1,3.176755719E0,-6.439287168E-1,3.287769367E0
8.077541083E0,-7.365701012E-1,-2.644704703E0,-3.549462215E0,4.487279855E0
8.087512083E0,7.546713267E-1,-1.322600712E0,-3.608242519E0,3.916403393E0
8.097483083E0,1.700682553E0,4.247768283E-2,3.177749453E0,3.604471818E0
8.107454083E0,-5.240300249E-2,6.493608971E0,4.186412280E0,7.726302564E0
8.117424083E0,-3.664215430E-1,5.104385376E0,3.192677979E0,6.031766532E0
8.127395083E0,-3.264436910E-1,2.374041768E0,-2.964787427E0,3.812165302E0
8.137366083E0,-1.720907780E0,-2.301735684E0,-8.232672647E0,8.719885874E0
8.147337083E0,7.220671792E-2,-6.200932438E0,-9.613866261E0,1.144041963E1
8.157307083E0,3.169428427E-1,-6.280825285E0,-4.261755992E0,7.596827177E0
8.167278083E0,8.849472915E-1,-3.467764625E0,1.018320673E0,3.720954205E0
8.177249083E0,1.965598990E0,-4.191701963E0,9.630645431E0,1.068565750E1
8.187220083E0,2.076686732E0,2.846202385E0,7.794206318E0,8.553545927E0
8.197190083E0,2.269290361E0,4.460080099E0,3.808851718E0,6.288826968E0
8.207161083E0,2.502713841E0,2.345066183E0,-1.561715287E0,3.768536402E0
8.217132083E0,1.636168030E0,-7.499445838E-1,-9.898412240E-1,2.054080902E0
8.227103083E0,-1.834597898E-1,-4.469249994E0,-9.013015151E-1,4.562915453E0
8.237073083E0,-8.555545809E-1,-4.152728224E0,-1.650270199E0,4.549782091E0
8.247044083E0,-6.914985935E-1,-8.015316439E-1,-2.131528206E0,2.379923481E0
8.257015083E0,1.655873585E0,4.775251454E0,-3.160584367E0,5.961060084E0
8.266986083E0,1.207259852E0,2.319059230E0,2.487566922E0,3.608808841E0
8.276956083E0,1.692158921E0,-2.895784143E0,6.209164149E0,7.057101887E0
8.286927083E0,1.856654692E0,-7.509599528E-1,1.827859493E0,2.711489964E0
8.296898083E0,4.569350526E-1,4.640784790E0,-4.469988205E0,6.459602748E0
8.306869083E0,2.882912959E0,2.469908623E0,-3.193689548E0,4.960976584E0
8.316839083E0,2.410756289E0,-1.401720849E-1,-2.753556177E0,3.662439859E0
8.326810083E0,9.760193563E-1,-1.172660853E0,-1.455537452E0,2.108633808E0
8.336781083E0,1.690863470E0,-1.275509868E0,4.592799030E0,5.057642497E0
8.346752083E0,1.388750116E0,-1.533740745E0,6.580703833E0,6.898307799E0
8.356722083E0,1.040558803E0,-1.634918919E0,3.288131436E0,3.816743486E0
8.366693083E0,1.990854504E-2,2.769621402E-2,-2.933598964E0,2.933797251E0
8.376664083E0,3.285729546E-2,2.803736689E0,-3.725251737E0,4.662565766E0
8.386635083E0,4.548176296E-1,2.366432202E0,-9.254405755E-1,2.581336998E0
8.396605083E0,-5.537006244E-1,1.948148706E0,1.705079659E0,2.647482655E0
8.406576083E0,-2.780788670E-1,7.751273721E-1,-9.460677981E-1,1.254270536E0
8.416547083E0,-3.741087312E-1,4.558904475E-1,-4.805662823E0,4.841713396E0
8.426517083E0,7.262149564E-2,-2.484665241E0,-4.159814465E0,4.845914942E0
8.436488083E0,-7.911378709E-2,-4.409795798E0,-9.740297681E-1,4.516778936E0
8.446459083E0,1.417502922E0,-1.920370339E0,1.793371446E0,2.985518032E0
8.456430083E0,1.392381932E-1,1.804167160E0,3.811201714E0,4.218964911E0
8.466400083E0,-6.628790311E-1,-1.275678853E0,2.553236416E0,2.930150396E0
8.476371083E0,-2.744692090E0,-4.541874459E-1,8.405927986E-1,2.906237630E0
8.486342083E0,-2.520301389E0,2.118457633E0,2.731533224E0,4.277973304E0
8.496313083E0,-2.389874859E0,3.866680388E0,1.380275016E0,4.750566091E0
8.506283083E0,-3.220392027E0,2.255162319E0,-1.150627960E0,4.096416312E0
8.516254083E0,-2.318971375E0,-4.561187813E-1,-6.300911055E0,6.729572996E0
8.526225083E0,-1.415490164E0,-3.266436512E0,-2.075324770E0,4.120702949E0
8.536196083E0,-2.909430375E0,-2.365827307E0,2.988071040E0,4.794840195E0
8.546166083E0,3.770307311E-1,2.036109541E0,1.479456072E0,2.544933104E0
8.556137083E0,-6.833537145E-1,2.103399298E0,-2.618660912E0,3.427629776E0
8.566108083E0,-1.916731324E0,-5.790287161E-1,-5.912170032E0,6.242025930E0
8.576079083E0,1.387010570E0,-5.436600780E0,-6.689039290E-1,5.650474213E0
8.586049083E0,-1.048669476E0,-4.673071361E0,4.811835144E0,6.789039774E0
8.596020083E0,8.845986512E-1,-1.039213943E0,8.341250764E0,8.452156216E0
8.605991083E0,2.696211802E-1,7.056791148E-1,6.161311120E0,6.207449824E0
8.615962083E0,-1.012232625E0,-2.615936109E0,2.454067639E0,3.726953795E0
8.625932083E0,-4.411648561E-1,-3.203669868E0,-1.503440766E0,3.566295163E0
8.635903083E0,-3.002850170E0,-9.227643049E-1,-2.121614837E0,3.790758845E0
8.645874083E0,-2.967466512E-1,1.424627024E0,-4.851878046E0,5.065406331E0
8.655845083E0,2.114333007E0,4.041797480E0,-5.747852747E0,7.337870409E0
8.665815083E0,3.690887358E0,1.658964716E0,-7.806558561E0,8.793018252E0
8.675786083E0,3.841014620E0,-2.633087747E0,-3.353036699E0,5.738414372E0
8.685757083E0,3.651630906E0,-2.810860060E0,6.767287899E0,8.187278428E0
8.695728083E0,2.056791435E0,-1.281018238E0,1.520905815E1,1.540087168E1
8.705698083E0,1.579851888E0,2.268952392E0,1.422087636E1,1.448714608E1
8.715669083E0,3.241834937E0,5.276037993E0,4.146783360E0,7.452642679E0
8.725640083E0,2.358524719E0,2.618374983E0,-2.097629558E0,4.101045741E0
8.735611083E0,2.557695795E0,-5.138813782E-1,-3.835550689E0,4.638677715E0
8.745581083E0,8.964723545E-2,3.012227350E0,-7.772061158E0,8.335855377E0
8.755552083E0,-9.297389368E-1,1.204449241E0,-6.105885363E0,6.292610629E0
8.765523083E0,-1.874704608E0,-1.943163955E0,-3.113516035E0,4.121211669E0
8.775494083E0,-1.952674744E0,-2.436520729E0,2.415724522E-1,3.131761352E0
8.785464083E0,-2.909423066E0,-9.711234096E-1,-1.777560575E0,3.545073321E0
8.795435083E0,-6.222631748E-1,1.325686872E0,-6.108573328E0,6.281665802E0
8.805406083E0,1.376039293E0,1.747868999E0,-6.370591155E0,6.747811633E0
8.815377083E0,1.707189919E0,-1.055682334E0,-8.959980905E-1,2.198129930E0
8.825347083E0,3.264535874E0,-3.915110829E0,6.179321714E0,8.010574519E0
8.835318083E0,3.151230576E0,-1.319464850E0,1.054790926E1,1.108736359E1
8.845289083E0,1.191512423E0,1.470670046E0,1.028586044E0,2.154196251E0
8.855260708E0,2.666593462E0,-2.900159322E0,-1.706609291E-1,3.943446454E0
8.865230708E0,4.784289422E-1,-4.188512599E0,1.556528807E-2,4.215776836E0
8.875201708E0,-3.829480037E-1,-7.516721436E-1,1.113196424E0,1.396734214E0
8.885172708E0,-1.166835345E0,-7.198594898E-1,2.393551880E-1,1.391759072E0
8.895142708E0,-1.646359873E0,5.873148054E-1,9.368116558E-2,1.750490124E0
8.905113708E0,-2.218950366E0,4.915843661E0,-2.204369895E0,5.826534671E0
8.915084708E0,-1.307931363E0,5.253119246E0,-4.154481804E-1,5.429414652E0
8.925055708E0,3.261797989E-2,-1.048473594E0,9.983711421E-1,1.448138718E0
8.935026708E0,1.093240681E0,-4.070865451E0,-5.229281902E-1,4.247419758E0
8.944996708E0,1.510635473E-2,-1.049531356E0,-3.786111311E0,3.928916279E0
8.954967708E0,1.769916802E0,-2.396912860E0,-3.818795493E0,4.843655206E0
8.964938708E0,5.963414446E-1,-1.258312330E0,1.070857320E0,1.756618467E0
8.974908708E0,1.395086013E0,-1.181949740E0,7.534977613E0,7.753654480E0
8.984879708E0,1.961206854E0,-1.663904151E-1,9.997467581E0,1.018937565E1
8.994850708E0,-3.127884690E-1,1.500106976E0,4.147436494E0,4.421468878E0
9.004821708E0,5.479977253E-1,2.569287900E0,-2.006903576E0,3.305934631E0
9.014792708E0,2.292117745E0,6.513374314E-1,-2.411148491E0,3.389938237E0
9.024762708E0,1.815519968E0,4.816389540E-1,-1.843139437E0,2.631587320E0
9.034733708E0,-2.558606353E-2,1.649098417E0,-2.742757539E0,3.200452961E0
9.044704708E0,-6.160528471E-1,3.053766262E0,-4.729196445E0,5.663065292E0
9.054674708E0,5.681617389E-1,-7.641167727E-1,-3.366645509E0,3.498711790E0
9.064645708E0,6.347329469E-1,-4.546957152E0,2.954001653E0,5.459288509E0
9.074616708E0,6.862029165E-2,-2.717484704E0,4.204828085E0,5.006996214E0
9.084587708E0,-5.986801481E-1,1.713514268E0,6.662095320E-1,1.933490162E0
9.094557708E0,-2.093552441E-1,2.917965848E0,-1.111614752E0,3.129543364E0
9.104528708E0,3.432725259E-1,-1.185679679E0,-4.647251810E0,4.808390762E0
9.114499708E0,4.248450214E-1,-4.432599354E0,-4.858868392E0,6.590677688E0
9.124470708E0,7.454001278E-1,-1.009728774E0,1.957989278E0,2.325703240E0
9.134440708E0,-2.949831858E-1,-5.113594741E-2,2.208633685E0,2.228832143E0
9.144411708E0,-2.482635672E-1,-3.874481743E0,4.158488901E0,5.689136448E0
9.154382708E0,-6.815346457E-1,-9.410084948E-1,9.763008267E-1,1.517613180E0
9.164353708E0,-1.830605200E0,-1.139492815E0,-1.810327202E-1,2.163869709E0
9.174323708E0,-1.530022940E0,2.005913350E0,1.222259275E0,2.803315233E0
9.184294708E0,-1.117463868E0,2.147282067E0,7.522764534E-1,2.534850220E0
9.194265708E0,1.249973908E-2,1.590905757E0,-1.099390563E0,1.933855471E0
9.204236708E0,3.697403495E-1,-2.265323610E0,7.117768836E-1,2.403128236E0
9.214206708E0,1.779822278E0,-3.247499135E0,2.554798792E0,4.499001538E0
9.224177708E0,-1.324468897E-1,-9.358556360E-2,1.893316734E-1,2.492928376E-1
9.234148708E0,-2.488928154E0,2.606855384E-1,-8.981030881E-1,2.658817305E0
9.244119708E0,-2.164277438E0,-2.763737641E0,-8.525983018E-1,3.612376841E0
9.254089708E0,-1.664338015E0,-2.833702208E0,1.331918542E0,3.545969012E0
9.264060708E0,-1.209635868E0,8.545208663E-1,1.703725444E0,2.257455477E0
9.274031708E0,-1.507032857E0,-1.583317825E-1,8.961910486E-1,1.760504297E0
9.284002708E0,-2.315371976E0,-3.434303641E-1,5.270680189E-2,2.341296608E0
9.293972708E0,-3.755766601E0,1.192703939E0,-7.419795066E-1,4.009845263E0
9.303943708E0,-2.616536911E0,-1.116592487E0,2.208575213E-1,2.853387852E0
9.313914708E0,-2.055744491E0,-2.445096256E0,4.700997663E-1,3.228865885E0
9.323885708E0,-1.793705907E0,-1.020959813E0,-1.154217566E0,2.364732122E0
9.333855708E0,-2.227666080E0,1.143031550E0,-2.153798497E0,3.302705747E0
9.343826708E0,-2.215435020E0,1.317023638E0,-1.949375744E0,3.231527407E0
9.353797708E0,-2.941449143E0,-1.777109755E0,-9.261691386E-1,3.559217809E0
9.363768708E0,-2.104915920E0,2.324806166E-1,-7.047204638E-1,2.231893635E0
9.373738708E0,-1.384137102E0,-1.574240315E0,1.605817326E0,2.640590345E0
9.383709708E0,-9.330997702E-1,-1.794213445E0,2.412391609E0,3.147937474E0
9.393680708E0,-8.146514802E-1,1.541973917E0,9.873374462E-1,2.004039877E0
9.403651708E0,-1.940971688E0,1.060601889E0,1.029316946E0,2.439618994E0
9.413621708E0,-7.744588161E-1,-3.997662404E-1,1.161672766E0,1.452268267E0
9.423592708E0,-1.238956731E0,1.581033903E0,-1.317660107E0,2.402271870E0
9.433563708E0,-4.246289230E0,1.605534029E0,-2.569883439E0,5.216609304E0
9.443534708E0,-4.154908651E0,8.819823146E-1,-3.328494181E0,5.396298010E0
9.453504708E0,-2.519975992E0,-6.090185004E-1,1.304834824E0,2.902374278E0
9.463475708E0,-5.775770717E-1,-2.334039212E0,5.271721578E0,5.794167991E0
9.473446708E0,-2.020862780E-1,-5.955304357E-1,4.237717504E0,4.284127100E0
9.483417708E0,-7.659983336E-1,1.896169006E0,-5.605713952E-1,2.120483585E0
9.493387708E0,5.003864430E-1,4.148918179E-1,-2.719956322E0,2.796548624E0
9.503358708E0,1.522051723E0,-3.984105342E0,7.584055048E-1,4.331848997E0
9.513329708E0,1.143851914E0,-2.420470999E0,1.907842972E0,3.287391346E0
9.523300708E0,1.932538395E0,3.839100534E-1,9.795951480E-1,2.200385927E0
9.533270708E0,-4.512902237E-1,-1.563165689E0,9.013377678E-1,1.859989142E0
9.543241708E0,1.208949478E0,-2.442990966E0,6.738658762E-1,2.807821026E0
9.553212708E0,1.055252417E0,-1.683985829E0,2.355303488E0,3.081691169E0
9.563183708E0,1.107203540E0,-3.203411713E-1,4.605268802E0,4.747317020E0
9.573153708E0,1.187091270E0,2.537390754E0,1.291590881E0,3.084760043E0
9.583124708E0,-2.737814011E-1,-7.520425647E-2,-5.349717003E-1,6.056456521E-1
9.593095708E0,9.641016345E-1,-2.566766873E-1,-5.655236360E0,5.742566775E0
9.603066708E0,3.825472867E-1,-9.844375196E-1,-4.296858582E0,4.424754607E0
9.613036708E0,3.147253592E-1,2.810698092E-2,-3.301825615E0,3.316910377E0
9.623007708E0,2.342418710E-1,2.596958971E-1,-8.396180677E-1,9.095436838E-1
9.632978708E0,1.552040338E-1,-3.769793487E0,3.669904917E0,5.263424106E0
9.642949708E0,2.207016930E-2,-3.624940413E-1,1.196911011E0,1.250793744E0
9.652919708E0,1.324793418E0,3.198411759E0,-3.874359244E0,5.195726603E0
9.662890708E0,1.005490858E0,1.183896863E0,1.743212276E0,2.334826051E0
9.672861708E0,1.314964248E0,-1.615854072E0,4.024916276E0,4.532115002E0
9.682832708E0,-1.166236152E0,7.649485391E-1,-4.282804799E-1,1.458998697E0
9.692802708E0,-2.958991667E0,2.917881063E0,-8.348457457E0,9.325577918E0
9.702773708E0,-1.112264524E0,-1.699210224E0,-5.395853289E0,5.765386411E0
9.712744708E0,1.831341803E0,-5.979584920E0,8.535765994E0,1.058151925E1
9.722715708E0,-2.348592274E-1,-1.907466996E0,1.016030903E1,1.034047720E1
9.732686708E0,-2.580881467E0,7.264826310E0,-1.850349054E0,7.928583863E0
9.742656708E0,2.034486646E0,7.012090353E0,-7.967410201E0,1.080685765E1
9.752627708E0,2.704403605E0,-3.502757872E0,-4.846474634E0,6.562882594E0
9.762598708E0,3.976005194E0,-9.899636647E0,9.078493441E0,1.400822852E1
9.772569708E0,-1.285631983E0,-1.970487117E0,9.943634605E0,1.021819643E1
9.782539708E0,-2.231055418E0,9.823335160E0,-2.725792428E0,1.043577818E1
9.792510708E0,4.209890605E0,4.737097203E0,-8.497153321E0,1.060023035E1
9.802481708E0,2.913049509E0,-8.102871476E0,-9.075140648E0,1.251001844E1
9.812452708E0,3.438227708E0,-8.036938273E0,-7.873527306E-1,8.776885034E0
9.822422708E0,-8.030780131E-1,2.905206639E-1,4.250515305E0,4.335460403E0
9.832393708E0,-7.529298066E-1,3.090288556E0,5.613130560E0,6.451668105E0
9.842364708E0,7.129663534E-1,2.656946433E0,8.805070621E-1,2.888421378E0
9.852335458E0,9.553278874E-1,-9.395291492E-1,-4.289102250E-1,1.406886767E0
9.862305458E0,8.112756633E-1,-1.906192010E0,3.017918152E0,3.660541784E0
9.872276458E0,-1.663176758E0,2.886197048E0,5.974379144E0,6.840284825E0
9.882247458E0,1.397847799E0,3.695108171E0,4.163634451E0,5.739656323E0
9.892218458E0,4.636259118E-1,1.849056527E0,-2.817597222E0,3.401883762E0
9.902188458E0,3.328622235E0,3.065723233E0,-1.031344059E1,1.126256817E1
9.912159458E0,5.155698202E0,1.838923010E-1,-9.422695638E0,1.074254315E1
9.922130458E0,3.711247363E0,2.529395564E0,-3.245349698E0,5.541073323E0
9.932101458E0,3.294644357E0,-1.791316150E0,5.759675233E0,6.872943603E0
9.942071458E0,8.246376474E-1,-1.511357896E0,9.154889068E0,9.315375665E0
9.952042458E0,-1.150602890E0,1.873771831E0,1.501684847E0,2.662698869E0
9.962013458E0,1.414154770E-1,1.190584908E0,-6.166402291E0,6.281879335E0
9.971984458E0,4.512731206E-1,-2.431336588E0,-7.305959133E0,7.713111168E0
9.981954458E0,2.162839315E0,-1.723147263E0,-8.528906626E-1,2.893878518E0
9.991925458E0,9.702787062E-1,-5.049349628E0,9.427421942E0,1.073841967E1
1.000189646E1,6.350733279E-1,6.473160088E-2,8.014950988E0,8.040332558E0
1.001186746E1,1.494041806E0,5.526139194E-1,-1.096727157E-1,1.596737663E0
1.002183746E1,8.606619776E-1,-2.759209557E0,-2.324117948E0,3.708840878E0
1.003180846E1,1.839313897E0,2.121630040E0,-1.955414164E-1,2.814715986E0
1.004177946E1,1.397383384E0,-2.820431367E0,1.690395547E0,3.572807093E0
1.005175046E1,-2.287340131E-1,-2.000399133E0,-1.210046196E0,2.349069547E0
1.006172046E1,-8.035078566E-1,1.695893391E0,-5.252750287E0,5.577908645E0
1.007169146E1,1.351382461E0,-6.774657145E-1,2.028672175E0,2.529961491E0
1.008166246E1,3.824379072E-1,-8.613562614E-1,6.264233810E0,6.334731138E0
1.009163346E1,9.132598020E-1,2.729950967E-1,5.056970304E0,5.146019670E0
1.010160346E1,3.110420519E0,-6.596840394E-1,3.048079260E0,4.404620984E0
1.011157446E1,2.752622377E0,1.596798289E0,-6.488105571E-1,3.247714560E0
1.012154546E1,1.011631750E0,2.885633084E-1,-4.167629269E0,4.298348672E0
1.013151646E1,1.709278252E0,-4.132424937E0,-5.956285520E0,7.448214901E0
1.014148646E1,1.517542935E0,-1.935356753E0,-6.227167726E-1,2.536990047E0
1.015145746E1,1.302206720E-1,1.744706240E0,5.501014293E0,5.772531120E0
1.016142846E1,-9.317165382E-2,2.328065988E-1,4.767196915E0,4.773787416E0
1.017139946E1,4.242701305E-1,7.007855800E-1,-2.786305262E0,2.904238728E0
1.018136946E1,7.542488654E-1,5.401277751E-2,-6.118663868E0,6.165213400E0
1.019134046E1,2.027940469E-1,1.133852883E0,-8.087036047E0,8.168653488E0
1.020131146E1,1.055455097E0,1.296351099E0,-5.467885138E0,5.717716285E0
1.021128246E1,3.708756449E0,-6.606795278E-1,6.236056078E0,7.285586266E0
1.022125246E1,3.568070394E0,-2.335039378E0,1.677817133E1,1.731157325E1
1.023122346E1,2.118097737E0,-1.091712292E0,1.034343447E1,1.061436811E1
1.024119446E1,7.998305427E-1,1.706698753E0,-4.995452918E0,5.339204003E0
1.025116546E1,-9.114350322E-1,1.984616328E0,-9.597401086E0,9.842739629E0
1.026113546E1,-1.853230416E0,-4.378459400E-1,-5.720395392E0,6.029021105E0
1.027110646E1,-1.975836149E0,-3.161031094E-1,-2.302694335E0,3.050614834E0
1.028107746E1,-1.153590598E0,1.761648255E0,-8.899462223E-3,2.105767091E0
1.029104846E1,5.845314211E-1,-6.368439379E-1,1.130002491E0,1.422727245E0
1.030101946E1,1.518823037E0,1.139446329E0,2.938226450E0,3.498333321E0
1.031098946E1,1.872592886E0,2.410792395E-1,-6.725157541E-1,2.004245682E0
1.032096046E1,2.918640617E0,-3.296339757E0,1.617987136E0,4.690650405E0
1.033093146E1,1.611053069E0,-6.205649972E-1,7.961867040E-1,1.901185466E0
1.034090246E1,2.476256068E0,7.699598953E-1,1.954686770E0,3.247380902E0
1.035087246E1,1.819414141E-1,2.169840918E0,1.167004257E0,2.470467814E0
1.036084346E1,-1.520406536E-1,3.097500511E0,-1.381080762E0,3.394850490E0
1.037081446E1,1.067248273E0,6.030373836E-1,-3.149487521E0,3.379636757E0
1.038078546E1,1.088702072E0,-2.485618629E0,-3.558785015E-1,2.736826937E0
1.039075546E1,7.235618006E-1,-1.663415616E0,1.814642447E0,2.565817687E0
1.040072646E1,1.868697325E0,-1.843635866E0,2.225045650E0,3.441199070E0
1.041069746E1,1.389006224E0,7.508117259E-1,-1.205706977E0,1.986651921E0
1.042066846E1,1.469065132E0,1.357401293E0,6.738085735E-1,2.110618067E0
1.043063846E1,1.634990547E0,-5.653202114E-1,-3.682085252E-1,1.768716639E0
1.044060946E1,4.285792726E-1,-2.271755255E0,1.888124406E-2,2.311905844E0
1.045058046E1,8.417379758E-1,-2.353749883E-1,5.246940494E-2,8.756010755E-1
1.046055146E1,1.820286472E0,-1.529841237E0,1.263001505E0,2.692402246E0
1.047052146E1,8.539270815E-1,-1.148873795E0,-3.112823725E-1,1.464922924E0
1.048049246E1,4.222291380E0,3.145714313E-1,-2.831011319E-1,4.243447411E0
1.049046346E1,2.976031915E0,-9.114429259E-1,1.132768809E0,3.312198566E0
1.050043446E1,2.682078059E0,3.817968696E-1,1.627638550E0,3.160461804E0
1.051040446E1,2.198851878E0,1.226911028E0,3.485063320E-1,2.541990739E0
1.052037546E1,7.490002584E-1,-6.703566697E-1,8.268740612E-1,1.301576031E0
1.053034646E1,1.339844736E0,-1.086544231E0,8.370669276E-1,1.917405362E0
1.054031746E1,1.274558819E0,-1.186305623E0,1.613729779E0,2.374014535E0
1.055028746E1,-1.396270147E-1,8.090456083E-1,-1.291917740E0,1.530719421E0
1.056025846E1,1.559626369E0,1.457114739E0,-1.625218973E0,2.682714014E0
1.057022946E1,1.621731401E0,-2.517405263E0,1.063927785E0,3.177937118E0
1.058020046E1,3.309878912E-1,-3.146168934E0,3.869202000E-1,3.187105142E0
1.059017146E1,8.279797697E-1,1.343667353E0,-5.107075095E-1,1.658859432E0
1.060014146E1,6.233709298E-1,1.524917589E0,1.513614337E0,2.237184242E0
1.061011246E1,6.306013043E-1,-1.051807384E0,1.371303633E0,1.839682155E0
1.062008346E1,7.970364507E-1,-2.028823033E0,2.098484421E0,3.025727494E0
1.063005446E1,3.135010254E-1,6.502492645E-1,-6.369857329E-1,9.627345547E-1
1.064002446E1,1.876807267E0,3.011494693E0,-1.911325573E0,4.030467870E0
1.064999546E1,1.941395465E0,2.783916382E0,-7.825346249E-1,3.483039939E0
1.065996646E1,1.642038488E0,-1.641559309E0,-1.765574952E0,2.916892572E0
1.066993746E1,1.603669790E0,-3.445271556E0,3.073381332E0,4.887466184E0
1.067990746E1,-6.092280500E-1,7.688723132E-1,1.483807570E0,1.778765965E0
1.068987846E1,1.353377824E0,1.956378078E0,5.992735308E-1,2.453196992E0
1.069984946E1,1.625738790E0,-5.057908782E-1,1.546348804E-1,1.709609011E0
1.070982046E1,1.939877820E0,-1.695032389E0,-7.406749928E-1,2.680458953E0
1.071979046E1,2.308023049E0,-3.324156716E-1,-4.758300376E-1,2.379891762E0
1.072976146E1,2.660433713E0,-6.193075535E-1,1.984809871E0,3.376524783E0
1.073973246E1,2.431424296E0,1.135529280E-2,-7.320176053E-1,2.539252414E0
1.074970346E1,3.185252308E0,-1.046900108E-1,-2.121454623E0,3.828493435E0
1.075967346E1,3.347845614E-1,-1.226173401E0,1.688097006E-1,1.282216295E0
1.076964446E1,-2.326673986E-1,-3.113230106E-1,5.581810534E-2,3.926471650E-1
1.077961546E1,-7.473490047E-1,-1.384269834E0,1.425691509E0,2.123047288E0
1.078958646E1,-1.307249578E0,-2.564369515E-1,-1.207607907E0,1.798048449E0
1.079955646E1,-1.689532059E0,-1.176515338E-1,-7.619372231E-1,1.857123796E0
1.080952746E1,-8.221484877E-1,-4.223467255E-1,2.107599646E-1,9.480108939E-1
1.081949846E1,-1.434337641E0,-2.049393538E-1,2.168008985E0,2.607601880E0
1.082946946E1,-1.519745435E0,1.152784413E0,5.325246406E-1,1.980434443E0
1.083943946E1,-1.159294703E0,1.388372240E0,-3.313394916E-1,1.838838640E0
1.084941046E1,-7.584691664E-1,-4.142322519E-1,2.991885763E-1,9.145368440E-1
1.085938125E1,-8.184812602E-1,-9.758637473E-1,-9.825667030E-1,1.608620201E0
1.086935225E1,-1.488592055E0,-6.467842045E-1,-1.600627922E0,2.279527552E0
1.087932325E1,-2.069189286E0,1.152304941E-1,-2.538832385E0,3.277269023E0
1.088929325E1,-1.783574290E0,-1.122430055E0,3.107309800E-1,2.130150281E0
1.089926425E1,-2.353090025E0,-1.671835022E0,-3.337988305E-1,2.905767827E0
1.090923525E1,-1.684509739E0,-2.802591220E0,1.696301234E0,3.683684091E0
1.091920625E1,2.461312339E-2,-3.067432082E0,2.303372027E0,3.836048498E0
1.092917625E1,-2.828962601E-1,-2.875558332E-1,1.646677669E0,1.695366036E0
1.093914725E1,-8.472326774E-1,1.532026927E0,1.035001025E0,2.033749452E0
1.094911825E1,-1.093990587E0,1.879692721E-1,-7.209920955E-1,1.323622851E0
1.095908925E1,-2.812267777E0,-4.762706253E-1,2.830362278E-1,2.866320510E0
1.096905925E1,-1.726453571E0,-3.628428862E0,1.696079040E0,4.361516027E0
1.097903025E1,-7.764478927E-1,-2.226174163E0,-1.409529805E-1,2.361903994E0
1.098900125E1,-2.692194327E0,-1.544752514E-1,6.457127023E-1,2.772853727E0
1.099897225E1,-2.141596527E0,9.120592225E-1,2.263112193E-1,2.338697175E0
1.100894225E1,-1.908262509E0,-1.352729952E-1,4.598571986E-1,1.967544976E0
1.101891325E1,-1.357445878E0,-1.084023496E0,3.522263306E-1,1.772520702E0
1.102888425E1,-1.191913834E0,-8.375367513E-1,-1.594573131E0,2.159812461E0
1.103885525E1,-6.705506511E-1,-1.532754028E-1,-2.304147953E0,2.404626647E0
1.104882525E1,3.752685995E-1,-8.595295912E-1,2.528177589E0,2.696534732E0
1.105879625E1,9.270100413E-1,-1.070719034E0,2.679417576E0,3.030687283E0
1.106876725E1,-4.200860457E-1,6.499946183E-1,1.302645627E0,1.515206560E0
1.107873825E1,-8.456449391E-1,1.960343367E-1,1.856583356E0,2.049499105E0
1.108870925E1,3.837241119E-1,-8.489043233E-1,1.824488574E0,2.048570550E0
1.109867925E1,-2.898420945E-2,-2.633112305E-1,-8.257771236E-1,8.672258912E-1
1.110865025E1,-1.434946190E0,7.669079411E-1,-4.262291012E0,4.562273888E0
1.111862125E1,-2.459237454E0,1.162790169E0,-1.820106670E0,3.273028891E0
1.112859225E1,-2.419286792E0,1.045932394E-1,4.670498586E-1,2.466175966E0
1.113856225E1,-1.851845357E0,-3.097047060E0,2.635224320E0,4.468270239E0
1.114853325E1,-1.472976334E0,-1.352325910E0,2.013348377E-1,2.009721464E0
1.115850425E1,-1.622498117E0,2.367001136E0,-1.844962599E0,3.411609812E0
1.116847525E1,-8.096304761E-1,-1.363015789E0,-1.736310223E0,2.351188368E0
1.117844525E1,-1.978847319E0,-2.512892090E0,-3.242434861E0,4.554541382E0
1.118841625E1,-2.532798058E0,-3.930685472E-1,-6.337791783E0,6.836459140E0
1.119838725E1,-2.193895340E0,-3.887536237E0,-2.273036088E0,5.009272184E0
1.120835825E1,3.521327752E0,-5.191690153E0,2.164931595E1,2.253988192E1
1.121832825E1,6.989958057E0,-4.798956066E-2,2.223810484E1,2.331083704E1
1.122829925E1,-2.399168423E0,7.184351665E0,-7.239981490E-1,7.608882395E0
1.123827025E1,-9.086171420E0,8.455687206E0,-1.041799465E1,1.620468358E1
1.124824125E1,-4.597233851E0,-7.944521275E-1,-1.347964238E1,1.426416741E1
1.125821125E1,-3.672848698E0,-3.591437329E0,-1.141962620E1,1.252182504E1
1.126818225E1,-4.884603450E0,-9.746913806E-1,-9.593617938E0,1.080957350E1
1.127815325E1,-6.175786780E-1,-9.167814338E-1,2.810698092E-2,1.105749349E0
1.128812425E1,3.141055544E-1,-4.155892445E0,8.643844759E0,9.596153215E0
1.129809525E1,2.065942620E0,-6.027886430E0,1.923528829E1,2.026326354E1
1.130806525E1,3.194293565E0,2.658152129E0,7.636395814E0,8.693895856E0
1.131803625E1,-1.879795048E0,6.333685284E0,-6.771423050E0,9.460516308E0
1.132800725E1,-2.711038733E0,2.225320469E0,-5.024979603E0,6.127985167E0
1.133797825E1,5.834883875E-1,-3.408374748E0,2.539929323E0,4.290538205E0
1.134794825E1,1.849250801E0,-2.672524585E0,-4.241921067E-1,3.277507457E0
1.135791925E1,-2.264373145E0,-5.511877835E-1,1.770299503E0,2.926628443E0
1.136789025E1,-2.786502314E0,4.958921269E-1,6.082747346E0,6.708973053E0
1.137786125E1,-2.933705968E0,-1.687345639E0,5.614833269E0,6.555922410E0
1.138783125E1,-1.486000861E0,-2.035925061E0,-2.140712428E-1,2.529627623E0
1.139780225E1,-7.331250679E-1,-4.028339821E-1,-3.711676256E0,3.804771769E0
1.140777325E1,-4.258898458E-1,5.995205757E-1,-3.934173921E0,4.002315770E0
1.141774425E1,1.245059762E0,3.720042452E-1,-2.997785019E0,3.267304086E0
1.142771525E1,1.058802262E0,-8.076238579E-1,-1.499497404E0,2.005445335E0
1.143768525E1,2.683683412E0,-7.140333241E-1,-1.460669553E0,3.137762863E0
1.144765625E1,3.109384100E0,2.300475317E0,-5.694743657E-1,3.909572511E0
1.145762725E1,9.200383329E-1,-1.467626570E0,4.084757266E0,4.436850257E0
1.146759825E1,1.504495019E0,-3.824301523E0,5.763986385E-1,4.149822020E0
1.147756825E1,-6.873985259E-1,-1.477632618E0,-1.661286938E0,2.327184818E0
1.148753925E1,-1.856574000E0,1.599636235E0,-4.183220285E0,4.848199155E0
1.149751025E1,-1.762385004E0,1.224787027E-2,-1.274052157E0,2.174709133E0
1.150748125E1,-3.118142352E0,-1.632990507E0,7.277853906E-2,3.520620178E0
1.151745125E1,-1.669457837E0,1.090064254E0,6.918659449E-2,1.995022890E0
1.152742225E1,-1.150867257E0,2.506866534E0,2.636280912E0,3.815606414E0
1.153739325E1,6.208137231E-1,-1.105861385E0,4.120520006E0,4.311267123E0
1.154736425E1,-1.076720908E-2,-3.754737491E0,-1.207381620E0,3.944101917E0
1.155733425E1,-3.404139318E-2,-3.003132006E0,-4.620845785E0,5.511095755E0
1.156730525E1,-2.793054119E-2,2.755763501E-1,-5.053200604E0,5.060786380E0
1.157727625E1,-5.498351763E-1,1.321701702E-1,2.588375843E0,2.649429595E0
1.158724725E1,-1.470405898E-1,-2.774826301E0,9.347158967E0,9.751444134E0
1.159721825E1,-7.712678444E-1,-1.039969696E0,5.994810485E0,6.133037079E0
1.160718825E1,-1.479728845E0,1.647712919E0,8.817893565E-2,2.216377865E0
1.161715925E1,8.164811470E-1,2.268572908E0,-5.040872920E-1,2.463162297E0
1.162713025E1,-3.375085965E-2,-5.781226900E-1,-2.619856668E-1,6.356110877E-1
1.163710125E1,-1.311137099E0,-1.819768994E0,1.676324807E0,2.800125808E0
1.164707125E1,-7.055572003E-1,5.829226694E-1,4.888418466E-1,1.037581877E0
1.165704225E1,-1.702847777E0,1.637200210E0,2.170410436E-1,2.372176615E0
1.166701325E1,-2.755736896E0,5.633397594E-1,1.105015585E0,3.022002146E0
1.167698425E1,-2.721834447E0,-1.755084755E0,-4.759727681E0,5.757057656E0
1.168695425E1,-2.325222195E0,-1.133690330E-1,-7.420545849E0,7.777146744E0
1.169692525E1,-5.546718469E-1,-1.911654187E0,2.771974322E0,3.412612522E0
1.170689625E1,1.873307562E-1,-3.564471140E0,1.134001987E1,1.188850697E1
1.171686725E1,-1.026518907E-1,1.038093617E0,2.214925289E-2,1.043391757E0
1.172683825E1,-1.436493948E0,4.228879145E0,-1.042939322E1,1.134544739E1
1.173680825E1,-9.302627742E-1,1.633027929E0,-1.271593988E1,1.285407702E1
1.174677925E1,7.393368575E-1,-1.396604827E0,-2.434136235E0,2.902092907E0
1.175675025E1,-1.145469546E-3,-2.985575741E0,6.158427858E0,6.843967965E0
1.176672125E1,1.280097155E0,3.274925792E0,8.374043704E0,9.082312240E0
1.177669125E1,-5.520289055E-1,3.891121750E0,5.153276870E0,6.480881644E0
1.178666225E1,-4.700966965E-1,-1.145077491E0,1.632991676E0,2.049110826E0
1.179663325E1,8.558363436E-1,1.535312477E0,-3.500862497E0,3.917356056E0
1.180660425E1,5.275672249E-1,3.818339995E0,-1.581578863E0,4.166466031E0
1.181657425E1,1.120790130E0,4.639090267E0,9.428752184E-1,4.864806543E0
1.182654525E1,1.980351369E0,8.358059755E-1,-5.019752777E-1,2.207338296E0
1.183651625E1,9.581381323E-1,-3.064970989E0,-7.408240968E-1,3.295587381E0
1.184648725E1,7.163145422E-1,-2.563109147E0,1.701984143E0,3.159016468E0
1.185645908E1,-1.917155832E-2,-1.761149195E0,8.954320800E-1,1.975806834E0
1.186642908E1,-1.247285651E0,-3.305882998E0,1.103111848E1,1.158318432E1
1.187640008E1,2.247579065E-1,-3.437506454E0,1.342768402E1,1.386252736E1
1.188637108E1,-4.670715664E-1,-1.074442833E0,4.361777294E0,4.516379569E0
1.189634208E1,1.907965471E0,2.443099724E0,1.433463628E0,3.415243252E0
1.190631208E1,5.981754237E-1,4.832162404E0,-1.670327669E1,1.739847865E1
1.191628308E1,1.842219378E0,-2.499398178E0,-1.738993978E1,1.766495879E1
1.192625408E1,9.897700341E-1,-8.713932409E0,-1.750392306E1,1.957803834E1
1.193622508E1,-9.036391588E-1,-1.008743284E1,-1.245393316E1,1.605220596E1
1.194619508E1,-1.770817127E0,-8.318789270E0,2.039986420E1,2.210186661E1
1.195616608E1,6.655408444E0,9.567994854E-1,3.948112514E1,4.004958388E1
1.196613708E1,-4.215659760E-1,7.203798335E0,7.893690845E0,1.069498871E1
1.197610808E1,-5.257865431E0,6.268329785E0,-1.744082693E1,1.926446343E1
1.198607908E1,-6.756456956E-1,-2.605881822E0,-1.862058104E0,3.273282383E0
1.199604908E1,-1.467668086E0,-5.243453214E0,1.406777638E1,1.508476660E1
1.200602008E1,-1.605336393E0,2.852612688E0,6.926935598E0,7.661392880E0
1.201599108E1,2.450146203E0,7.600751188E0,-3.697181593E0,8.800215155E0
1.202596208E1,-7.597140386E-1,2.699867335E0,-1.057928074E1,1.094475354E1
1.203593208E1,-1.748725616E0,-9.369581285E-1,-1.171628586E1,1.188306720E1
1.204590308E1,-1.284840855E-1,-1.174444839E0,-9.258321050E0,9.333399033E0
1.205587408E1,-9.719204582E-1,-1.634355247E0,-1.319474498E0,2.314467412E0
1.206584508E1,-2.647327179E0,-7.735816607E-1,5.730118727E0,6.359326254E0
1.207581508E1,-2.500196323E0,-2.756389153E-1,7.695807618E0,8.096444489E0
1.208578608E1,-2.893738202E0,3.967371196E0,2.531575406E0,5.524728864E0
1.209575708E1,-1.884332195E0,4.576485298E0,-3.738071172E0,6.202265844E0
1.210572808E1,1.037635415E0,-4.359261237E0,-1.980276525E0,4.899116339E0
1.211569908E1,-5.221616933E-1,-5.071249205E0,2.946955174E0,5.888528350E0
1.212566908E1,-8.342168485E-1,-5.087394537E0,3.750697650E0,6.375361463E0
1.213564008E1,-1.886518761E0,-5.809407556E0,2.007897018E0,6.429604935E0
1.214561108E1,-2.754360169E0,-2.472636057E0,-4.607378477E0,5.910022457E0
1.215558208E1,-2.311554621E0,-9.757014871E-2,-5.643632560E0,6.099458433E0
1.216555208E1,-2.367992970E0,3.827424521E0,-6.191562275E0,7.654541957E0
1.217552308E1,-1.755644626E0,9.516684952E0,-4.080059028E0,1.050221225E1
1.218549408E1,-1.273949393E0,6.290246903E0,-4.357929826E-2,6.418103483E0
1.219546508E1,1.915157546E0,-4.056058547E0,7.016119670E0,8.327387020E0
1.220543508E1,9.442071410E-1,-5.332195237E0,6.430238017E0,8.406651778E0
1.221540608E1,1.039746259E0,1.581861284E0,1.650002396E-1,1.900153279E0
1.222537708E1,1.275392047E0,2.769602691E0,-5.340243344E0,6.149432731E0
1.223534808E1,3.099701111E-1,-2.829332291E0,-8.670660090E0,9.125872510E0
1.224531908E1,-1.095272369E0,-8.382810434E0,-1.174197268E1,1.446876134E1
1.225528908E1,-3.087578956E0,-7.009707613E0,-1.077843457E1,1.322285129E1
1.226526008E1,-6.345923214E-1,-5.499594004E0,3.838325193E0,6.736540797E0
1.227523108E1,1.882337856E0,-2.366617266E0,2.289239190E1,2.309124683E1
1.228520208E1,-9.893605828E-2,7.067861096E0,1.798749715E1,1.932652329E1
1.229517208E1,-3.197584232E-1,9.958160259E0,2.925130441E0,1.038381381E1
1.230514308E1,-3.317362983E-1,3.205776620E0,-2.036863539E0,3.812593052E0
1.231511408E1,-1.271303820E-1,-1.034421858E0,3.772705400E-1,1.108387917E0
1.232508508E1,1.056201567E0,-1.083265697E0,-5.575863916E-1,1.612429503E0
1.233505508E1,1.884279131E-1,1.536888302E0,-3.806361973E-2,1.548863961E0
1.234502608E1,1.213112841E0,3.412888799E0,-1.981723711E0,4.128762718E0
1.235499708E1,1.539896986E0,-1.797104016E0,-3.793314496E0,4.471029014E0
1.236496808E1,1.440184710E0,-7.135319839E0,5.913824794E0,9.378712326E0
1.237493908E1,1.530153771E0,-2.934315832E0,1.173627866E1,1.219392540E1
1.238490908E1,1.251606012E0,2.759402223E0,5.466948414E0,6.250467439E0
1.239488008E1,-5.053384865E-1,4.483516616E0,-6.292837805E-1,4.555577494E0
1.240485108E1,-4.075544393E-1,2.653424948E0,-1.067590715E1,1.100825863E1
1.241482208E1,-2.192401522E0,-3.215361668E0,-1.275927710E1,1.333957748E1
1.242479208E1,-1.617186652E0,-4.472833168E0,-1.158288748E1,1.252137419E1
1.243476308E1,-1.665381158E0,-1.694344756E0,-9.401183732E0,9.696729042E0
1.244473408E1,-6.852091822E-1,-2.179311653E0,1.743686485E-1,2.291138435E0
1.245470508E1,-5.257988808E-1,-4.714363520E0,7.338363817E0,8.738035900E0
1.246467608E1,4.591611241E-1,-6.652601781E0,1.499811400E1,1.641375529E1
1.247464608E1,8.289347662E-1,-8.310089198E0,1.823546587E1,2.005684250E1
1.248461708E1,7.508735602E-1,-7.185564378E-1,6.599578060E0,6.680910494E0
1.249458808E1,-4.008338251E0,1.226533356E1,-9.463244324E0,1.600181790E1
1.250455908E1,-4.044738703E-1,1.536377664E1,-1.216235123E1,1.959928619E1
1.251452908E1,-1.350880624E0,9.946669310E0,-1.128464908E1,1.510312595E1
1.252450008E1,2.135137400E0,-4.585623912E0,-7.032173200E0,8.662460291E0
1.253447108E1,7.315282664E-1,-7.304297939E0,1.379392086E0,7.469312185E0
1.254444208E1,2.109386701E-1,-1.922827631E0,4.007657635E0,4.450065273E0
1.255441208E1,-2.513796946E0,9.321005541E-1,3.712450427E0,4.579331251E0
1.256438308E1,-6.808136109E-1,-1.087081005E0,2.364540920E0,2.690038298E0
1.257435408E1,1.374781411E0,-2.423467405E0,2.557464538E0,3.782042180E0
1.258432508E1,1.033909276E0,3.766100678E0,2.221022766E0,4.492819252E0
1.259429608E1,2.954586082E0,2.336688293E0,1.353128148E0,4.002580028E0
1.260426608E1,2.688559113E0,-6.796518715E0,4.635386056E0,8.654930423E0
1.261423708E1,-1.239767155E0,-3.879915268E0,2.390718904E0,4.722954792E0
1.262420808E1,-1.735246176E0,-3.173639738E0,5.183718059E0,6.320917765E0
1.263417908E1,-1.944174646E0,-1.894470974E0,6.047138388E0,6.628477805E0
1.264414908E1,3.012236997E-2,-4.620300239E-1,2.535752656E0,2.577677372E0
1.265412008E1,-1.630710824E0,9.025060415E-2,-3.577921198E0,3.933050096E0
1.266409108E1,-2.090195408E0,4.713882002E-1,-6.890670581E0,7.216125328E0
1.267406208E1,-3.427418837E0,-3.558478037E-1,-8.612863287E0,9.276596442E0
1.268403208E1,-3.096835975E0,-2.333681947E0,-4.725920250E0,6.113165031E0
1.269400308E1,-2.597172979E0,2.467353390E0,-4.526270580E0,5.772370881E0
1.270397408E1,-9.647022897E-1,6.740304168E0,3.760805731E0,7.778560956E0
1.271394508E1,-2.797169389E0,6.384570093E0,8.990840755E0,1.137638384E1
1.272391608E1,-1.123997840E-1,-3.694225826E0,1.933257895E0,4.171021967E0
1.273388608E1,2.620770003E0,-1.038278389E1,-5.446760902E0,1.201406846E1
1.274385708E1,2.174360815E0,-5.730061424E0,-9.384688151E0,1.120864936E1
1.275382808E1,-1.809702281E-1,3.096257686E0,-1.285705073E0,3.357469198E0
1.276379908E1,-6.417895860E-1,6.073040968E0,7.622817410E0,9.767346914E0
1.277377008E1,5.991289584E-1,6.245487637E0,5.775180295E0,8.527472003E0
1.278374008E1,-1.226170624E-1,3.695114310E0,7.500422323E-1,3.772461803E0
1.279371108E1,1.584701715E0,1.785545240E0,-2.713874633E0,3.614493997E0
1.280368208E1,5.317850409E-1,1.142830113E0,-7.546942770E-1,1.469156033E0
1.281365308E1,-1.230455756E0,1.108411648E0,-5.183155557E0,5.441295735E0
1.282362308E1,-1.196579985E0,-2.530524661E0,-6.270653468E0,6.867055675E0
1.283359408E1,-1.454148738E0,-4.274664598E0,-3.409980394E0,5.658203978E0
1.284356508E1,-2.284304696E-1,-4.487597972E0,3.383642195E0,5.624922270E0
1.285353583E1,-5.925205815E-1,-3.135974313E0,4.276176395E0,5.335831716E0
1.286350583E1,9.361414187E-2,-1.424443421E0,4.159126832E0,4.397287650E0
1.287347683E1,-8.225395203E-1,-2.421592203E0,8.776898736E-1,2.703889712E0
1.288344783E1,-1.157932886E-1,-4.327127571E0,-1.921189826E0,4.735864382E0
1.289341883E1,1.568177191E-1,-4.140311077E0,2.731612746E0,4.962708515E0
1.290338983E1,-1.558027156E0,-2.209115496E0,3.476723437E0,4.404003377E0
1.291335983E1,4.433237943E-1,1.228735067E0,5.836059750E0,5.980461458E0
1.292333083E1,-4.448327414E-1,1.122324513E0,3.968988243E0,4.148536628E0
1.293330183E1,6.687679812E-1,5.843119678E-1,6.718632048E-1,1.113584866E0
1.294327283E1,1.385214890E0,4.319250494E-1,-3.391344148E-1,1.490097880E0
1.295324283E1,1.880641432E0,-1.450963175E0,-2.858828863E0,3.716854692E0
1.296321383E1,1.973520506E0,-2.192014729E0,-3.536418831E0,4.604994018E0
1.297318483E1,1.381292724E0,1.670117110E0,-5.494998093E0,5.906967478E0
1.298315583E1,3.921085075E-1,5.706297755E0,-3.550248080E-1,5.730761360E0
1.299312683E1,1.807340883E0,6.196347052E0,7.449995935E-1,6.497401192E0
1.300309683E1,1.589388697E0,3.690210543E0,-1.263520153E0,4.211922774E0
1.301306783E1,2.251232113E0,-3.758926144E0,1.156373434E0,4.531530790E0
1.302303883E1,1.193215717E0,-5.240907336E0,-1.862939279E0,5.688709539E0
1.303300983E1,1.365860423E-1,-8.897383538E-1,-2.155256792E0,2.335684466E0
1.304297983E1,1.273479715E0,1.308567979E0,1.172110630E0,2.169779728E0
1.305295083E1,2.093919792E0,1.969646287E-1,2.196904171E0,3.041329166E0
1.306292183E1,1.420489534E0,5.759612668E-1,3.459587587E0,3.783948753E0
1.307289283E1,6.612784289E-1,3.058720315E0,1.259156376E0,3.373208251E0
1.308286283E1,6.012186437E-1,2.095466089E0,7.389301836E-1,2.301838353E0
1.309283383E1,-2.036049826E-1,1.099899856E0,-6.932182889E0,7.021851201E0
1.310280483E1,1.915089280E0,-1.408976951E0,-6.324254894E0,6.756403109E0
1.311277583E1,2.354732946E-1,-3.106367814E0,-1.726942983E0,3.561923741E0
1.312274683E1,5.681811078E-1,-1.272478087E0,1.794098255E0,2.271743560E0
1.313271683E1,1.755396448E-1,1.017216718E0,2.073262457E0,2.316022719E0
1.314268783E1,2.539793302E-1,-3.397799474E-1,1.590100011E0,1.645713814E0
1.315265883E1,2.041886444E0,-2.023366411E0,-7.193098515E-1,2.963227724E0
1.316262983E1,2.191791511E0,-1.975688507E0,1.121398898E0,3.156711991E0
1.317259983E1,1.482108954E0,-3.685374311E-1,1.780207610E0,2.345550239E0
1.318257083E1,2.096920876E0,7.672087803E-1,1.263608446E0,2.565617426E0
1.319254183E1,8.767928376E-1,9.289898354E-1,2.168589029E0,2.516856406E0
1.320251283E1,1.063628554E0,1.863866063E0,4.748436123E-1,2.197903286E0
1.321248383E1,7.045473862E-1,2.123009690E0,-1.415079982E0,2.646886571E0
1.322245383E1,1.054577868E0,8.596225619E-1,-1.172535138E0,1.796085766E0
1.323242483E1,7.579910834E-1,1.501411198E0,-2.274900180E0,2.829126525E0
1.324239583E1,-1.966854241E-1,-6.523928538E-1,-8.192791128E-1,1.065607740E0
1.325236683E1,-2.376114569E-1,-3.287529758E-1,-5.579027259E-1,6.897776273E-1
1.326233683E1,1.214089692E0,2.569389934E0,-4.441720426E-2,2.842138508E0
1.327230783E1,1.563995409E0,1.015536228E0,1.434281069E-1,1.870285297E0
1.328227883E1,2.114288568E0,-5.969051161E-1,1.199720013E0,2.503165991E0
1.329224983E1,2.210122532E0,-2.586253304E0,2.676205115E0,4.328443321E0
1.330222083E1,1.013333217E0,-1.732504562E0,2.480626277E0,3.190912564E0
1.331219083E1,1.040363652E0,-1.509988771E0,2.949955380E-1,1.857268151E0
1.332216183E1,-6.877876581E-1,-2.508632101E0,-2.122355679E0,3.357183419E0
1.333213283E1,-7.628986515E-1,-2.698985575E0,-2.518634933E0,3.769623245E0
1.334210383E1,-7.604997582E-1,1.300891462E-1,-2.944491742E0,3.043897943E0
1.335207383E1,-9.313031401E-1,4.986794946E-1,-1.270600546E0,1.652402047E0
1.336204483E1,-9.829686990E-1,-1.016858869E0,-2.197045673E0,2.612898603E0
1.337201583E1,-1.279031062E0,-2.304204378E0,-8.439771670E-1,2.767232504E0
1.338198683E1,-1.935505564E0,-2.517269023E0,2.137227488E-1,3.182530838E0
1.339195783E1,-1.741423467E0,-3.174508926E-1,5.291092819E-1,1.847508428E0
1.340192783E1,-8.491943452E-1,6.376388669E-1,-1.907151246E-1,1.078928459E0
1.341189883E1,1.832828384E-1,-4.115580279E-1,-4.779525769E-1,6.568190580E-1
1.342186983E1,-1.445350214E-1,-1.676537353E0,1.480401567E0,2.241262294E0
1.343184083E1,-1.260237233E-1,-9.177430084E-1,6.137255090E-1,1.111212495E0
1.344181083E1,-9.169165045E-5,-8.864563116E-1,3.361511654E0,3.476429979E0
1.345178183E1,-3.281566694E-1,-2.152652442E-3,2.069363533E0,2.095222391E0
1.346175283E1,-8.397361084E-1,-4.221274549E-1,2.508109360E0,2.678425075E0
1.347172383E1,-4.971529327E-2,1.078978811E0,3.386129016E0,3.554227989E0
1.348169483E1,-4.415345098E-1,2.552028966E0,6.809415919E-1,2.677963035E0
1.349166483E1,-3.830002997E-1,1.576220182E0,-4.485144773E0,4.769453106E0
1.350163583E1,-8.959187146E-1,-7.932332754E-1,-2.692044053E0,2.946012654E0
1.351160683E1,-2.848569923E0,-8.854736871E-1,-1.141037942E0,3.193803664E0
1.352157783E1,-3.081640524E-1,-3.682599807E-1,3.571836001E0,3.603969050E0
1.353154783E1,-1.967620519E0,-6.300225762E-1,6.614941619E0,6.930072985E0
1.354151883E1,-1.326451542E0,9.387909383E-2,3.497897959E0,3.742135367E0
1.355148983E1,-2.177342749E0,9.945409235E-1,2.587547293E0,3.524958736E0
1.356146083E1,-1.925272498E0,-1.189310215E0,4.015202297E0,4.609011007E0
1.357143183E1,-1.957199758E-1,-1.227674674E0,2.900106112E0,3.155329916E0
1.358140183E1,-2.999121693E0,1.352768836E0,2.436474536E0,4.094035004E0
1.359137283E1,-2.062901775E0,2.265595506E0,-1.841242016E0,3.574725009E0
1.360134383E1,-5.221348985E0,-1.189238879E0,-2.501195612E0,5.910393711E0
1.361131483E1,-1.939172061E0,-1.334454480E-1,-4.655900427E0,5.045354770E0
1.362128483E1,-2.329010460E0,-8.777857679E-1,-4.557145633E0,5.192530587E0
1.363125583E1,-2.702618743E0,9.142890581E-1,-6.458512813E0,7.060627472E0
1.364122683E1,-1.594710833E0,-1.120989301E0,-3.585074682E0,4.080745045E0
1.365119783E1,-1.314490331E0,-3.282920690E0,4.325148581E0,5.586802604E0
1.366116883E1,-1.281827200E0,1.529807324E0,3.555072618E0,4.077000458E0
1.367113883E1,-3.846109006E0,3.547039129E0,4.994197521E0,7.232983475E0
1.368110983E1,-3.977805845E0,7.856079215E-1,4.713303713E0,6.217342763E0
1.369108083E1,-1.768928769E0,-6.754633355E-1,3.501755367E0,3.980910745E0
1.370105183E1,-1.564026984E0,-1.479618917E0,4.381124561E0,4.881567880E0
1.371102183E1,-1.996779560E0,1.364615880E0,3.773707613E0,4.482206405E0
1.372099283E1,-3.523231605E0,3.966382432E0,-1.676162839E-1,5.307866404E0
1.373096383E1,-3.968342711E0,4.712328105E0,-5.569692764E0,8.305134407E0
1.374093483E1,-1.679300747E0,7.840396982E-1,-6.137009507E0,6.410745272E0
1.375090583E1,-3.156670825E0,-4.356763306E-1,-4.266894525E0,5.325483401E0
1.376087583E1,-2.994133141E0,-3.786422676E0,6.695254880E-1,4.873406850E0
1.377084683E1,-4.800186905E-1,-5.031287579E0,1.239798583E0,5.203976669E0
1.378081783E1,1.333630022E-1,-3.103610267E0,1.184321955E0,3.324575292E0
1.379078883E1,1.342577724E0,-3.391723340E0,1.295975123E0,3.871156633E0
1.380075883E1,2.513419216E0,-3.547078305E0,2.977069504E0,5.268964176E0
1.381072983E1,4.005063810E0,-5.279079130E0,5.656322188E0,8.712243871E0
1.382070083E1,3.861234584E0,-2.836631955E0,3.685157964E0,6.044501847E0
1.383067183E1,2.175332769E0,-2.425198765E0,2.937937013E0,4.386927809E0
1.384064283E1,1.750532113E0,-1.708719551E0,2.609885411E0,3.577091981E0
1.385061283E1,-3.560412003E-1,-1.149948806E0,-9.806833148E-2,1.207793438E0
1.386058333E1,1.179516421E-1,-2.127133732E0,-2.411512188E0,3.217763436E0
1.387055433E1,-2.473205575E-1,-1.145677707E0,-3.923253077E0,4.094589060E0
1.388052533E1,6.325229917E-1,-4.998389974E-1,-2.661784712E0,2.781190790E0
1.389049533E1,1.936089409E0,1.267132562E-1,-3.735610664E0,4.209428165E0
1.390046633E1,8.568645765E-1,2.118858752E0,-4.920880453E0,5.425757435E0
1.391043733E1,1.580775748E0,1.805094529E0,-3.034289187E0,3.868349660E0
1.392040833E1,2.257891361E0,5.084534079E-1,2.912984020E0,3.720493807E0
1.393037933E1,6.684434608E-1,7.795493290E-1,-1.314441215E0,1.668013646E0
1.394034933E1,2.704605919E0,-1.363963038E0,-5.495231397E0,6.274779394E0
1.395032033E1,7.523501283E-1,-3.464607129E0,-3.735418290E0,5.150037192E0
1.396029133E1,1.825296367E0,-4.721401522E0,9.665735157E0,1.091099332E1
1.397026233E1,3.022572828E0,1.613405550E0,1.271618546E1,1.316967717E1
1.398023333E1,9.362074922E-1,7.508599069E0,6.814337520E0,1.018286503E1
1.399020333E1,3.295799182E-1,5.880645354E0,1.638806148E0,6.113615811E0
1.400017433E1,-4.607969631E0,-4.708061099E-2,-1.502523923E-1,4.610659008E0
1.401014533E1,-4.114135432E0,-1.760407183E0,-8.447585889E0,9.559647020E0
1.402011633E1,-3.828622031E0,4.440586066E-1,-8.382433873E0,9.226089765E0
1.403008633E1,-6.361920465E-1,2.910471179E0,-9.358569224E0,9.821323777E0
1.404005733E1,2.457577722E0,-1.879698569E0,1.323071705E0,3.365036955E0
1.405002833E1,2.994822820E0,-4.733961341E-1,1.671332454E0,3.462140926E0
1.405999933E1,3.097458411E0,4.842352347E0,-1.348724025E0,5.904378152E0
1.406997033E1,3.109828781E0,6.077573730E0,-3.259491189E0,7.565197968E0
1.407994033E1,2.635740044E0,4.875981438E-1,-1.058234936E0,2.881794356E0
1.408991133E1,9.908652907E-1,-5.106588022E0,-3.810864329E-1,5.215772438E0
1.409988233E1,-7.060357218E-1,-4.196220984E0,3.764975381E-1,4.271827171E0
1.410985333E1,-1.759301475E0,-2.615158430E-1,4.077957539E0,4.448962790E0
1.411982333E1,-2.115828286E0,8.565276307E-1,3.571537793E-2,2.282902650E0
1.412979433E1,-1.286367271E0,-1.583463421E0,2.462355482E0,3.197700999E0
1.413976533E1,7.736776281E-1,-1.864929964E0,1.131894300E1,1.149760894E1
1.414973633E1,7.374869446E-1,1.720937016E0,1.017977090E1,1.035051916E1
1.415970733E1,-2.875746612E0,5.465197173E0,-2.128965372E0,6.532288441E0
1.416967733E1,-2.100692769E0,7.413038024E0,-1.066997339E1,1.316109323E1
1.417964833E1,-5.523655297E0,1.801992873E0,-1.227156786E1,1.357753011E1
1.418961933E1,-4.810114600E0,-2.348561064E0,-9.056381026E0,1.052002751E1
1.419959033E1,-2.549188389E0,-1.447145528E0,-2.149451092E0,3.634932134E0
1.420956033E1,1.146895536E0,-5.435569916E0,1.002011151E1,1.145702511E1
1.421953133E1,9.061580370E0,-6.495836760E0,2.347039852E1,2.598399009E1
1.422950233E1,5.930254301E0,7.009364381E-1,1.298700042E1,1.429410396E1
1.423947333E1,-1.169853532E0,6.814142808E0,8.562785393E-1,6.966657192E0
1.424944433E1,-2.282402596E0,2.875895131E0,-5.000380951E-1,3.705424741E0
1.425941433E1,-2.634067156E0,-4.932483668E0,-6.759325161E0,8.772467244E0
1.426938533E1,-4.365266327E0,-7.823513147E0,-1.380504811E0,9.064695340E0
1.427935633E1,-5.463912540E0,2.608385307E0,-4.249304931E0,7.396932240E0
1.428932733E1,-2.433348030E0,3.829191550E0,-6.302140140E0,7.765362896E0
1.429929833E1,1.073570209E0,-6.936877618E0,-4.847275118E0,8.530468929E0
1.430926833E1,-1.501024697E0,-2.500710585E0,-3.177361783E0,4.313033326E0
1.431923933E1,3.118208718E0,-3.166739731E0,5.157560540E0,6.808222738E0
1.432921033E1,2.335836938E-1,3.973159647E-1,1.570117736E1,1.570794040E1
1.433918133E1,-3.750804361E0,4.457162923E0,7.343128713E0,9.373173101E0
1.434915133E1,-1.314197094E0,3.810863452E0,-3.618776863E0,5.417133951E0
1.435912233E1,-5.089063332E0,8.011150298E-1,-6.501961718E0,8.295532356E0
1.436909333E1,-4.409466600E0,2.169730405E0,-5.908737717E0,7.685330646E0
1.437906433E1,-2.683750362E0,-4.693660869E0,-1.948604497E0,5.747175640E0
1.438903533E1,-1.973489954E0,-1.238256790E1,-2.988713064E0,1.289011466E1
1.439900533E1,-4.883913917E-1,-9.355194211E0,-3.004138019E0,9.837836658E0
1.440897633E1,1.966868275E0,-1.970718959E0,8.521849036E-2,2.785599795E0
1.441894733E1,-1.409418270E0,1.130659426E0,-5.056093222E-1,1.876297253E0
1.442891833E1,-2.958064006E-1,8.477439433E-1,-1.440989580E0,1.697828669E0
1.443888833E1,-2.660513527E0,5.328689246E0,-4.581965894E0,7.514497506E0
1.444885933E1,-2.531816603E0,5.868008351E0,-1.403121257E0,6.543115969E0
1.445883033E1,-5.500601479E-1,-1.089861941E0,1.144235082E1,1.150729149E1
1.446880133E1,7.898323009E0,-3.416622538E0,2.211979228E1,2.373482729E1
1.447877233E1,4.906361232E0,-6.294121853E0,8.599549761E0,1.173203335E1
1.448874233E1,9.491046958E-1,-1.825389630E-1,-1.379835773E1,1.383216528E1
1.449871333E1,-5.751441184E0,8.192509877E0,-2.087194033E1,2.314809251E1
1.450868433E1,-7.052951866E0,-1.639054070E0,-1.263938462E1,1.456656006E1
1.451865533E1,-4.419627306E0,-1.190428320E1,-4.803292361E0,1.357632798E1
1.452862533E1,6.036830623E-1,-8.826464413E0,2.566044742E1,2.714276090E1
1.453859633E1,3.287162845E0,8.132477099E0,3.211523322E1,3.329160296E1
1.454856733E1,2.427450090E0,1.440430352E1,-4.842979753E-1,1.461543767E1
1.455853833E1,-1.253304482E0,8.016070729E0,-2.212305035E1,2.356390288E1
1.456850933E1,-1.807142370E0,-2.709076408E-1,-1.898702019E1,1.907475007E1
1.457847933E1,-2.660700638E0,-5.229002990E0,-1.173230255E1,1.311749684E1
1.458845033E1,1.480018721E-1,-8.083491465E0,4.658149266E-1,8.098254279E0
1.459842133E1,4.019491814E0,-1.121071688E1,3.733467542E1,3.918819307E1
1.460839233E1,7.609351857E0,-2.004446576E0,2.555497768E1,2.673905245E1
1.461836333E1,-2.380511712E0,1.301730304E1,-1.179432163E1,1.772633738E1
1.462833333E1,-3.945147976E0,5.126056327E0,-2.622046801E1,2.700654714E1
1.463830433E1,2.991511834E0,-3.909936335E0,-8.071577178E0,9.454475308E0
1.464827533E1,-6.570605399E-1,-3.648171693E0,8.074022484E-1,3.793782235E0
1.465824633E1,-1.925173096E0,2.169427519E0,4.368599825E0,5.243793631E0
1.466821633E1,-3.214017393E0,3.944627573E0,-6.719093978E-1,5.132392886E0
1.467818733E1,7.778963942E-1,1.004366000E0,-6.647277306E0,6.767582245E0
1.468815833E1,2.258344885E-1,-1.493466878E0,-7.454781296E0,7.606261152E0
1.469812933E1,2.796589126E-1,1.532253506E0,-5.920476002E0,6.121931558E0
1.470810033E1,1.851972241E0,5.460747442E0,-5.837599906E0,8.205311480E0
1.471807033E1,1.536468618E0,1.724076678E0,-6.340321289E0,6.747803365E0
1.472804133E1,-1.609883626E0,1.458002638E0,-7.518872042E0,7.826297578E0
1.473801233E1,-2.374800737E0,5.407273486E0,-7.842865092E0,9.817780703E0
1.474798333E1,-3.647984582E0,7.587796682E0,-5.635245314E0,1.013106311E1
1.475795333E1,5.305912587E-1,-3.753934668E0,-1.012955852E0,3.924236504E0
1.476792433E1,1.042762385E1,-2.002448231E1,2.649108650E1,3.480650650E1
1.477789533E1,3.591391429E0,-2.310820561E1,2.929679809E1,3.748585917E1
1.478786633E1,-5.031693960E0,3.031534271E0,-5.540996969E-2,5.874624619E0
1.479783733E1,9.503190747E0,1.074476513E1,-1.047291287E1,1.776070145E1
1.480780733E1,9.591690695E-1,-1.669471578E0,-1.476718406E0,2.426486741E0
1.481777833E1,2.941817225E0,4.435492264E0,1.685152348E0,5.582796669E0
1.482774933E1,-2.373438043E0,1.711171990E1,3.267971991E0,1.758191705E1
1.483772033E1,1.261650944E0,1.872210156E1,9.775687369E0,2.115828239E1
1.484769133E1,7.737739171E0,-1.309959675E1,6.157350801E0,1.641295255E1
1.485766158E1,-9.067889077E-1,-2.853929832E1,-1.048744437E1,3.041874922E1
1.486763258E1,-1.138984984E-1,-1.189240165E1,-5.244650724E0,1.299802105E1
1.487760358E1,8.389799611E0,1.204258037E1,9.438686603E0,1.744996517E1
1.488757458E1,1.313551619E1,3.755674215E0,1.099906639E1,1.753927980E1
1.489754458E1,1.871044982E0,-3.153632612E0,-1.100113864E0,3.828375437E0
1.490751558E1,5.346778193E0,1.389312472E0,-2.719737051E0,6.157531633E0
1.491748658E1,3.486469868E0,4.784863692E0,-9.772433978E-1,6.000449762E0
1.492745758E1,3.456259351E0,8.869159028E-1,-5.591185375E0,6.632774866E0
1.493742858E1,2.834867850E0,-6.897462122E0,-7.575820414E0,1.063035815E1
1.494739858E1,-3.350118354E-2,-5.664526416E0,-6.361367172E0,8.517920764E0
1.495736958E1,1.444177482E0,-2.989070621E0,-2.591380143E0,4.211346913E0
1.496734058E1,6.155501327E-1,-3.615619367E0,1.074932830E1,1.135780191E1
1.497731158E1,2.090572846E0,-1.930485145E0,8.495757006E0,8.959640329E0
1.498728258E1,2.488778465E0,4.800150653E0,-7.499516004E-1,5.458744539E0
1.499725258E1,1.744823623E0,1.395409481E1,-2.439990467E0,1.427286674E1
1.500722358E1,4.696339478E0,2.323211279E1,9.693818164E-1,2.372185428E1
1.501719458E1,1.129160259E1,1.616394355E1,-5.831866711E-1,1.972595921E1
1.502716558E1,5.772948997E0,-4.353124876E0,-3.204447840E0,7.908547418E0
1.503713558E1,2.182507010E0,-6.648582990E0,-6.583549672E0,9.607815512E0
1.504710658E1,-1.830115349E0,-6.080165216E0,-1.021037055E1,1.202370151E1
1.505707758E1,-1.149818322E-1,6.515698582E-1,-3.773626336E0,3.831190393E0
1.506704858E1,1.427594924E0,2.806540137E0,3.802369494E0,4.936872348E0
1.507701958E1,1.230192631E0,3.122616057E0,7.224318554E0,7.965857362E0
1.508698958E1,-1.146779615E0,2.015569149E0,4.588074480E0,5.140821910E0
1.509696058E1,-5.895765669E0,-1.733448303E0,1.884270507E0,6.427703414E0
1.510693158E1,-9.253133985E0,-2.608768008E0,-1.013049408E0,9.667079609E0
1.511690258E1,-7.355571588E0,-1.513105629E0,-1.505810643E0,7.659072250E0
1.512687358E1,-7.400283492E0,-3.666485173E0,-7.721043617E-1,8.294784773E0
1.513684358E1,-3.804576818E0,-5.655270274E0,6.386917166E0,9.340749302E0
1.514681458E1,-6.600283234E0,-2.446666233E0,1.716605106E0,7.245457026E0
1.515678558E1,-2.393988521E0,3.266915399E0,-2.121316044E0,4.572078195E0
1.516675658E1,-1.612541624E0,-1.177861659E0,5.620630199E-1,2.074503173E0
1.517672658E1,5.404236076E-1,-1.819537736E0,7.062688065E-1,2.025238474E0
1.518669758E1,1.435532227E0,-3.593503443E0,2.334500849E0,4.519282463E0
1.519666858E1,-4.201294978E-1,-6.623923527E0,-4.373424947E-2,6.637377823E0
1.520663958E1,-1.335016982E0,-4.007027305E0,-1.132560648E0,4.372783071E0
1.521661058E1,-3.693580147E-1,-2.026108755E0,-1.859601688E-1,2.067878917E0
1.522658058E1,1.730246368E0,-2.425692270E0,2.941706128E0,4.187047937E0
1.523655158E1,-8.108105173E-1,-2.638009933E0,3.116983434E0,4.163183377E0
1.524652258E1,-2.742324407E-1,-4.354947746E-2,5.014864504E-1,5.732265246E-1
1.525649358E1,-1.585470331E-1,-8.332600978E-1,5.592265356E-1,1.015969424E0
1.526646458E1,-1.890847455E0,-1.380936044E0,2.002121723E0,3.080710932E0
1.527643458E1,-1.832995688E0,7.453018945E-1,4.560734653E-1,2.030603632E0
1.528640558E1,-3.158011007E0,7.408933863E-1,-2.161015715E0,3.897684627E0
1.529637658E1,-2.922525507E0,7.998657721E-1,-3.625768379E0,4.725159990E0
1.530634758E1,-3.726127650E0,-4.236228803E-1,-1.085829116E0,3.904165529E0
1.531631858E1,-2.615873837E0,-7.175741056E-1,1.289544940E-1,2.715573197E0
1.532628858E1,-1.131710025E0,2.576929334E-1,2.332330363E0,2.605175263E0
1.533625958E1,-2.690343975E0,1.915996622E0,-4.890523463E-1,3.338886934E0
1.534623058E1,-2.106179211E0,1.927318293E0,-3.160994257E0,4.259393309E0
1.535620158E1,-5.738044482E-1,1.479525362E0,-2.238893611E0,2.744246972E0
1.536617258E1,-1.161801258E0,8.756562120E-1,-6.692287418E0,6.848595977E0
1.537614258E1,-2.433643460E0,-1.209128768E0,-4.430979091E0,5.197902324E0
1.538611358E1,-8.716003639E-1,-3.274967892E0,1.927879626E0,3.898951364E0
1.539608458E1,-8.411352009E-1,-2.540723082E0,5.361724260E0,5.992567835E0
1.540605558E1,-6.337593124E-1,1.698521715E0,4.840727990E0,5.169069003E0
1.541602658E1,-3.685735376E-1,2.530719081E0,6.290438692E0,6.790434777E0
1.542599658E1,1.174206784E0,-5.792251825E-2,3.925944550E0,4.098189503E0
1.543596758E1,4.066025126E-1,2.469972065E-1,-5.766974312E-1,7.476049428E-1
1.544593858E1,3.317525243E-1,5.183325711E-1,-3.656749851E0,3.708173117E0
1.545590958E1,3.544131893E-1,1.973691391E0,-2.966186081E0,3.580408675E0
1.546588058E1,6.940001055E-1,8.234604567E-1,-3.992068958E0,4.134771799E0
1.547585058E1,1.803628047E0,-1.383219966E0,-5.075545154E0,5.561252576E0
1.548582158E1,3.078352050E0,-2.959970783E0,-3.890653680E0,5.777098271E0
1.549579258E1,2.983835902E0,-2.886906023E0,3.050471356E0,5.151978122E0
1.550576358E1,2.261103967E0,-1.601520792E0,5.481269415E0,6.141805467E0
1.551573458E1,1.831044764E0,-8.041889110E-1,-1.202013291E0,2.333298242E0
1.552570458E1,3.262598400E0,-1.605341071E0,2.117532311E0,4.207803626E0
1.553567558E1,3.110447124E0,-4.194670302E0,1.583983355E1,1.667844319E1
1.554564658E1,3.030109012E-1,1.205403507E-3,9.839346006E0,9.844010711E0
1.555561758E1,-1.288226393E-1,5.040939578E0,-2.020253354E0,5.432227049E0
1.556558858E1,-4.956814517E0,4.528353358E0,-1.150199944E1,1.331810742E1
1.557555958E1,-2.800169011E0,9.278984526E-1,-9.141040522E0,9.605236273E0
1.558552958E1,-1.262707536E0,-3.900653588E0,-8.333992615E0,9.287893284E0
1.559550058E1,-3.843878294E0,-3.649912117E0,-2.096599864E0,5.700262256E0
1.560547158E1,-1.026464382E0,2.684633292E0,-7.925362873E-1,2.981442404E0
1.561544258E1,3.463305831E-3,2.560170337E0,-1.476330151E0,2.955340059E0
1.562541358E1,3.169433543E0,-1.461586689E0,-4.699354595E-1,3.521701857E0
1.563538358E1,2.923624198E0,-1.480103652E0,4.521006331E0,5.583706970E0
1.564535458E1,3.428132490E0,1.123762343E0,1.568172484E1,1.609134638E1
1.565532558E1,3.077840126E0,5.668269804E0,1.313389184E1,1.463220753E1
1.566529658E1,1.617438229E0,5.842365972E0,-2.101886916E-1,6.065766716E0
1.567526758E1,2.208623745E0,3.003940968E0,-1.333381282E1,1.384529684E1
1.568523758E1,1.246671985E0,1.912787962E0,-2.069672032E1,2.082227608E1
1.569520858E1,-4.646929921E-1,-2.616903531E0,-1.548216990E1,1.570865075E1
1.570517958E1,-2.193287960E0,-1.011164499E1,1.042186434E1,1.468574591E1
1.571515058E1,2.544380808E0,-6.755787596E0,2.819523178E1,2.910473561E1
1.572512158E1,-1.045004222E0,9.212323344E0,9.301728441E0,1.313320552E1
1.573509158E1,-4.059269545E0,1.004764254E1,-1.318253599E1,1.706493613E1
1.574506258E1,-3.394341431E0,-2.499770645E0,-1.592395744E1,1.647248699E1
1.575503358E1,-2.928568312E0,-6.973002301E0,-1.113589825E1,1.346133364E1
1.576500458E1,-6.881639265E-1,-4.908515346E0,3.421492392E0,6.022765368E0
1.577497558E1,6.560679750E-1,2.663674825E0,8.615728422E0,9.041922639E0
1.578494558E1,3.487162178E0,-3.688594957E0,7.900224524E0,9.390398306E0
1.579491658E1,4.397022555E0,-7.019143850E0,2.250209727E0,8.582868492E0
1.580488758E1,8.061028509E-1,-4.870784725E0,9.142497064E0,1.039036083E1
1.581485858E1,-5.959545928E0,5.044498193E0,1.014561147E1,1.280221003E1
1.582482958E1,-2.727566765E0,3.795401368E0,6.034326553E-1,4.712623788E0
1.583480058E1,-2.132631284E0,-2.267666005E0,-8.947514641E0,9.473565515E0
1.584477058E1,-4.340692819E0,-1.890975801E0,-1.137308704E1,1.231927403E1
1.585474146E1,-4.588412449E0,1.786633992E0,-3.850175160E0,6.250555062E0
1.586471246E1,2.122490165E0,4.553261035E0,8.634394489E0,9.989490415E0
1.587468346E1,2.126916946E0,1.323854647E0,1.085534183E1,1.114068279E1
1.588465446E1,1.278565038E0,-2.385665448E0,3.527221745E0,4.446056840E0
1.589462446E1,1.901173345E0,-4.783796283E0,-2.280893576E0,5.630421163E0
1.590459546E1,4.023448625E-1,-4.602474418E0,-4.805152361E0,6.665893891E0
1.591456646E1,-6.595202442E-1,-6.053426483E-1,-4.550361693E0,4.637585386E0
1.592453746E1,-2.503509940E0,6.135133721E0,-4.467125409E0,7.991410214E0
1.593450846E1,-4.223886208E0,1.160385910E1,-2.667952940E0,1.263363501E1
1.594447846E1,-2.910166247E0,2.649033104E0,1.814948841E0,4.333645494E0
1.595444946E1,-1.617366454E0,-1.132370497E1,3.643373761E0,1.200484656E1
1.596442046E1,-4.276241300E-1,-7.941339805E0,-1.545828402E-1,7.954346997E0
1.597439146E1,-3.968041871E-1,5.501355770E-1,-3.521804885E0,3.586532080E0
1.598436246E1,4.243132903E-1,4.105307013E0,-8.756182051E-1,4.219039545E0
1.599433346E1,1.625568490E0,2.189387282E0,2.718660579E0,3.850585011E0
1.600430346E1,9.004644862E-1,6.009236151E-1,1.497290080E0,1.847653395E0
1.601427446E1,-5.691515994E-1,2.527403125E0,-1.541975672E0,3.014861368E0
1.602424546E1,-4.506409635E-1,5.946907756E-1,-6.030198419E0,6.076185265E0
1.603421646E1,-3.527096030E-1,8.459742835E-1,-7.918784171E0,7.971650977E0
1.604418746E1,2.282869935E-1,-5.168466182E0,-1.507952478E0,5.388791915E0
1.605415746E1,1.522565255E0,-1.010969904E1,1.275098575E1,1.634355706E1
1.606412846E1,-5.560817568E-1,-3.442501730E0,1.162891676E1,1.214050041E1
1.607409946E1,-4.609900382E0,8.904684956E0,4.788707067E0,1.111198952E1
1.608407046E1,-5.051285641E0,4.157800099E0,2.567882522E0,7.028286344E0
1.609404146E1,1.544132710E-1,4.923799968E-1,-8.924868375E-1,1.030928841E0
1.610401146E1,-5.326294227E0,2.041407995E0,-5.165543159E0,7.695426753E0
1.611398246E1,-4.155772577E0,2.243932741E0,-7.702669326E0,9.035308219E0
1.612395346E1,-2.224300861E0,-7.733802241E-1,-4.424444243E0,5.012119127E0
1.613392446E1,-3.130970851E0,-2.552146787E0,2.528774005E0,4.765619546E0
1.614389546E1,-2.477832769E0,-1.810683005E0,5.262231547E0,6.091741051E0
1.615386546E1,-2.054781455E0,-1.830459458E0,3.528796985E0,4.474943219E0
1.616383646E1,-3.608742164E-1,-7.744464639E-1,2.402126822E0,2.549551097E0
1.617380746E1,5.498740603E-1,-1.061872196E0,-9.740075487E-1,1.542279076E0
1.618377846E1,4.167610265E-1,-2.090873685E0,4.596519613E-1,2.180991162E0
1.619374946E1,-4.745989063E-1,-4.457393888E-1,-2.568471336E-1,6.999272638E-1
1.620372046E1,-1.948251033E0,-6.564084291E-1,-1.139691328E0,2.350627668E0
1.621369046E1,-1.241768510E0,-2.548073325E-1,-1.306555075E0,1.820440050E0
1.622366146E1,-1.866492632E0,-9.442902446E-1,-3.126997375E-1,2.115008259E0
1.623363246E1,-1.165243660E0,-1.103524545E0,2.716667848E0,3.155288165E0
1.624360346E1,-1.971624400E0,-4.270274216E-1,4.053447765E-1,2.057658762E0
1.625357446E1,-1.968115924E0,-2.827190164E0,-1.845580650E0,3.908024111E0
1.626354446E1,-1.327113593E0,-5.523528412E-1,-6.352985773E0,6.513582147E0
1.627351546E1,-1.966990189E0,1.146779323E-1,-2.384587514E0,3.093292589E0
1.628348646E1,-1.345897042E0,2.219436416E-1,3.599029062E0,3.848858015E0
1.629345746E1,1.672742218E-2,-2.355851957E-1,6.875732115E0,6.879787228E0
1.630342846E1,1.216188696E-1,2.128575655E0,2.079436532E0,2.978201094E0
1.631339946E1,-1.774744556E0,1.497377204E0,-2.241980356E0,3.227744204E0
1.632336946E1,-4.198394102E0,1.302429280E0,2.084263408E-1,4.400713192E0
1.633334046E1,-2.318737925E0,-5.353498982E0,2.103977296E0,6.201872087E0
1.634331146E1,-2.577761393E0,-5.067021083E0,-1.483925684E0,5.875507799E0
1.635328246E1,-2.808155723E0,4.478762537E-2,8.345052624E-1,2.929870906E0
1.636325346E1,-2.169010759E0,1.348805009E0,2.802549412E0,3.791855197E0
1.637322346E1,-1.077482508E0,-7.292355001E-2,4.642275245E0,4.766236026E0
1.638319446E1,-1.688770898E0,1.934492826E-2,-7.829304814E-2,1.690695470E0
1.639316546E1,-1.925199993E0,-3.270061201E-1,-7.225369298E-1,2.082159367E0
1.640313646E1,-1.149383088E0,4.984613934E-1,1.324468605E0,1.823118847E0
1.641310746E1,-1.418015431E0,1.022563997E-1,1.306140507E0,1.930602797E0
1.642307746E1,-4.754613706E-1,-1.048563641E0,-1.832692802E-1,1.165820249E0
1.643304846E1,-9.164370328E-1,-8.026092857E-1,-1.806634685E0,2.178983108E0
1.644301946E1,-8.157561654E-1,1.149357945E-1,-4.837327250E0,4.906974962E0
1.645299046E1,-3.110538925E-1,-7.820688942E-1,-3.699741504E0,3.794268504E0
