"Time (s)","Linear Acceleration x (m/s^2)","Linear Acceleration y (m/s^2)","Linear Acceleration z (m/s^2)","Absolute acceleration (m/s^2)"
1.589708379E-3,-2.734653006E0,4.628598315E0,-2.102388023E0,5.772545784E0
1.155970833E-2,-2.671621483E0,1.586379720E0,-1.233997561E0,3.343188888E0
2.152970835E-2,-1.389434241E0,1.689781004E0,-1.636664897E0,2.732134575E0
3.149970836E-2,-2.313548083E0,2.226195797E-1,-1.860934854E-1,2.331672146E0
4.146970838E-2,-1.639594060E0,3.543384911E0,-2.954231449E0,4.896052365E0
5.144070834E-2,-9.064814904E-1,6.076366864E0,-2.136231707E0,6.504416105E0
6.141070835E-2,-2.618642786E0,8.978187965E0,-3.850586219E0,1.011395884E1
7.138070837E-2,-3.091010687E0,9.489938618E0,-6.415585479E0,1.186478062E1
8.135070838E-2,-3.142302170E0,2.992086031E0,-2.747168094E0,5.135520838E0
9.132070834E-2,-5.396311710E0,8.514043003E-1,3.499616455E0,6.487864417E0
1.012907083E-1,-6.498629975E0,1.094122222E0,1.104313334E0,6.681975975E0
1.112607084E-1,-7.298764719E0,3.628949849E0,-1.544306372E0,8.296151252E0
1.212307084E-1,-4.233908043E0,9.545568443E0,-4.450727477E0,1.135133601E1
1.312007083E-1,-1.919168736E0,7.526164105E0,-5.750996211E0,9.664383694E0
1.411707083E-1,-2.497345805E0,6.035779586E-1,-2.831850979E0,3.823666093E0
1.511407084E-1,-4.214734438E-1,-1.584190814E0,4.969417021E0,5.232820074E0
1.611107084E-1,7.008719726E-1,-1.936310433E0,3.692257068E0,4.227680437E0
1.710807084E-1,2.445066142E0,-7.499931157E-3,3.493500268E0,4.264146903E0
1.810517084E-1,2.333401280E0,-1.414374223E-1,-3.632814274E0,4.319965929E0
1.910217084E-1,9.978841422E-1,-4.512141660E0,-2.571201986E0,5.288314928E0
2.009917084E-1,1.548933274E-1,-4.197547717E0,2.687546375E0,4.986612507E0
2.109617083E-1,3.380967533E-1,-1.385133175E0,2.052570915E0,2.499190006E0
2.209317083E-1,1.773878729E0,-6.075920722E-1,3.649957141E0,4.103413336E0
2.309017084E-1,3.029745023E0,2.008284688E-1,-1.285159528E-1,3.039112260E0
2.408717084E-1,1.144164155E-1,-4.130262637E-1,-1.034191185E0,1.119478994E0
2.508417083E-1,-5.526406704E-1,-3.475783497E0,8.904882592E-1,3.630351494E0
2.608117083E-1,1.210979923E-1,-1.521043224E0,-1.715374267E0,2.295810552E0
2.707817084E-1,-3.985873248E0,-1.375412764E0,-2.872905450E0,5.102208497E0
2.807517084E-1,-3.020402342E0,-7.315709950E0,3.529372936E0,8.665963056E0
2.907217084E-1,-3.091393679E0,-4.238294916E0,2.475294201E0,5.800598250E0
3.006917083E-1,-1.666714762E0,-3.690595289E0,8.322259008E0,9.255183773E0
3.106627084E-1,-1.024875109E0,-4.150637845E0,7.496874232E0,8.630254154E0
3.206327084E-1,-5.682981617E-1,-2.825633927E0,1.584963816E-1,2.886570802E0
3.306027083E-1,1.807748215E-1,-1.723063648E0,-3.593525078E0,3.989367162E0
3.405727083E-1,-2.099312972E0,-1.257448111E0,-1.199257498E0,2.725162244E0
3.505427084E-1,-9.453548764E-1,-2.824957697E0,-3.887503785E-1,3.004198510E0
3.605127084E-1,6.227176496E-1,-3.183770916E0,-2.687432939E-1,3.255210819E0
3.704827084E-1,1.271475436E0,3.078500569E-2,7.046608222E-1,1.454009757E0
3.804527083E-1,2.732797977E0,1.497012922E0,3.175564349E-1,3.132103855E0
3.904227084E-1,2.480790583E0,-1.571649706E-1,6.142061502E-1,2.560521810E0
4.003927084E-1,3.397181131E0,1.765758555E0,1.012372885E0,3.960257791E0
4.103627084E-1,2.926823795E0,2.642769274E0,-5.689083552E-1,3.984241920E0
4.203327083E-1,2.678607444E0,9.202532181E-1,-1.676771534E0,3.291407997E0
4.303027084E-1,2.956956251E0,9.955299801E-1,-1.642592220E0,3.526014664E0
4.402737084E-1,2.212643413E0,3.422416252E0,-3.035556863E0,5.081666001E0
4.502437084E-1,5.987688796E-1,4.292061819E0,-2.518773512E0,5.012438411E0
4.602137083E-1,-3.925007095E-1,3.871878271E0,-1.227224731E0,4.080634594E0
4.701837084E-1,-5.680332463E-1,3.533347288E0,-1.032997769E0,3.724820696E0
4.801537084E-1,1.479589316E-1,1.113765943E0,-8.190586728E-1,1.390404089E0
4.901237084E-1,1.206533043E0,1.483413468E0,1.358922738E0,2.345827894E0
5.000937083E-1,6.462104465E-1,4.693007442E-1,6.850141776E-1,1.052176579E0
5.100637084E-1,1.602341303E0,2.516867612E0,-2.241302664E0,3.731696378E0
5.200337084E-1,2.157802816E0,3.396195583E0,-3.925440520E0,5.621329087E0
5.300037084E-1,2.649153557E0,1.564877754E0,-3.150097970E0,4.403404839E0
5.399737083E-1,7.328177237E-1,1.263800819E0,-1.598787804E0,2.165718534E0
5.499437083E-1,1.562183649E0,-2.712617481E0,2.165087131E0,3.806089021E0
5.599137084E-1,3.269929054E0,-2.167954898E0,1.659989440E-1,3.926833343E0
5.698847084E-1,3.171482992E0,4.036955693E-1,2.265484993E0,3.918379351E0
5.798547083E-1,4.331685475E0,-1.090886665E0,1.673789454E0,4.770231012E0
5.898247084E-1,5.091886953E0,-1.579534969E0,5.759573491E0,7.848243769E0
5.997947084E-1,2.972344076E0,-3.762279814E-1,-2.774802035E-1,3.008882195E0
6.097647084E-1,2.760639786E0,-3.984129024E-1,-1.179927773E0,3.028546585E0
6.197347083E-1,-7.897424146E-1,2.638991096E0,-5.664635174E0,6.298893454E0
6.297047083E-1,-1.970520007E0,1.232913779E0,-5.442626921E0,5.918210311E0
6.396747084E-1,1.515655856E-1,-1.307659614E0,-1.987963859E0,2.384312500E0
6.496447084E-1,3.458549486E-1,-4.557388584E0,2.243180789E0,5.091293196E0
6.596147083E-1,7.930553739E-1,-2.636649579E0,4.994932516E0,5.703525985E0
6.695847083E-1,-7.265823991E-1,6.550872508E-1,5.306867437E0,5.396286064E0
6.795547084E-1,-2.537965828E0,2.442116514E0,2.056124268E0,4.078339198E0
6.895247084E-1,-3.641946748E0,-4.541504915E0,3.045043386E0,6.569728475E0
6.994957083E-1,-3.187018167E0,-1.134275637E0,1.082680390E0,3.551881592E0
7.094657084E-1,-4.975396383E0,7.052320951E-1,-9.255890948E-1,5.109661109E0
7.194357084E-1,-4.626526062E0,-1.816656813E-1,-3.902543993E0,6.055377399E0
7.294057084E-1,-1.798542870E0,-3.057438606E0,8.886066252E-1,3.656816787E0
7.393757083E-1,3.241124792E-1,-4.744451246E0,3.315050263E0,5.796932358E0
7.493457083E-1,2.517002682E0,-1.678579201E0,3.694306517E0,4.775021600E0
7.593157084E-1,3.020738849E0,2.393967032E-2,2.353241760E0,3.829253594E0
7.692843750E-1,1.064821020E0,-4.900373098E-1,2.024124795E-1,1.189517206E0
7.792543750E-1,1.190186493E0,-2.234805822E-1,-1.014014198E0,1.579465813E0
7.892243750E-1,2.052522967E0,-1.637120980E0,-2.910830491E0,3.919942574E0
7.991943751E-1,8.884522587E-1,7.527904236E-1,-3.766621957E0,3.942522264E0
8.091643750E-1,2.711005258E-1,-6.076540527E-1,-2.904013807E-1,7.259971795E-1
8.191343750E-1,1.119148597E0,-2.084918296E-1,1.389528819E0,1.796316444E0
8.291053750E-1,2.261737513E0,5.347617853E-1,2.506395541E0,3.418105521E0
8.390753750E-1,2.206805115E0,1.011357808E0,8.481649429E-1,2.571423186E0
8.490453750E-1,4.036823400E-1,3.696095181E-1,8.309928399E-1,9.950476006E-1
8.590153750E-1,1.479828540E0,1.038923922E0,-1.021025594E0,2.076475063E0
8.689853750E-1,7.999191280E-1,3.290322095E0,-3.439162093E0,4.826378146E0
8.789553751E-1,-1.392758675E0,4.270092660E0,-4.613563077E0,6.438822277E0
8.889253750E-1,-8.573237291E-1,5.086720353E0,-3.011402600E0,5.973129292E0
8.988953750E-1,-1.051607848E0,2.600591846E0,5.003462434E-1,2.849439134E0
9.088653750E-1,-1.100285918E0,1.423593821E0,-9.853201568E-1,2.051366442E0
9.188353751E-1,-1.815797272E0,3.415380297E0,-1.188023243E0,4.046398588E0
9.288053750E-1,-2.586553485E-1,6.192970285E-1,3.229586774E-1,7.448044751E-1
9.387753750E-1,-2.595334907E0,-2.503999937E-1,-1.044322656E0,2.808749409E0
9.487463750E-1,-3.819937015E-1,-1.501264725E0,6.324810380E-1,1.673244521E0
9.587163750E-1,-6.569789712E-1,-2.079115812E0,-1.369996780E-1,2.184745486E0
9.686863750E-1,-7.062961422E-1,-1.074835474E0,1.176856815E0,1.743306485E0
9.786563750E-1,2.685695219E-1,-2.324239570E0,2.375641274E0,3.334350106E0
9.886263750E-1,2.575512846E-1,-1.503497777E0,-4.479880525E0,4.732458953E0
9.985963751E-1,8.333908562E-2,-2.454242470E0,-1.325740959E0,2.790670277E0
1.008566375E0,-1.379942309E0,-3.156379049E0,1.931083315E0,3.949183745E0
1.018536375E0,-2.748625805E0,-3.745062396E0,8.943746111E0,1.007824542E1
1.028506375E0,-3.491912164E0,7.690956768E-1,4.346738840E0,5.628418718E0
1.038476375E0,-6.936467144E-1,4.376659335E0,-4.837507929E0,6.560318259E0
1.048446375E0,-2.161997463E0,-1.241760032E0,-4.768259354E0,5.380752575E0
1.058416375E0,-3.034490331E0,-2.073007226E0,-1.266717995E0,3.887166706E0
1.068386375E0,-2.928048787E0,-1.523918593E0,3.172114491E-3,3.300879827E0
1.078357375E0,-7.882043776E-1,8.885838211E-1,4.918631029E0,5.060017643E0
1.088327375E0,-1.148295433E0,1.631758791E0,4.280520877E0,4.722719357E0
1.098297375E0,-3.243298860E-1,6.072187275E-2,7.221784955E-1,7.939891688E-1
1.108267375E0,2.183919551E0,-2.772291533E0,8.182464945E-1,3.622793435E0
1.118237375E0,2.815807974E0,-1.438296644E0,1.815489124E0,3.646021468E0
1.128207375E0,1.367127405E0,-3.731386051E-1,1.447690489E0,2.025852293E0
1.138177375E0,-3.529051193E-1,-7.316141474E-1,2.260742902E0,2.402240569E0
1.148147375E0,-6.778742887E-1,-5.047760940E-1,-2.449170595E0,2.590897347E0
1.158117375E0,1.655656361E0,6.491657755E-1,-4.190559125E0,4.552296121E0
1.168087375E0,1.223847818E0,6.717868987E-1,-6.046358369E0,6.205445241E0
1.178057375E0,8.631085988E-2,1.522331366E-1,-2.095711087E0,2.103004863E0
1.188027375E0,-1.209320264E0,1.088855927E0,4.533319983E0,4.816539505E0
1.197997375E0,1.200806718E0,-4.162477872E-1,8.395975440E0,8.491619550E0
1.207968375E0,-5.836681893E-1,4.668887678E0,1.289424487E0,4.878708457E0
1.217938375E0,1.029853282E-1,3.084222654E0,-5.747780827E0,6.523804089E0
1.227908375E0,6.974319094E-1,7.972152293E-2,-7.378818948E0,7.412134366E0
1.237878375E0,-1.036999237E0,1.442073361E0,-5.967701624E0,6.226428003E0
1.247848375E0,-1.051189772E0,5.313206989E0,-2.451004282E0,5.944963451E0
1.257818375E0,1.255008945E0,4.079427821E0,5.522162502E0,6.979330735E0
1.267788375E0,2.855061209E0,-2.037400021E0,7.200901040E0,8.009703437E0
1.277758375E0,1.314417095E0,-3.397518808E-1,-9.254101700E-1,1.643017840E0
1.287728375E0,6.599063797E-1,1.552023527E0,-8.704585635E0,8.866457271E0
1.297698375E0,-1.426997266E-1,2.097348600E0,-5.307234643E0,5.708412556E0
1.307668375E0,-1.827253430E0,3.507404362E0,-1.277575690E0,4.156072677E0
1.317638375E0,1.102207021E0,-2.008016593E0,1.235946438E0,2.602797447E0
1.327608375E0,2.864525513E0,-4.468920504E0,4.153008306E0,6.739750357E0
1.337579375E0,2.908302739E0,-4.437704558E0,2.771614718E0,5.986091773E0
1.347549375E0,3.096972508E0,1.499043953E0,5.946542305E-1,3.491702327E0
1.357519375E0,2.392640299E0,1.613843507E0,-2.453696925E0,3.788119199E0
1.367489375E0,3.158141985E0,-3.378087048E0,3.464353067E0,5.778154989E0
1.377459375E0,2.527262792E0,-4.142209083E0,2.162846478E0,5.312519007E0
1.387429375E0,1.293335544E0,1.804294922E0,-1.327926064E0,2.586809739E0
1.397399375E0,3.041977398E0,-3.508077961E-1,-1.980589936E0,3.646838233E0
1.407369375E0,1.102257380E0,-5.842362463E-1,-3.294828837E0,3.523095285E0
1.417339375E0,-1.592926555E0,-4.250352752E-1,-9.256551683E-2,1.651253575E0
1.427309375E0,-1.093268090E0,-3.601095175E0,5.515469779E0,6.677089820E0
1.437279375E0,-2.381854671E0,1.508429026E0,1.508493345E0,3.197521224E0
1.447249375E0,7.582164205E-1,2.004477274E0,-1.342790855E0,2.529013357E0
1.457219375E0,-6.209724019E-1,-1.920682580E0,7.261072397E-3,2.018583915E0
1.467190375E0,-2.499756027E0,3.062914816E-1,-6.585257059E-1,2.603123273E0
1.477160375E0,-2.212353245E-1,3.805917585E-1,-1.977714860E0,2.026117278E0
1.487130375E0,-1.282555032E0,-2.480291816E0,8.235756469E-1,2.911197649E0
1.497100375E0,-3.069667984E-1,3.560518715E-1,2.962174307E0,2.999246267E0
1.507070375E0,7.700297695E-1,-5.236336568E-1,4.513952250E0,4.609002384E0
1.517040375E0,1.283729884E0,-1.209820786E0,1.987563910E0,2.657449726E0
1.527010375E0,8.819017692E-1,3.728871748E-1,1.871565676E0,2.102273449E0
1.536980375E0,7.779080155E-1,1.094308748E0,-1.324760966E0,1.886171820E0
1.546950375E0,4.349070709E0,-4.379523593E-1,-3.236405797E0,5.438799572E0
1.556920375E0,1.769694316E0,-9.669736406E-1,-2.340515295E0,3.089476953E0
1.566890375E0,2.526342732E0,-1.348606203E0,5.173172021E0,5.912939629E0
1.576860375E0,1.862396365E0,1.061825126E-2,1.516947834E0,2.402033243E0
1.586830375E0,2.513599895E0,3.657635412E0,-2.010132408E0,4.872074870E0
1.596801375E0,2.215115908E0,3.806520140E0,-5.967671803E0,7.416834960E0
1.606771375E0,1.059997214E0,-3.428363747E0,-4.153270261E0,5.488800046E0
1.616741375E0,3.489194013E-1,-3.146362477E0,-1.833458202E0,3.658266060E0
1.626711375E0,6.046395937E-1,-5.437723446E-1,9.935319865E-1,1.283893769E0
1.636681375E0,4.576186652E-1,2.403970741E0,1.622838571E0,2.936340443E0
1.646651375E0,1.017344918E0,5.155846136E0,7.537540448E-1,5.309038069E0
1.656621375E0,9.278431964E-1,3.927469796E0,-1.446687691E0,4.287052283E0
1.666591375E0,8.718781067E-1,2.067294204E0,-2.352158856E0,3.250619639E0
1.676561375E0,1.827797221E-1,1.799775901E-1,-4.624978012E-1,5.288710390E-1
1.686531375E0,-1.350401299E0,1.358185989E0,-1.940049435E0,2.726177665E0
1.696501375E0,-1.737062028E0,1.498125063E0,-4.640262634E-1,2.340316980E0
1.706471375E0,-1.287997474E0,1.200444483E0,4.876572007E-1,1.826968526E0
1.716441375E0,-8.614552986E-1,3.082570816E0,1.158914634E0,3.404031609E0
1.726412375E0,-3.627735382E0,-5.600407603E-1,2.377648623E0,4.373479465E0
1.736382375E0,8.929872130E-1,2.353270704E0,-3.046065479E0,3.951433167E0
1.746352375E0,5.955672367E-1,-2.244198205E0,-2.575229548E0,3.467410149E0
1.756322375E0,-1.332536008E0,-7.754989042E0,9.182002022E0,1.209233924E1
1.766292625E0,-5.167802815E-1,-3.585699749E0,7.670583900E0,8.483051450E0
1.776262625E0,-2.345628832E0,3.471137884E0,-5.327715685E0,6.777560567E0
1.786232625E0,-4.521567445E-1,1.564275783E0,-6.672644282E0,6.868448599E0
1.796202625E0,4.981415142E-1,-4.909015868E0,-1.047797071E0,5.044250238E0
1.806172625E0,-5.504241371E0,-5.891220628E0,3.507424827E0,8.792336577E0
1.816142625E0,-1.419264250E0,-3.572970945E0,4.533821089E0,5.944406283E0
1.826112625E0,-3.781443479E0,-4.535503918E-1,-7.058174014E-1,3.873396565E0
1.836082625E0,-1.623985795E0,5.969229501E-1,-4.768404365E-1,1.794721057E0
1.846052625E0,-2.330577368E0,-1.377766853E0,5.447787089E0,6.083437887E0
1.856022625E0,-1.717162638E0,-3.646976523E0,6.388960767E0,7.554330213E0
1.865993625E0,-7.282161842E-1,3.865781379E-1,2.666970608E0,2.791500258E0
1.875963625E0,-1.477159140E0,4.714825450E0,-4.800717832E0,6.889010804E0
1.885933625E0,9.403144303E-1,-1.579949829E-1,-5.694393409E0,5.773670404E0
1.895903625E0,-2.970663660E-1,-4.470451013E0,-1.897295179E0,4.865481444E0
1.905873625E0,5.714293092E-1,-5.726095258E0,3.675248687E0,6.828041540E0
1.915843625E0,-1.073452169E0,2.355648766E0,3.819795367E0,4.614349067E0
1.925813625E0,-1.984585558E-1,5.354635681E0,-1.331039121E0,5.521156964E0
1.935783625E0,-2.338849716E-2,4.343911126E-1,-5.035905125E0,5.054659542E0
1.945753625E0,4.817195725E-1,-2.694818849E0,-1.801397919E0,3.277062227E0
1.955723625E0,-1.390229462E0,-3.316891551E0,4.938464785E-1,3.630205485E0
1.965693625E0,-4.552914003E-1,-1.909015923E0,3.157125739E0,3.717401644E0
1.975663625E0,8.679259005E-1,2.636695187E0,2.787181175E0,3.933679674E0
1.985633625E0,-1.278623511E0,5.644130158E0,-1.965970727E0,6.111965660E0
1.995604625E0,1.494012862E0,3.020914558E0,-1.354408103E-1,3.372883545E0
2.005574625E0,-7.482232823E-2,-1.242462867E0,1.271541948E0,1.779362606E0
2.015544625E0,4.114285120E-1,-1.504794689E0,-1.294893388E0,2.027419385E0
2.025514625E0,1.171594175E0,3.789966673E0,-6.351429244E0,7.488466715E0
2.035484625E0,8.230108607E-2,5.580762713E0,-5.318764767E0,7.709795365E0
2.045454625E0,-1.876486985E0,3.562065888E0,-2.515383881E0,4.747280576E0
2.055424625E0,-9.468396306E-2,-1.169326186E-2,3.401866797E0,3.403204298E0
2.065394625E0,1.510771329E-1,-1.523394390E0,6.696443619E0,6.869200238E0
2.075364625E0,8.853464370E-1,2.183798514E0,-3.562129623E-1,2.383212524E0
2.085334625E0,3.946778472E-1,5.256757969E0,-7.634019506E-1,5.326542733E0
2.095304625E0,-1.224973407E-3,-2.301034018E0,1.180799593E0,2.586319147E0
2.105274625E0,1.018977022E0,-5.919514720E0,-2.743528202E0,6.603477545E0
2.115244625E0,2.922277585E0,-1.769733200E0,-4.154694058E0,5.378953857E0
2.125215625E0,2.617230975E0,1.159546718E-1,-4.295625989E0,5.031475539E0
2.135185625E0,-2.867578344E0,-1.766785911E-1,-3.868320240E0,4.818518690E0
2.145155625E0,1.192550815E0,-7.266607372E0,3.609578024E0,8.200903221E0
2.155125625E0,-1.134330527E0,-5.821127715E0,1.045280897E1,1.201804681E1
2.165095625E0,-1.154053186E0,2.355972410E0,7.659759534E0,8.096564757E0
2.175065625E0,-1.538964794E0,7.564703103E0,-2.281299373E0,8.049687727E0
2.185035625E0,-1.344254559E0,1.198062620E0,2.386017743E0,2.989223148E0
2.195005625E0,-4.639108539E-1,-2.353123062E0,5.691348764E0,6.176070933E0
2.204975625E0,-1.369870480E0,1.721595412E0,-2.188156151E0,3.102976513E0
2.214945625E0,4.031895659E-1,3.284156791E0,-4.160278149E0,5.315652541E0
2.224915625E0,1.159087127E0,-1.547100171E-1,-7.019498776E0,7.116233640E0
2.234885625E0,9.745274393E-1,-2.934523116E0,-6.160957364E0,6.893368211E0
2.244855625E0,-3.121548501E-1,-5.932921801E0,1.956877722E0,6.255107686E0
2.254825625E0,-4.565754123E-1,-2.822613548E0,7.584552062E0,8.105617702E0
2.264796625E0,4.862093570E-1,1.598837797E0,2.445956381E0,2.962327541E0
2.274766625E0,7.354632964E-1,2.839135148E0,-5.191507720E0,5.962662749E0
2.284736625E0,2.010234004E0,1.499026411E0,7.105934072E-1,2.606350690E0
2.294706625E0,3.777706962E-1,-2.533830969E0,1.044529063E-1,2.563965774E0
2.304676625E0,1.041474769E0,-3.558809866E0,1.303702803E0,3.930577357E0
2.314646625E0,-1.625888296E-1,-3.621411326E0,2.255126651E0,4.269268243E0
2.324616625E0,-1.555108957E0,-1.466636052E0,1.398309583E0,2.554340397E0
2.334586625E0,3.111227435E-1,2.788961360E0,-6.910368097E-1,2.890092508E0
2.344556625E0,-6.425248003E-1,1.312158462E0,-1.191657872E0,1.885377000E0
2.354526625E0,1.264797623E0,-1.575113305E0,-3.520930726E0,4.059266944E0
2.364496625E0,3.875047754E-1,-1.067310107E0,-2.522187116E0,2.765996866E0
2.374466625E0,2.159352621E0,3.329325655E0,-4.339180729E0,5.880110752E0
2.384436625E0,1.523621408E0,-3.700018662E-1,2.208581060E0,2.708533528E0
2.394406625E0,1.801772287E0,-2.538659892E0,6.239832210E0,6.973283547E0
2.404377625E0,-3.891979828E-1,2.108825222E0,1.617474920E0,2.686046166E0
2.414347625E0,-1.264102974E0,6.348371150E0,-4.968588470E0,8.160063969E0
2.424317625E0,-2.297688424E-1,2.353554586E0,-1.102562678E1,1.127636727E1
2.434287625E0,-5.118387703E0,-4.814461713E0,-1.843871509E0,7.264764030E0
2.444257625E0,-5.966685963E-1,-2.719531814E0,4.572605086E0,5.353558067E0
2.454227625E0,-2.700748218E0,3.584795769E0,1.063385164E0,4.612546981E0
2.464197625E0,-3.680587780E0,4.321933489E0,4.828440651E0,7.452494523E0
2.474167625E0,1.033538197E0,2.908627260E-1,5.577909856E0,5.680306391E0
2.484137625E0,-6.078861140E-1,-5.115477544E0,7.224364747E0,8.872941002E0
2.494107625E0,7.755483717E-1,2.918835914E0,-2.090227568E-1,3.027336929E0
2.504077625E0,-1.386331343E-1,5.243180734E0,-5.920158498E0,7.909389357E0
2.514047625E0,-1.247310684E-1,-2.449518797E0,-2.926135578E0,3.818110736E0
2.524017625E0,-3.551608143E0,-3.195738997E0,-3.099024296E0,5.694788822E0
2.533988625E0,-5.806992071E0,-9.006916505E-1,-1.294029754E-1,5.877852286E0
2.543958625E0,-2.759459526E0,-2.499161658E0,3.256755277E0,4.946400793E0
2.553928625E0,-3.775716424E0,-5.851946050E-1,5.790542684E0,6.937497518E0
2.563898625E0,-2.494910147E0,1.336334360E-1,1.043549654E0,2.707661430E0
2.573868625E0,-1.503560050E0,5.685560605E-1,-1.198355273E0,2.004994807E0
2.583838625E0,-3.298796757E0,-3.100825823E0,-3.589527336E0,5.777706061E0
2.593808625E0,5.992391419E-1,-2.445904048E0,-3.340730649E0,4.183541016E0
2.603778625E0,-1.755414684E0,2.731855406E0,-2.362625372E0,4.015783027E0
2.613748625E0,1.310059348E-1,-8.959308475E-1,1.361272734E-1,9.156338095E-1
2.623718625E0,5.227295676E-2,-5.092378119E0,3.727728617E0,6.311181190E0
2.633688625E0,-1.424445760E0,-5.618510583E-1,3.447428302E0,3.772198859E0
2.643658625E0,-1.070961401E0,-1.319039173E0,3.492620262E0,3.883969484E0
2.653628625E0,-1.027610436E0,-2.311744948E0,7.039663484E0,7.480441823E0
2.663598625E0,-1.484177407E0,8.505023673E-1,7.022460975E0,7.227800149E0
2.673569625E0,-2.404968276E0,2.667278464E0,-8.817934495E-1,3.698081462E0
2.683539625E0,-2.546131464E0,2.914649307E0,-6.363940532E0,7.448335727E0
2.693509625E0,-1.736538264E0,3.164259927E0,-9.095062696E0,9.785104572E0
2.703479625E0,-3.343847946E-1,-3.297452483E-1,-7.582334797E0,7.596864228E0
2.713449625E0,-1.451994332E0,-5.501880265E0,-3.727470755E0,6.802426936E0
2.723419625E0,1.009123733E0,-9.405497807E0,3.040550385E0,9.936129345E0
2.733389625E0,5.595837639E-1,-2.187090788E0,8.756959146E0,9.043275600E0
2.743359625E0,-2.089657611E0,5.096100456E0,5.379210359E-1,5.534100454E0
2.753329625E0,2.011447885E0,4.855473499E0,3.549605471E0,6.342022114E0
2.763299625E0,3.803531921E0,5.747960336E0,-4.468853261E0,8.214411273E0
2.773269583E0,3.115786217E0,5.582629144E-1,-7.632872282E0,8.263202800E0
2.783239583E0,3.692615795E0,-3.427500114E0,-7.404206389E-1,5.092287419E0
2.793209583E0,-2.600075829E0,-5.174780005E-1,6.520178719E0,7.038530267E0
2.803179583E0,2.229252977E-1,5.668987842E0,7.331022638E-1,5.720538241E0
2.813150583E0,-8.062116822E-1,4.634639951E0,-4.140468367E0,6.266844745E0
2.823120583E0,-3.116644515E-1,1.748630306E-1,-7.143825783E0,7.152758812E0
2.833090583E0,3.613344508E0,-1.070108000E0,-5.730535049E0,6.858602016E0
2.843060583E0,-2.918773933E0,-3.066106811E0,4.136246678E0,5.918512383E0
2.853030583E0,3.213342040E0,-1.433420944E0,5.259393309E0,6.327833803E0
2.863000583E0,1.045936414E0,2.878237818E0,-4.187144351E-1,3.090882997E0
2.872970583E0,5.846424451E-1,8.562478414E-1,-3.450335537E0,3.602746518E0
2.882940583E0,2.119672831E0,-3.671963137E0,-4.797301304E-1,4.266903700E0
2.892910583E0,-3.296617793E0,-6.432662272E0,4.252653047E0,8.386411075E0
2.902880583E0,-1.336146079E0,-3.278267768E0,4.370028884E0,5.624009100E0
2.912850583E0,2.709604996E0,-1.782655839E0,4.035799699E0,5.177595994E0
2.922820583E0,1.539619244E0,-2.148393915E0,1.051805338E0,2.844700037E0
2.932790583E0,3.848931530E-2,6.969591621E-1,4.577224971E0,4.630142756E0
2.942760583E0,-3.896129890E-1,2.707849077E0,5.113657306E0,5.799459970E0
2.952730583E0,1.728008785E0,3.567418722E0,3.978496985E0,5.616131138E0
2.962701583E0,2.733559284E0,2.782923233E0,1.243677626E0,4.094354909E0
2.972671583E0,2.303533410E0,1.009719711E0,-4.388683257E0,5.058294257E0
2.982641583E0,8.711295900E-1,-1.492694169E0,-5.435476361E0,5.703630941E0
2.992611583E0,-1.837870804E0,-2.317017090E0,-8.961476038E0,9.436863360E0
3.002581583E0,-1.202087916E0,1.256964254E-1,-9.062100772E0,9.142345725E0
3.012551583E0,-2.029605244E0,5.899442983E-1,-4.440687808E0,4.918032120E0
3.022521583E0,-5.886749043E-1,-4.696852864E0,7.186519228E0,8.605406648E0
3.032491583E0,-1.574647281E0,-2.345518173E0,8.887726861E0,9.325913270E0
3.042461583E0,-2.107002937E0,2.991052535E0,4.172533329E0,5.549404565E0
3.052431583E0,-5.596833858E-1,4.236646002E0,-2.508736181E0,4.955418455E0
3.062401583E0,1.764545258E0,2.637895913E0,-7.067757601E-1,3.251406893E0
3.072371583E0,5.235256295E-1,-4.325621036E-1,-4.086569903E0,4.142613020E0
3.082341583E0,6.480776086E-1,-3.206964774E0,-5.332847201E0,6.256507566E0
3.092311583E0,6.255766457E-1,-3.465241259E0,8.112503010E-1,3.613498329E0
3.102282583E0,-9.986200143E-1,-1.218451861E0,5.315063480E0,5.543623965E0
3.112252583E0,-2.368261064E0,2.716514943E0,3.238835315E0,4.845427546E0
3.122222583E0,-9.192863810E-1,2.157778696E0,1.552510600E0,2.812718528E0
3.132192583E0,-2.127514093E0,-1.280491111E0,-1.953909675E0,3.159705164E0
3.142162583E0,-1.375538333E0,-4.928919205E-1,-1.881575525E-1,1.473245198E0
3.152132583E0,-2.373290255E0,1.433416266E0,1.788008380E0,3.299115456E0
3.162102583E0,-6.413636164E-1,7.080747190E-1,2.513244969E0,2.688701800E0
3.172072583E0,3.175921394E-1,-1.133649692E0,2.311010245E0,2.593606513E0
3.182042583E0,-2.158335644E0,-8.187628037E-1,-1.336250160E0,2.667273846E0
3.192012583E0,-9.319309849E-1,-3.666973123E-1,-2.852351902E0,3.023057005E0
3.201982583E0,5.649865546E-1,1.110319887E0,-3.647195501E0,3.854095883E0
3.211952583E0,1.774172552E0,-7.023675442E-2,-2.158824763E0,2.795200495E0
3.221922583E0,1.877398128E0,-6.997535464E-1,-2.165647295E0,2.950306249E0
3.231892583E0,-1.519297209E-1,-4.004313612E-1,4.939359409E-1,6.537588461E-1
3.241863583E0,-2.578503697E0,2.658614644E0,2.657673535E0,4.558524077E0
3.251833583E0,8.155558982E-1,2.380485692E0,4.717192696E0,5.346377323E0
3.261803583E0,1.222651331E0,-2.109799076E0,1.294820298E0,2.760921589E0
3.271773583E0,-4.173255021E-1,-4.512293103E0,-1.117499390E0,4.667306987E0
3.281743583E0,-2.523825798E0,-7.458480245E-1,-1.887335032E-1,2.638485602E0
3.291713583E0,-3.780404429E0,1.753846900E0,3.296308767E0,5.313481729E0
3.301683583E0,-7.111427531E-1,1.042467919E-1,3.679057564E0,3.748607203E0
3.311653583E0,4.785413184E-1,1.282688203E0,-4.331553036E-1,1.435936745E0
3.321623583E0,-9.906572760E-1,1.496593384E0,-2.632424088E0,3.186039889E0
3.331593583E0,8.715526178E-2,8.373683515E-1,-1.712917852E0,1.908630232E0
3.341563583E0,2.893062520E-1,2.312971401E-1,-1.949328967E0,1.984207624E0
3.351533583E0,-6.086686177E-1,-1.959835536E0,-2.825029618E-1,2.071531013E0
3.361503583E0,-1.978838695E0,-1.698300105E0,-1.913431156E0,3.234384735E0
3.371473583E0,-1.249671899E0,5.583208019E-1,-1.211997997E0,1.828207077E0
3.381444583E0,-1.323499137E0,1.346046292E0,-8.359916246E-1,2.064551424E0
3.391414583E0,1.045651289E0,-1.566063861E0,2.702055656E0,3.293485601E0
3.401384583E0,4.096515432E-1,-4.312307803E0,6.076059886E0,7.462058476E0
3.411354583E0,3.634876294E-1,4.248703837E-2,2.386620006E0,2.414515160E0
3.421324583E0,-1.980296625E-1,-5.937321246E-2,1.437373077E0,1.452164690E0
3.431294583E0,-5.710985760E-1,-9.766528291E-1,1.085554882E0,1.567939327E0
3.441264583E0,-8.974435953E-1,7.101241681E-1,-3.646503190E0,3.821866934E0
3.451234583E0,2.229131100E-1,1.019327563E-1,-1.514563925E0,1.534269997E0
3.461204583E0,-1.045652020E0,2.898342007E-1,1.620164055E-1,1.097105887E0
3.471174583E0,8.915971836E-1,-1.146574670E-1,-1.801106143E-1,9.168051625E-1
3.481144583E0,8.610455550E-1,8.079714748E-1,-4.759376264E0,4.903659834E0
3.491114583E0,-3.522167193E-1,-2.075162217E-1,-5.305123798E0,5.320851258E0
3.501084583E0,7.114989947E-1,-3.499852391E0,1.700202497E0,3.955488099E0
3.511054583E0,-2.005620404E0,-3.053837598E0,5.915599424E0,6.952895356E0
3.521024583E0,-1.344215529E0,1.981714940E0,2.766034135E0,3.658559051E0
3.530995583E0,-3.536941645E-1,2.606882573E0,-7.542031109E-1,2.736742342E0
3.540965583E0,-1.623829162E-1,5.525048688E-1,-3.585302138E0,3.631256155E0
3.550935583E0,-3.969539490E-1,-1.740493321E0,-7.274525671E0,7.490368027E0
3.560905583E0,2.153084113E0,5.467933086E-1,-4.942880017E0,5.419115886E0
3.570875583E0,6.718645205E-1,-1.964310703E-1,1.359933722E0,1.529511957E0
3.580845583E0,1.335622754E0,-4.011423826E-1,3.405451725E0,3.679932717E0
3.590815583E0,1.269531675E0,7.052475902E-1,4.115966780E0,4.364661197E0
3.600785583E0,-1.410598969E0,1.691598904E0,4.067480498E0,4.625547957E0
3.610755583E0,-2.135936861E0,1.527448264E0,8.074045873E-1,2.747221622E0
3.620725583E0,-5.641733531E-1,2.857598609E0,1.055490253E0,3.098099588E0
3.630695583E0,3.396130094E-1,-1.579739037E0,1.829648741E0,2.441009410E0
3.640665583E0,-8.814486100E-1,2.116469580E0,-8.636594796E-1,2.449959761E0
3.650635583E0,-8.206277000E-1,-7.489406168E-3,-2.516819957E0,2.647237921E0
3.660605583E0,3.525724858E-1,-1.532445002E0,-3.608295729E0,3.936050446E0
3.670575583E0,2.133751683E-1,-1.788529074E0,-2.691523066E0,3.238620328E0
3.680546583E0,-1.774663864E0,-3.236946664E0,6.770409143E-1,3.753084057E0
3.690516583E0,-1.794093577E0,1.522972221E0,1.387502174E0,2.731918453E0
3.700486583E0,-2.698897319E-1,-2.980842712E0,2.039909939E0,3.622084524E0
3.710456583E0,1.127220386E0,-2.258225383E0,1.126198293E0,2.763789115E0
3.720426583E0,-1.303743076E-1,1.426577362E-1,7.779971856E-1,8.016410110E-1
3.730396583E0,-3.940503678E-1,1.618880591E-1,5.453960579E0,5.470573044E0
3.740366583E0,7.739092509E-1,2.261954445E0,1.215150815E0,2.681783910E0
3.750336583E0,5.096451801E-1,-1.243330886E0,-2.379836066E0,2.732989134E0
3.760306583E0,1.040727130E0,-2.596475114E0,-5.738186715E0,6.383696637E0
3.770276333E0,-4.148763593E-1,-2.513935233E0,-3.638868481E0,4.442224282E0
3.780246333E0,4.861471938E-1,-3.904340842E-1,8.264957464E-1,1.035313038E0
3.790216333E0,-4.049156640E-1,2.232193871E0,5.729574351E0,6.162358998E0
3.800186333E0,-1.878375490E0,2.049218121E0,2.230673595E0,3.564196133E0
3.810156333E0,-4.386119983E-1,9.712295365E-1,1.527492703E0,1.862498659E0
3.820126333E0,9.549676258E-2,8.607344100E-1,-7.610496157E-1,1.152900635E0
3.830097333E0,-1.915333547E0,3.163992709E-1,7.018179059E-2,1.942559286E0
3.840067333E0,-3.641585243E-1,-1.510829893E-1,-2.181795550E0,2.217130876E0
3.850037333E0,-7.563426802E-1,-6.102043158E-1,2.905083847E-1,1.014297135E0
3.860007333E0,4.623221654E-1,-1.890675547E0,1.848070394E0,2.683982114E0
3.869977333E0,-1.362027756E-1,8.923152217E-1,-2.090516421E0,2.277067534E0
3.879947333E0,-5.364422020E-2,7.263645172E-1,-4.124507807E0,4.188322787E0
3.889917333E0,-2.367333331E-1,2.162348003E0,-1.252169538E0,2.509924323E0
3.899887333E0,-1.073753446E0,5.605360195E-1,-1.481640592E0,1.913741345E0
3.909857333E0,6.284888515E-1,-2.123661947E-1,5.772313989E0,5.810310356E0
3.919827333E0,-1.822579019E0,5.003989853E0,6.455910802E-3,5.325575124E0
3.929797333E0,4.036537617E-1,3.862863033E0,8.319634777E-1,3.972003324E0
3.939767333E0,-1.273428552E-1,-7.030326650E-1,-5.373836768E-1,8.940091425E-1
3.949737333E0,-7.640711644E-1,-8.024680755E-1,-4.374963934E0,4.513099731E0
3.959707333E0,7.580944330E-1,-1.023503352E0,-2.210119463E0,2.550861486E0
3.969677333E0,9.472160451E-3,-1.225040796E0,3.920534706E-1,1.286281694E0
3.979648333E0,1.497901114E0,2.501035398E-1,5.063028020E-1,1.600812936E0
3.989618333E0,9.357010502E-1,3.059880111E0,-3.012027082E0,4.394395282E0
3.999588333E0,-1.190161497E0,-7.965296432E-1,-1.011066032E0,1.753054016E0
4.009558333E0,7.601783806E-1,-3.760563364E0,4.858794132E0,6.190927912E0
4.019528333E0,-1.179665306E0,-2.718150702E0,8.890061654E0,9.370867072E0
4.029498333E0,-2.421014206E0,8.791759434E-1,3.064970112E-1,2.593877511E0
4.039468333E0,-1.222405456E0,4.546306649E-1,-3.261803178E0,3.512879746E0
4.049438333E0,-3.718862192E0,-1.794418390E0,-1.481764553E0,4.386969290E0
4.059408333E0,-2.491979231E0,-1.886302999E0,-2.492338250E0,3.997480386E0
4.069378333E0,-1.640157439E0,-2.503679802E0,-1.936890770E0,3.565119188E0
4.079348333E0,-2.649157358E0,-7.055507684E-1,-5.120511997E-1,2.788912516E0
4.089318333E0,-3.198377261E0,-1.053232351E0,4.525096459E0,5.640515353E0
4.099288333E0,-3.395423166E0,-4.924438484E0,6.461676741E0,8.805240437E0
4.109258333E0,-1.818892350E0,-1.628128547E0,2.958450215E0,3.835570312E0
4.119228333E0,-1.669042392E0,3.835690730E0,-2.577511132E-1,4.191021536E0
4.129199333E0,8.109588173E-1,4.381157598E0,4.267362303E-1,4.475969159E0
4.139169333E0,-3.436823060E-1,-1.599181321E-1,-1.912836494E0,1.950034561E0
4.149139333E0,-8.178621132E-2,-6.120108715E0,1.892222135E0,6.406475184E0
4.159109333E0,-1.853983684E0,-1.265276071E-1,-1.035326130E0,2.127243505E0
4.169079333E0,-2.841669624E0,1.679457160E0,-1.508232560E0,3.629108438E0
4.179049333E0,3.164025234E-1,-4.288815737E-1,-2.295838475E0,2.356888683E0
4.189019333E0,-1.095877995E0,-2.734967878E0,-4.587316096E-1,2.981850527E0
4.198989333E0,-2.317226712E0,-1.966761855E0,1.706814528E0,3.485815208E0
4.208959333E0,-2.616899146E0,8.425633103E-2,4.553408092E-1,2.657554425E0
4.218929333E0,-2.043905341E0,6.031522229E0,-5.331584787E0,8.305576788E0
4.228899333E0,2.749584821E-1,2.872625953E0,-3.091650372E0,4.229170611E0
4.238869333E0,3.868827413E-1,-4.552137785E0,1.878585259E0,4.939708417E0
4.248839333E0,-2.448738486E0,-1.493110490E0,3.775268235E0,4.741133762E0
4.258809333E0,8.286282259E-1,2.354860854E0,1.920102829E0,3.149410937E0
4.268779333E0,1.889582410E0,7.599889308E-1,-1.320456830E0,2.427284717E0
4.278750333E0,1.647811883E0,5.352088049E-1,-5.162351748E0,5.445329011E0
4.288720333E0,2.118016753E0,8.712471190E-1,-5.125594397E0,5.613981157E0
4.298690333E0,7.716516410E-1,1.931948995E0,3.936854870E0,4.452718208E0
4.308660333E0,-1.233763234E-1,4.059198209E0,7.251278896E0,8.311038289E0
4.318630333E0,-9.243340630E-1,3.270230185E0,4.928513993E0,5.986572400E0
4.328600333E0,1.790073617E0,1.354553991E0,-3.061364719E0,3.796199943E0
4.338570333E0,2.689600794E0,2.350816920E0,-9.162004545E0,9.833749026E0
4.348540333E0,2.689922099E0,-7.630242205E-1,-3.762873892E0,4.687974699E0
4.358510333E0,9.887064256E-1,-1.710550607E0,-2.204048299E0,2.959958222E0
4.368480333E0,-2.287243360E0,-4.526659420E0,5.385763918E0,7.397876768E0
4.378450333E0,-1.458147649E0,-3.193841575E0,7.006636655E0,7.837076993E0
4.388420333E0,1.112331329E0,2.923811894E0,-1.442644926E0,3.444877554E0
4.398390333E0,-8.769523935E-1,3.622122055E-1,-3.606461458E0,3.729183212E0
4.408360333E0,7.890452072E-4,-3.213180949E0,5.298214728E-1,3.256569242E0
4.418330333E0,1.214203566E-2,-8.253102234E-1,-1.213215387E-1,8.342681281E-1
4.428301333E0,-1.522159019E0,-1.320485774E0,-4.416717732E-1,2.062940793E0
4.438271333E0,-1.479512206E0,2.685003421E-1,-1.595561310E0,2.192456315E0
4.448241333E0,-2.327741029E0,-9.494012958E-1,5.233843315E0,5.806277376E0
4.458211333E0,-1.847743389E0,-2.430238773E0,1.296961548E0,3.316975336E0
4.468181333E0,-1.111130311E0,-1.722466940E-1,3.610421777E-1,1.180944937E0
4.478151333E0,-1.477445215E0,-1.943061629E0,6.116362989E-2,2.441735826E0
4.488121333E0,-8.293923108E-1,-2.182645735E0,1.376089579E-1,2.338967771E0
4.498091333E0,-3.390945953E0,-2.385421911E0,1.166514845E0,4.306914096E0
4.508061333E0,-9.943294005E-1,-1.662654309E0,3.947184561E0,4.396973535E0
4.518031333E0,-5.665052958E-2,2.400209520E0,1.862491382E0,3.038599870E0
4.528001333E0,-1.211602579E0,6.451525390E-3,2.094156897E-1,1.229584223E0
4.537971333E0,-2.457433296E0,-1.949693248E0,7.727042860E-1,3.230689412E0
4.547941333E0,4.376910619E-1,-1.054147440E0,-9.250938356E-1,1.469217103E0
4.557911333E0,2.296979632E-1,1.110572194E0,-1.186763753E0,1.641505393E0
4.567881333E0,2.076022781E0,3.590518147E0,-1.706613969E0,4.484888225E0
4.577851333E0,9.745491470E-1,4.386701927E0,-1.985289343E0,4.912664615E0
4.587822333E0,2.025004801E0,2.534007847E0,-2.023963412E0,3.823384379E0
4.597792333E0,1.100377720E0,-3.065592840E-1,1.226573936E0,1.676094669E0
4.607762333E0,1.114390791E0,-4.832253036E-1,2.868649846E-1,1.248064521E0
4.617732333E0,-1.402235221E-1,1.277885300E0,8.567422235E-1,1.544882103E0
4.627702333E0,-3.739004973E-1,2.215303896E0,-5.562456250E-3,2.246642801E0
4.637672333E0,-3.149747430E-1,5.101184610E0,-2.553766758E0,5.713406880E0
4.647642333E0,-6.184334678E-1,1.160541329E0,-3.731171458E0,3.956128989E0
4.657612333E0,-2.209623765E0,-2.251420686E-1,-3.525878640E0,4.167126866E0
4.667582333E0,-1.652862708E0,7.497764763E-1,-1.705024695E-1,1.822962146E0
4.677552333E0,-1.744933112E0,4.387750626E-1,1.356730033E0,2.253448801E0
4.687522333E0,-1.099030009E0,-3.450357464E0,-6.124034536E-1,3.672583775E0
4.697492333E0,-1.055133171E-1,-1.797629973E0,-1.423891152E0,2.295663867E0
4.707462333E0,-1.436819309E-1,-2.861919701E-3,3.093744260E0,3.097080276E0
4.717432333E0,3.029411366E-2,-2.151348513E0,4.481181530E0,4.970936136E0
4.727402333E0,-2.689016950E0,-6.089378089E-1,9.008775920E-1,2.900551300E0
4.737372333E0,-1.937835533E0,2.791447012E0,-3.129898179E0,4.619918353E0
4.747343333E0,-4.049317438E-1,-3.760643179E0,-2.661149704E-1,3.791731005E0
4.757313333E0,9.956207581E-2,-8.139055216E0,3.720288620E0,8.949563109E0
4.767283958E0,2.567682328E-2,-8.780664343E-1,2.050184666E0,2.230452225E0
4.777253958E0,1.490765903E-1,4.193686216E0,2.359222877E-1,4.202961722E0
4.787223958E0,-1.138141231E0,-9.494267312E-1,-6.647582531E-2,1.483642684E0
4.797193958E0,-1.364202774E0,-1.216295408E0,-2.256849825E0,2.904099665E0
4.807163958E0,-1.892017483E0,8.672961554E-1,2.270742810E-1,2.093679895E0
4.817133958E0,1.957952440E0,1.038694126E0,-8.723928809E-1,2.381917838E0
4.827103958E0,9.962203901E-1,8.747867310E-1,5.323603338E-1,1.428675756E0
4.837073958E0,-2.937480638E0,-1.605792768E0,-9.856663120E-1,3.489828218E0
4.847043958E0,-1.739786977E0,-2.688247164E0,1.237341583E0,3.432862615E0
4.857013958E0,-3.215163155E0,1.171901885E-1,-2.457906336E-1,3.226673316E0
4.866983958E0,8.145218182E-1,-4.166395506E-1,2.913635400E0,3.053900056E0
4.876953958E0,-6.056331270E-2,1.213533183E0,1.278024171E0,1.763427482E0
4.886923958E0,-2.184762135E0,2.809840890E0,-1.382533211E0,3.818349053E0
4.896894958E0,1.601312083E-2,-1.804510100E0,-5.335595977E-1,1.881807366E0
4.906864958E0,6.686511283E-2,-1.685188601E0,2.171249512E0,2.749301003E0
4.916834958E0,1.952841755E-1,1.639656333E0,-2.774742978E0,3.228901887E0
4.926804958E0,-3.775486920E0,5.492660961E-1,-1.784894738E0,4.212106831E0
4.936774958E0,-5.466428524E-1,-4.938993373E0,4.240608367E0,6.532628359E0
4.946744958E0,-5.165123329E-1,-5.093234736E0,4.994301016E0,7.151983480E0
4.956714958E0,-2.188646440E0,4.393227128E0,-2.100811028E-1,4.912713294E0
4.966684958E0,5.434169435E-1,6.038768098E0,-1.899300190E0,6.353688954E0
4.976654958E0,1.736814399E0,5.932102606E-1,-7.536762768E-1,1.984049042E0
4.986624958E0,3.453280414E-1,-5.230549579E0,6.647962600E-1,5.283924150E0
4.996594958E0,8.335874688E-2,-1.465404336E0,-2.474227669E0,2.876831783E0
5.006564958E0,1.505984196E-2,4.468664103E0,-3.576687436E0,5.723799322E0
5.016534958E0,8.110835092E-1,2.618703889E0,-1.726593320E0,3.239844288E0
5.026504958E0,4.022215594E-1,-3.835404801E0,-1.907249479E0,4.302291569E0
5.036474958E0,2.556273752E0,2.145855054E0,-3.804176284E0,5.060729850E0
5.046445958E0,1.345307351E0,2.870690817E0,-1.391461909E0,3.462207948E0
5.056415958E0,2.646134639E0,2.837404665E0,3.264715092E0,5.070627021E0
5.066385958E0,-1.465286076E0,2.061612757E0,5.170362434E0,5.755862936E0
5.076355958E0,-3.811845200E-1,-1.220857698E-1,3.170822257E-1,5.106346162E-1
5.086325958E0,-1.803559927E0,-2.801950657E-1,-1.024884757E0,2.093257378E0
5.096295958E0,-7.501246049E-1,1.131726835E0,-9.751822543E-1,1.671667725E0
5.106265958E0,-3.174825041E-1,-2.650177989E0,2.463124391E0,3.631971955E0
5.116235958E0,-1.283344699E0,2.860438601E0,-5.876951083E0,6.660903590E0
5.126205958E0,8.472485380E-1,-1.182476574E-1,-3.244729893E0,3.355604964E0
5.136175958E0,3.110648561E-1,-5.225742583E0,6.088173562E-1,5.270275653E0
5.146145958E0,4.983387481E-1,-3.077021516E0,4.685405477E0,5.627559631E0
5.156115958E0,9.598186221E-1,3.614099675E-1,5.074144746E0,5.176757079E0
5.166085958E0,-1.308972606E0,-1.297190174E0,2.885614373E0,3.423869440E0
5.176055958E0,2.338526365E0,-2.883522824E0,5.674166136E0,6.780823753E0
5.186025958E0,-5.632723337E-1,1.857061073E-1,1.513535984E0,1.625593324E0
5.195995958E0,-5.444309603E-1,9.064441413E-1,1.204218276E0,1.602556616E0
5.205965958E0,4.199149416E-1,-1.193104473E0,-1.907586279E0,2.288823334E0
5.215936958E0,6.038332627E-1,-1.125981654E0,-8.384179852E0,8.480974065E0
5.225906958E0,-1.318933777E-1,-1.311090468E0,-4.729192936E0,4.909340068E0
5.235876958E0,-1.132481236E-1,-3.246193744E0,1.168240358E0,3.451866813E0
5.245846958E0,1.846181159E0,-3.379340107E0,1.015863439E1,1.086398532E1
5.255816958E0,1.890962645E0,1.877022590E0,2.182462133E0,3.444139151E0
5.265786958E0,7.684777723E-1,4.796241789E0,-1.461071842E0,5.072398280E0
5.275756958E0,2.723049791E0,5.448090559E-1,-1.732838731E0,3.273308287E0
5.285726958E0,3.524654818E-1,-2.727010695E0,2.553670864E0,3.752606311E0
5.295696958E0,1.747830115E0,-1.758351595E0,2.381921768E-1,2.490671787E0
5.305666958E0,1.725978047E0,1.117440918E0,-1.067771745E0,2.316853669E0
5.315636958E0,-8.398617139E-2,4.087792848E0,-5.509970473E0,6.861259262E0
5.325606958E0,1.596954848E0,-8.052039877E-1,-4.960380149E0,5.272948840E0
5.335576958E0,5.934700231E-1,-2.904321370E0,-6.253468502E0,6.920488248E0
5.345546958E0,1.425305447E0,2.274093264E-1,-2.650140567E0,3.017690448E0
5.355516958E0,9.983578397E-1,3.055949028E0,3.673644211E0,4.881721482E0
5.365486958E0,-1.147576152E0,1.825159542E0,7.130010567E0,7.448838101E0
5.375457958E0,-2.079186271E0,2.662598937E0,4.420337158E0,5.563436819E0
5.385427958E0,-2.137634746E0,2.837579789E0,-1.312493507E0,3.787344792E0
5.395397958E0,-1.041592445E0,2.873024441E0,-2.229160336E0,3.782636654E0
5.405367958E0,-1.537611018E0,3.016964471E-1,4.374547613E-1,1.626848197E0
5.415337958E0,-5.361578811E-1,-2.395378258E0,2.343651742E0,3.393818757E0
5.425307958E0,4.116676632E-1,2.260777400E0,-6.712942708E-1,2.393996808E0
5.435277958E0,9.506406131E-1,2.739642435E0,1.291626549E-1,2.902764413E0
5.445247958E0,-1.251843555E-1,1.347151416E0,-2.035492367E0,2.444118908E0
5.455217958E0,-1.978798787E0,6.404809061E-1,-1.060742807E0,2.334745325E0
5.465187958E0,-2.721233354E0,-3.347855774E0,-2.202431543E0,4.843960565E0
5.475157958E0,-1.351016426E0,-5.482003825E0,2.446073325E0,6.153120025E0
5.485127958E0,-2.192704262E0,-2.876414949E0,7.063026034E0,7.935241124E0
5.495097958E0,8.224038649E-1,7.607812285E-3,3.329948384E0,3.430009072E0
5.505067958E0,-1.379613805E-1,-2.263175636E0,-8.163484883E-1,2.409859364E0
5.515037958E0,-1.230439530E0,-4.348861379E0,-1.728863209E0,4.838961121E0
5.525007958E0,9.041263781E-1,-4.683366846E0,4.071229148E-1,4.787182740E0
5.534977958E0,-1.069981115E0,-1.527698818E0,3.000738448E-1,1.889118201E0
5.544948958E0,-5.076711966E-1,1.566477844E-1,3.324337395E0,3.366524572E0
5.554918958E0,2.325399841E-1,-4.568350652E-1,1.506283098E0,1.591119698E0
5.564888958E0,-1.456920172E0,1.215437329E0,1.297590709E-1,1.901773306E0
5.574858958E0,-4.322573905E-1,1.835239557E0,-1.313712067E0,2.297996971E0
5.584828958E0,-8.956896499E-1,2.204265815E0,-4.186149740E0,4.815069820E0
5.594798958E0,7.012042406E-1,9.705345950E-1,-5.723536516E0,5.847434911E0
5.604768958E0,-4.060193259E-1,-3.181166274E0,-5.713203317E0,6.551745011E0
5.614738958E0,-1.252677076E0,-2.380045104E0,-4.946794728E0,5.630683141E0
5.624708958E0,-8.884250692E-1,-1.578780386E-1,-1.037857389E0,1.375271806E0
5.634678958E0,-1.609656462E0,-2.009943251E0,8.106992594E0,8.506126893E0
5.644648958E0,-2.077662779E0,-9.068622172E-1,5.280644429E0,5.746676195E0
5.654618958E0,-2.105159530E-1,-2.745592854E0,3.381213262E0,4.360642179E0
5.664588958E0,-1.780074878E0,-2.175510378E0,3.520807350E0,4.505285381E0
5.674558958E0,-1.725568303E0,1.499628674E0,-2.209496149E0,3.179362414E0
5.684528958E0,-1.392362234E0,3.090100860E0,-3.370697629E-1,3.406025828E0
5.694498958E0,5.514890978E-1,3.869906882E0,3.350399020E0,5.148348579E0
5.704469958E0,-1.057616666E0,2.578846343E0,1.546682096E0,3.187667953E0
5.714439958E0,-9.852065746E-1,-1.598430831E0,9.949856043E-2,1.880296009E0
5.724409958E0,-4.989517555E-1,3.340657267E0,-6.119180762E0,6.989514792E0
5.734379958E0,3.767111076E0,3.064356154E-1,-6.343187009E0,7.383837084E0
5.744349958E0,7.632614712E-1,-9.714213252E-1,-2.715422975E0,2.983244777E0
5.754319958E0,-1.857871205E0,7.494314906E-1,2.423542249E-1,2.017936705E0
5.764289958E0,-3.167770595E0,-1.182216665E0,7.060246267E0,7.828121367E0
5.774259708E0,-1.315067598E0,-2.676761770E-1,5.369213959E0,5.534393540E0
5.784229708E0,-2.977606497E-1,2.644185178E0,3.859863997E-2,2.661177655E0
5.794199708E0,-7.566985564E-1,-6.388290676E-1,-6.040788896E0,6.121423508E0
5.804169708E0,-2.836999160E0,-4.128088642E0,-2.147489351E0,5.449898218E0
5.814139708E0,-1.174514128E-1,-3.273100291E0,2.307858011E0,4.006643102E0
5.824109708E0,-8.544037758E-1,3.597516679E0,-1.464226415E0,3.976944941E0
5.834079708E0,-7.743906230E-1,2.500841855E0,-6.762930554E-1,2.703934748E0
5.844049708E0,-1.836372893E-1,-2.016776307E0,4.126015804E0,4.596206669E0
5.854019708E0,-7.993725595E-1,4.736116040E-1,8.744674730E-1,1.275930171E0
5.863990708E0,-2.064563115E0,2.364667220E0,-2.311579764E-2,3.139204717E0
5.873960708E0,-1.760993951E0,1.175518680E0,-3.866231614E-1,2.152306050E0
5.883930708E0,-1.676561911E0,1.068011773E0,-1.258286310E0,2.352614169E0
5.893900708E0,-2.678860190E-1,-1.702231188E0,5.912979287E-1,1.821808765E0
5.903870708E0,3.910255301E-1,-2.484270554E0,1.497255582E0,2.926820020E0
5.913840708E0,-2.375768012E0,3.193886307E0,1.122715107E0,4.135900458E0
5.923810708E0,-2.549505892E-1,1.768095687E-1,4.668142158E-1,5.605148870E-1
5.933780708E0,1.132627599E-2,-4.883332265E0,-8.077343702E-2,4.884013375E0
5.943750708E0,-2.814214827E-1,-2.629557491E0,-3.350059882E0,4.268099326E0
5.953720708E0,-4.876816128E-1,1.008177508E0,-3.808408499E-1,1.182918000E0
5.963690708E0,-6.786547458E-1,-7.479103374E-1,6.289897240E0,6.370459122E0
5.973660708E0,1.023051362E0,-1.752925671E0,7.570665509E0,7.838007320E0
5.983630708E0,-8.760104071E-1,-8.568995136E-1,-1.151541880E0,1.681582502E0
5.993600708E0,-1.024820657E0,1.787330395E0,-5.614141544E0,5.980250211E0
6.003570708E0,1.030116553E0,-1.921885645E0,-3.057328970E0,3.755268962E0
6.013540708E0,1.910695828E0,-4.797867607E0,-4.126864820E0,6.610696285E0
6.023511708E0,-9.980722032E-3,-1.247838213E0,-3.661885461E0,3.868669661E0
6.033481708E0,-7.945234635E-1,-4.754982081E-1,6.064114024E0,6.134398502E0
6.043451708E0,-8.952417532E-1,-9.339874506E-1,1.011820089E1,1.020057742E1
6.053421708E0,-1.545005406E0,4.054709010E0,2.958573006E0,5.251748384E0
6.063391708E0,-9.717345898E-1,-3.064233363E-2,-2.269304395E-3,9.722202504E-1
6.073361708E0,-8.231452918E-1,-2.113133743E0,1.768022597E0,2.875553215E0
6.083331708E0,6.536266163E-1,1.825542827E0,-1.723848637E0,2.594511223E0
6.093301708E0,-1.763909227E0,2.982783695E0,-2.665467288E0,4.371852033E0
6.103271708E0,-2.005501267E0,2.041877527E0,-1.265232217E0,3.129235007E0
6.113241708E0,3.487274299E-1,1.577075338E0,5.198934853E-1,1.696781270E0
6.123211708E0,-1.645895093E-1,-1.291143276E0,1.877788283E0,2.284782157E0
6.133181708E0,3.974319588E-1,2.461873379E0,-1.282751060E0,2.804322196E0
6.143151708E0,-1.930775167E0,2.430383492E0,-4.578082173E0,5.531138494E0
6.153121708E0,-4.773782707E-1,1.038840599E0,-9.940523887E-1,1.514998335E0
6.163091708E0,1.756020310E0,1.104363620E0,2.015739888E-1,2.084192507E0
6.173061708E0,-6.454228996E-1,2.831256902E0,-2.617663962E0,3.909571713E0
6.183032708E0,4.381816798E-1,-2.098103768E0,-1.065150438E0,2.393446899E0
6.193002708E0,-6.376834519E-2,-3.332888364E0,-6.649944806E-1,3.399180623E0
6.202972708E0,-2.350778767E0,-4.466190731E0,1.986228991E-1,5.050987182E0
6.212942708E0,-1.417071398E0,-3.961474864E0,-1.176284373E0,4.368640448E0
6.222912708E0,-1.298192972E0,2.365608037E-1,1.985129714E-2,1.319719698E0
6.232882708E0,1.166504028E0,1.802405687E0,1.312401121E0,2.516305746E0
6.242852708E0,-2.035999028E-1,-1.649011001E0,2.604064507E0,3.088987239E0
6.252822708E0,-1.738017025E0,3.703860283E-2,-8.265811157E-1,1.924918538E0
6.262792708E0,-3.026094606E0,-2.479800650E0,-3.983158970E0,5.583208326E0
6.272762708E0,-7.896904474E-1,-3.143302921E0,-2.429222819E0,4.050319464E0
6.282732708E0,2.342615323E-1,-3.521915105E0,3.439520527E0,4.928393849E0
6.292702708E0,-7.847237494E-1,-4.080895765E0,8.774187382E0,9.708546020E0
6.302672708E0,-2.370572323E-1,2.191066603E0,1.883965282E0,2.899360994E0
6.312642708E0,-3.130527047E0,-1.251424018E0,1.536147752E0,3.704863234E0
6.322612708E0,3.574857549E-1,-2.192369362E0,3.540633504E0,4.179756583E0
6.332582708E0,-4.442204649E-1,1.371008348E-1,-1.930002165E0,1.985204477E0
6.342553708E0,-2.639010392E0,-1.593018064E0,-3.032950759E-1,3.097429628E0
6.352523708E0,3.118657053E-1,8.888112777E-1,-2.301606753E0,2.486893514E0
6.362493708E0,-5.375020098E-2,-4.257130260E0,1.430445296E0,4.491349561E0
6.372463708E0,-1.145462237E0,-1.384863326E0,-2.381384994E0,2.983441747E0
6.382433708E0,-1.271537270E0,4.171865577E-1,-4.986914814E-1,1.428126341E0
6.392403708E0,1.093403892E0,-3.740200728E-1,3.493819526E0,3.679972549E0
6.402373708E0,-1.737792930E0,2.094981354E-1,2.271735082E0,2.867855300E0
6.412343708E0,4.431305073E-2,1.107124383E0,2.632556235E0,2.856228348E0
6.422313708E0,-8.673643485E-1,1.013242950E0,-9.282010460E-1,1.624973653E0
6.432283708E0,-1.668239569E0,1.697517163E0,-1.738257930E0,2.947223848E0
6.442253708E0,-2.041334028E0,3.273365755E0,-2.232047106E0,4.456905009E0
6.452223708E0,-4.462501431E-1,2.451835172E0,-2.765614890E0,3.722802791E0
6.462193708E0,-2.095207057E0,1.420766692E0,-1.766667212E0,3.087002372E0
6.472163708E0,-1.889008798E-2,-2.026934382E-1,2.339712473E0,2.348551877E0
6.482133708E0,1.033259943E0,2.690863208E0,1.881284333E0,3.442034523E0
6.492104708E0,-2.639833095E0,5.466496425E0,-2.701149922E0,6.644359475E0
6.502074708E0,-2.910410661E0,7.217381417E0,-7.349281738E0,1.070387905E1
6.512044708E0,-1.842740511E0,-4.242599344E-1,-4.267523686E0,4.667702592E0
6.522014708E0,-1.286573093E0,-2.918997881E0,-1.842099802E0,3.683632804E0
6.531984708E0,-2.523899766E0,-9.187884906E-1,2.198539637E0,3.470996810E0
6.541954708E0,-1.981578700E0,-1.574935257E0,7.427549644E0,7.847010190E0
6.551924708E0,-3.376758268E-1,-2.203572920E-1,3.231250892E0,3.256311506E0
6.561894708E0,-2.902242685E0,-1.944457359E0,1.182378926E0,3.688081744E0
6.571864708E0,-2.041992571E0,-9.434906378E-1,-5.030329220E0,5.510364807E0
6.581834708E0,-1.308406157E0,-1.641874474E0,-3.526963883E0,4.104528316E0
6.591804708E0,-5.780955005E-1,-2.028793505E0,6.328283626E-1,2.202423490E0
6.601774708E0,-2.267196181E0,-3.609783553E0,3.883948093E0,5.766781478E0
6.611744708E0,-7.672337041E-1,-2.427660736E0,4.470396926E0,5.144573148E0
6.621714708E0,3.369090376E-1,4.511802229E-1,-4.956263709E-1,7.501445146E-1
6.631684708E0,3.345352142E-1,-9.799027115E-1,2.729628786E0,2.919417141E0
6.641654708E0,1.385843904E0,-2.150754436E0,3.066600316E0,3.993788360E0
6.651625708E0,-2.629834356E0,-2.339098515E0,3.070128525E0,4.670449632E0
6.661595708E0,-1.648898734E0,4.695548058E-1,1.978548088E0,2.618014761E0
6.671565708E0,-2.893979692E0,6.326237100E-1,1.977686793E0,3.561822043E0
6.681535708E0,-1.354953210E0,7.908160365E-1,-8.406202805E-1,1.779868158E0
6.691505708E0,-5.951659349E-1,5.647445530E-2,-2.049354946E0,2.134775761E0
6.701475708E0,-1.290419099E0,-2.271329870E0,-5.821786112E-1,2.676388007E0
6.711445708E0,-9.216036326E-1,-2.900975593E0,1.216001000E0,3.277753969E0
6.721415708E0,-2.028905771E0,2.314956531E-1,6.037817341E-1,2.129460318E0
6.731385708E0,1.969450405E0,1.937056538E0,-1.721566468E-1,2.767771819E0
6.741355708E0,-2.552387108E-1,-1.145033929E-1,-2.906432800E0,2.919864628E0
6.751325708E0,-2.844270465E0,5.496134207E-1,-3.867505723E0,4.832137199E0
6.761295708E0,7.530751830E-1,5.947419387E-1,5.813097149E-1,1.121945270E0
6.771265833E0,-1.322314491E0,8.174249607E-1,5.699132577E0,5.907352310E0
6.781235833E0,6.623358978E-1,-2.944010516E0,4.666054117E0,5.556792940E0
6.791205833E0,-4.300966982E-1,7.882575873E-1,-6.557873379E0,6.619066131E0
6.801176833E0,-1.812941638E0,3.523939995E0,-7.237415732E0,8.251369399E0
6.811146833E0,-2.418428128E0,4.245791924E0,-2.337087657E0,5.416412317E0
6.821116833E0,-2.469749579E0,4.309953421E-2,5.740670612E0,6.249545554E0
6.831086833E0,-1.904483162E0,-2.618371182E0,3.906208443E0,5.073597162E0
6.841056833E0,-8.636922240E-2,2.920654982E-2,3.491919181E0,3.493109250E0
6.851026833E0,-7.635328551E-1,4.564588553E0,1.748890507E-1,4.631310534E0
6.860996833E0,-1.223036516E0,4.190276704E0,-2.888313448E0,5.234175365E0
6.870966833E0,-1.179876025E0,-3.018712789E-1,2.953984112E-1,1.253193491E0
6.880936833E0,-1.335410500E0,-5.856232059E-1,-1.452962923E-1,1.465396450E0
6.890906833E0,-3.132455751E-1,2.404316604E-1,-2.392926813E0,2.425289448E0
6.900876833E0,-2.576824815E-1,-1.026299783E0,-1.845437393E0,2.127282463E0
6.910846833E0,-6.381453820E-1,-4.308834849E0,-5.834071112E-1,4.394729928E0
6.920816833E0,2.289748015E0,-3.441120910E0,1.287108405E0,4.329076938E0
6.930786833E0,-4.692484117E-1,-7.102761957E-1,5.266774249E-1,1.001037190E0
6.940756833E0,-3.037526498E0,5.715477884E-1,-5.533337116E-1,3.139970110E0
6.950727833E0,-8.422614478E-1,-2.979866519E0,9.809230506E-2,3.098165735E0
6.960697833E0,-2.904151801E0,-4.455018456E0,2.561397375E0,5.902714938E0
6.970667833E0,-1.644163659E0,-3.185582383E0,7.089804527E0,7.944591713E0
6.980637833E0,-9.785471077E-1,7.870665094E-1,5.405477221E0,5.549433495E0
6.990607833E0,-3.285794304E0,2.533920139E0,2.970700132E0,5.103161251E0
7.000577833E0,-2.012534737E0,-7.920781580E-1,-1.498758316E-2,2.162847314E0
7.010547833E0,-2.489008553E0,-5.965853319E0,-1.141306913E0,6.564232695E0
7.020517833E0,-1.052022416E0,-1.263913085E0,-3.368637071E0,3.748592158E0
7.030487833E0,-7.436229397E-1,3.532654101E0,-2.411308705E0,4.341316591E0
7.040457833E0,-3.043167306E0,3.872332599E0,-7.462889045E-1,4.981242229E0
7.050427833E0,-1.500731167E0,2.596877110E-1,-1.550126106E-1,1.530901908E0
7.060397833E0,-2.089444626E0,-1.751505674E0,-3.671226972E-1,2.751059804E0
7.070367833E0,-2.211750105E0,-4.733610800E0,6.036234500E0,7.983422616E0
7.080337833E0,8.644989205E-1,1.287495491E-1,2.824157213E0,2.956315070E0
7.090307833E0,-1.128909135E0,2.516286691E0,-2.174599382E0,3.512124288E0
7.100277833E0,3.078231597E-1,2.092836596E0,-3.230601851E0,3.861542235E0
7.110248833E0,-1.333853971E0,-2.442785144E0,-2.023942362E0,3.441323635E0
7.120218833E0,-1.276651829E0,-1.781239643E0,-4.216735940E0,4.752211753E0
7.130188833E0,-1.992389909E0,-9.763885349E-1,7.973310041E-1,2.357687183E0
7.140158833E0,-1.700925943E0,2.822020348E0,2.028154696E0,3.869154867E0
7.150128833E0,6.116990103E-1,2.655165079E0,-2.816713123E0,3.918922058E0
7.160098833E0,-6.878510273E-1,-2.508133041E0,-1.610189289E0,3.058852715E0
7.170068833E0,-1.835905262E0,7.766856551E-1,3.167236159E0,3.742348678E0
7.180038833E0,-2.549285745E0,3.566872592E0,3.780583938E0,5.789149576E0
7.190008833E0,-3.480514187E0,6.969945962E0,-2.559208177E0,8.200223912E0
7.199978833E0,-2.661281559E0,2.951501384E0,-4.864226196E0,6.281279841E0
7.209948833E0,1.851266482E0,-2.627058975E0,-3.260129120E0,4.577889069E0
7.219918833E0,1.886219968E0,-2.765763994E0,-9.273608011E-1,3.473798252E0
7.229888833E0,-1.949901702E0,-2.095820430E-1,2.448777663E0,3.137284386E0
7.239858833E0,-1.823712941E0,1.540639583E0,5.683057997E0,6.164142066E0
7.249829833E0,6.999064511E-1,-5.214011899E-1,3.811775326E0,3.910416777E0
7.259799833E0,-2.940652752E0,-1.778216925E0,1.656545430E0,3.814922909E0
7.269769833E0,-4.030525218E0,-1.104493721E0,1.685880911E0,4.506354886E0
7.279739833E0,-1.028715926E0,1.811772341E0,3.033696279E0,3.680229420E0
7.289709833E0,-3.810812289E0,-5.905518240E-1,-3.353476410E0,5.110464342E0
7.299679833E0,-3.235422003E0,-2.078831637E0,-3.480961499E0,5.187156202E0
7.309649833E0,-1.434602958E0,-4.621458280E0,1.357771422E0,5.025883556E0
7.319619833E0,1.323066296E0,-4.073524180E0,6.297771685E0,7.616169107E0
7.329589833E0,6.282500658E-1,2.901994471E0,-9.173866206E-1,3.107711097E0
7.339559833E0,-3.751916209E0,1.132304540E0,-6.314805794E-1,3.969604078E0
7.349529833E0,-2.914741985E-1,-3.325470586E0,4.205907481E0,5.369671272E0
7.359499833E0,8.930949479E-2,-2.499153472E0,2.310971653E0,3.405045410E0
7.369469833E0,1.130462814E0,-1.686880201E0,8.406296360E-1,2.197764584E0
7.379439833E0,-2.213799700E-2,2.196672913E0,-3.611852006E0,4.227450401E0
7.389409833E0,-1.578392862E0,8.120700806E-1,-6.258666676E-1,1.882150612E0
7.399379833E0,-4.970622278E-1,-3.111454892E0,2.298249866E0,3.900022416E0
7.409350833E0,-1.120823532E-2,-4.439606073E0,4.224460112E0,6.128318770E0
7.419320833E0,6.337223288E-1,3.721401345E0,-3.981803586E0,5.486819822E0
7.429290833E0,-1.356024858E0,6.768933306E0,-4.112377759E0,8.035478352E0
7.439260833E0,-9.449616511E-1,-1.866744062E-1,-3.944965543E0,4.060856189E0
7.449230833E0,1.429594526E0,-3.288493086E0,-2.093809572E0,4.152344616E0
7.459200833E0,1.883178539E0,-3.900424377E0,-6.927172995E-1,4.386288749E0
7.469170833E0,-1.983214605E0,2.366971022E0,-4.434952859E0,5.404118693E0
7.479140833E0,-4.934273500E0,2.938502146E0,-5.971501729E0,8.284967275E0
7.489110833E0,-1.921887399E0,-2.901981314E0,-3.569995882E0,4.985982082E0
7.499080833E0,-2.247063048E-2,-6.059711655E0,5.534111288E0,8.206521676E0
7.509050833E0,-4.861000141E-1,-2.003359578E0,1.113326115E1,1.132251062E1
7.519020833E0,-3.598898084E0,3.857046516E0,8.526900446E0,1.002680939E1
7.528990833E0,-5.201656147E0,3.439874284E0,4.292812893E0,7.570878701E0
7.538960833E0,-1.716284094E0,8.111599615E-1,5.529758620E-1,1.977218723E0
7.548931833E0,-1.581351114E0,-7.626877132E-1,7.202483296E-2,1.757142985E0
7.558901833E0,-2.223181704E0,3.122042153E0,2.108326455E0,4.374325609E0
7.568871833E0,-1.781807408E0,2.674432532E0,4.339245048E0,5.399673564E0
7.578841833E0,-2.263501326E0,-4.307664236E-1,3.451901422E0,4.150255581E0
7.588811833E0,-1.697808793E0,4.511572726E0,-8.470068433E0,9.745712002E0
7.598781833E0,-8.295440461E-1,4.033313170E0,-1.282344679E1,1.346835350E1
7.608751833E0,-6.374916632E-1,-1.919904900E0,-1.028612006E1,1.048316252E1
7.618721833E0,-1.469905084E0,-3.626005776E0,2.256289077E0,4.516567197E0
7.628691833E0,-1.279550733E0,-7.725745947E0,1.996181653E1,2.144291304E1
7.638661833E0,-1.337692375E0,1.485660553E-2,1.321891620E1,1.328643621E1
7.648631833E0,-3.597438034E0,6.239197787E0,-3.973250864E0,8.225318952E0
7.658601833E0,-5.642328631E0,-1.448443025E-2,-1.162786192E1,1.292452147E1
7.668571833E0,-5.089213021E0,-6.953814079E0,-1.082415979E1,1.383539138E1
7.678541833E0,2.908662051E0,-5.590354486E0,-9.705858750E0,1.157221121E1
7.688511833E0,-6.131583291E-1,-6.351244472E0,4.525429165E0,7.822645244E0
7.698482833E0,-1.033629268E0,-1.623630284E0,4.864274143E0,5.231226214E0
7.708452833E0,-4.339440053E0,6.096425153E0,4.697598676E0,8.835415833E0
7.718422833E0,-4.886452047E0,8.448404499E0,5.920082484E0,1.141491694E1
7.728392833E0,-4.104072958E0,1.226871559E0,6.801899908E0,8.038312697E0
7.738362833E0,-1.663124717E0,-2.341914534E0,1.411086334E0,3.200267513E0
7.748332833E0,-3.882245676E-1,-2.782932881E0,-4.182399920E0,5.038640970E0
7.758302833E0,-2.536890525E0,-1.690466590E0,-4.493395194E0,5.429925524E0
7.768272833E0,-3.381742143E0,-2.693071701E0,-5.720286634E0,7.170111176E0
7.778242333E0,1.438715744E0,-4.946577212E0,2.491488649E0,5.722415992E0
7.788212333E0,8.227779405E-1,-3.329576501E0,5.657679911E0,6.616070223E0
7.798182333E0,-2.990254390E0,-2.152862650E0,7.571190589E0,8.420176117E0
7.808152333E0,-2.460514778E0,2.545830917E0,7.922539837E0,8.677673969E0
7.818122333E0,-3.188061895E0,-8.000186768E-1,-7.501123989E-1,3.371414709E0
7.828092333E0,-7.696344978E-1,-1.896367811E0,9.337974161E-1,2.249561235E0
7.838062333E0,-7.070388848E-1,3.755866881E0,-1.686611813E0,4.177451307E0
7.848033333E0,-1.767125634E0,-2.644979230E-1,-1.227097846E0,2.167593431E0
7.858003333E0,-1.140788850E-1,-2.505764334E0,3.793835483E0,4.548082735E0
7.867973333E0,-8.096443632E-1,2.218424555E0,1.184331896E0,2.641888253E0
7.877943333E0,1.061157374E0,1.208301679E0,-5.621668079E0,5.847153146E0
7.887913333E0,-2.479091383E0,2.206084007E0,-4.063816633E0,5.246647153E0
7.897883333E0,-3.055053234E0,1.126218174E0,-4.181741524E0,5.299875452E0
7.907853333E0,-2.876921025E0,6.146669108E0,-6.145008498E-1,6.814383831E0
7.917823333E0,-4.031275708E0,4.487755555E0,2.974872705E0,6.726143127E0
7.927793333E0,-2.950255342E0,1.857089140E0,-1.835161496E0,3.939619826E0
7.937763333E0,-1.801649203E0,4.421413923E0,-9.368335828E0,1.051477803E1
7.947733333E0,-5.417584173E-1,-5.989621666E-1,-3.840828971E0,3.924821657E0
7.957703333E0,2.780629370E0,-2.524808423E0,2.921636145E0,4.758415181E0
7.967673333E0,-8.276032090E-2,-4.461039627E-1,6.381693848E0,6.397802309E0
7.977643333E0,8.940114990E-1,-3.338358141E0,5.285466628E0,6.315065250E0
7.987614333E0,-4.383467540E-1,1.147628631E0,-1.286932404E0,1.779155520E0
7.997584333E0,-1.600672800E0,1.881322340E0,-1.545749465E0,2.913909499E0
8.007554333E0,-7.505717707E-1,-6.348215615E0,3.358165292E0,7.220836074E0
8.017524333E0,-1.174446885E0,-1.883677891E0,1.783961522E0,2.847821377E0
8.027494333E0,4.610302962E-2,-1.063466732E0,7.274526840E-1,1.289292204E0
8.037464333E0,-1.264186443E0,-2.729326192E0,9.121153557E-1,3.143142257E0
8.047434333E0,-9.529651737E-1,-4.692294082E-1,-4.716598034E-1,1.162231401E0
8.057404333E0,7.580817153E-1,-1.636238050E0,1.393152924E0,2.278779918E0
8.067374333E0,-3.794770599E-1,1.557474594E0,2.295133885E0,2.799530228E0
8.077344333E0,5.657513704E-1,-2.569023021E0,1.746171552E0,3.157383250E0
8.087314333E0,-1.416313160E0,-1.755530605E0,5.759630209E-1,2.327995721E0
8.097284333E0,-3.373495815E0,-4.624840602E0,6.058288443E-1,5.756444493E0
8.107254333E0,-1.854260695E0,3.710467637E-1,2.342608014E0,3.010609695E0
8.117224333E0,-1.123487305E0,-1.258126973E0,2.757764418E0,3.232703480E0
8.127195333E0,-1.647800627E0,-1.478963737E0,2.507705902E0,3.345320542E0
8.137165333E0,-4.872777895E-1,2.172871237E0,-1.457933056E-1,2.231605867E0
8.147135333E0,-4.847001906E-1,-2.295816548E0,6.618287981E-2,2.347357678E0
8.157105333E0,-1.346356926E0,6.335715437E-1,-3.301846080E0,3.621640155E0
8.167075333E0,8.683577905E-1,-1.048102588E0,-3.412492357E0,3.673917307E0
8.177045333E0,2.076911704E0,-3.114344001E-1,-4.294622022E-1,2.143593104E0
8.187015333E0,-3.993956731E-1,1.923224365E0,3.422842514E0,3.946410994E0
8.196985333E0,-1.825870855E0,-8.007764760E-1,-4.935687357E-1,2.053937059E0
8.206955333E0,4.917251817E-1,9.208130890E-1,-3.596766189E0,3.745185899E0
8.216925333E0,-1.653924708E0,3.511231949E0,-6.487650658E0,7.560015066E0
8.226895333E0,3.337361922E-1,-1.908263094E0,-2.345821643E0,3.042322643E0
8.236865333E0,1.883449850E0,-3.478675530E0,7.778001344E-1,4.031567912E0
8.246835333E0,-1.056238112E-1,4.870876819E-1,1.409890578E0,1.495393675E0
8.256806333E0,-1.488747298E0,4.719436857E-1,5.231389239E0,5.459535944E0
8.266776333E0,7.505246276E-1,3.230605359E0,5.151095858E0,6.126490573E0
8.276746333E0,-1.959486896E0,-1.581481799E0,5.596121594E0,6.136550373E0
8.286716333E0,-9.106460235E-1,3.743675144E0,-1.163573111E0,4.024708952E0
8.296686333E0,-2.719605781E-1,4.894081787E0,-6.943405450E0,8.499228102E0
8.306656333E0,-2.216583706E-1,1.576211119E0,-6.974131399E0,7.153466481E0
8.316626333E0,9.427144200E-2,-4.739036724E-1,-7.849683530E0,7.864540884E0
8.326596333E0,-1.116970948E-1,-2.282721708E0,-2.125678067E0,3.121185974E0
8.336566333E0,-6.290989354E-1,-1.778527997E0,5.855908708E0,6.152283649E0
8.346536333E0,-2.433351977E0,-4.639312461E-1,1.097452562E1,1.125062872E1
8.356506333E0,-1.857537767E0,-3.050293601E-1,6.802030885E0,7.057698891E0
8.366476333E0,-2.120348330E0,1.808385926E-1,2.972946632E0,3.656089621E0
8.376446333E0,-7.136724778E-1,-5.151496392E-1,-3.087248588E0,3.210266562E0
8.386417333E0,-1.270515469E0,-2.567403927E0,-7.418820920E0,7.952652157E0
8.396387333E0,-2.150413544E0,2.701998353E-1,-8.316874307E0,8.594631149E0
8.406357333E0,-2.665403846E0,5.566254017E-1,-9.130881570E0,9.528232142E0
8.416327333E0,8.717070025E-1,-5.146696998E0,-4.044500356E0,6.603510143E0
8.426297333E0,-2.210297218E0,-7.621706439E0,9.571188603E0,1.243316026E1
8.436267333E0,-2.909858976E0,-6.540971417E0,2.138641812E1,2.255283721E1
8.446237333E0,-3.110379881E0,2.966271743E0,8.550148975E0,9.569654046E0
8.456207333E0,-5.915881845E0,7.985851150E0,-5.546003355E0,1.138110846E1
8.466177333E0,-1.944269956E0,5.391776025E-1,-6.723694568E0,7.019897919E0
8.476147333E0,1.725431478E0,-5.813158545E0,-3.611160280E0,7.057648661E0
8.486117333E0,5.717915442E-1,-3.435043606E0,-2.811648849E0,4.475694292E0
8.496087333E0,-1.671587393E-1,-4.096734703E-1,-1.353889455E0,1.424356365E0
8.506057333E0,-1.720436640E0,-1.222241149E0,6.772958529E-1,2.216417229E0
8.516028333E0,-2.422989687E0,-3.267300146E0,6.180576527E0,7.399030711E0
8.525998333E0,-2.004452569E-1,-2.087191694E0,5.382640336E0,5.776622235E0
8.535968333E0,-4.260050067E0,2.374379445E0,5.220674801E0,7.144308903E0
8.545938333E0,-2.142348479E0,4.541580344E0,-4.841396327E0,6.975294075E0
8.555908333E0,2.197988244E0,2.526459092E0,-8.006385986E0,8.678500125E0
8.565878333E0,-6.409322380E-1,-9.421881706E-2,-5.623885928E0,5.661074479E0
8.575848333E0,-7.636669026E-1,8.410573599E-1,-2.241263487E0,2.512732903E0
8.585818333E0,-9.906754754E-2,1.032576769E0,3.196531879E0,3.360631670E0
8.595788333E0,-2.612899066E0,1.110782694E0,6.730217721E0,7.304581459E0
8.605758333E0,-2.399999459E0,-3.657123196E0,8.703463554E-1,4.460050476E0
8.615728333E0,-4.362314360E0,-3.870795659E0,4.398106045E-1,5.848613423E0
8.625698333E0,-1.430340338E0,1.673047442E0,-2.899961101E0,3.640705374E0
8.635669333E0,1.656737804E0,3.090346443E0,-4.289996290E0,5.540675902E0
8.645639333E0,7.626266098E-1,4.772632194E0,-5.391443319E0,7.240668371E0
8.655609333E0,6.033034319E-1,6.000695708E0,-2.328337299E0,6.464787590E0
8.665579333E0,-1.384280797E0,2.662781370E0,4.407263954E0,5.332036525E0
8.675549333E0,-1.382422552E0,-3.289845255E0,7.859870549E0,8.632018244E0
8.685519333E0,-2.004974872E0,-2.373440674E0,2.845071534E0,4.212787308E0
8.695489333E0,-2.189876548E0,1.037044626E0,-1.162935179E-1,2.425808120E0
8.705459333E0,-4.153400654E0,1.137162992E0,-1.331743126E0,4.507484489E0
8.715429333E0,-3.160114836E0,1.131566622E0,-5.742831159E0,6.651832718E0
8.725399333E0,-2.175230296E0,-3.310444119E0,-7.421053972E0,8.412057368E0
8.735369333E0,-1.963432159E0,-5.289462615E0,9.719154149E-1,5.725216168E0
8.745339333E0,-3.116895141E0,-3.586355222E0,1.188262979E1,1.279741653E1
8.755309333E0,-1.547307455E0,-5.161073547E0,1.257606513E1,1.368167587E1
8.765280333E0,-2.953510195E0,-3.052260019E0,4.403119447E0,6.117758949E0
8.775250750E0,-4.508793837E-1,5.624506903E-1,-1.164152570E0,1.369267762E0
8.785220750E0,3.003610016E0,-1.823302174E-1,-3.662232785E0,4.739922616E0
8.795190750E0,4.766551967E0,2.775469495E0,-5.827077842E0,8.023595500E0
8.805160750E0,4.572320619E0,1.474936175E0,-6.240116969E0,7.875316651E0
8.815130750E0,2.131014236E0,-9.792019227E-1,-9.742262346E-1,2.539522561E0
8.825100750E0,6.013837179E-1,1.002823797E-1,4.874592140E0,4.912572387E0
8.835070750E0,-3.297489320E0,-1.264284968E0,6.015118450E0,6.975206252E0
8.845040750E0,-4.003958101E0,2.529739380E-1,5.588019108E0,6.879072164E0
8.855010750E0,-3.406765594E0,-6.285081473E-1,1.562999336E0,3.800531704E0
8.864980750E0,5.706086525E-1,4.514145501E0,-6.430991138E0,7.877864613E0
8.874950750E0,8.082058751E-1,2.431834186E0,-8.122569577E0,8.517226706E0
8.884920750E0,3.649326226E0,-1.287515079E0,-6.291933825E0,7.386725136E0
8.894891750E0,2.181285088E0,1.817179846E0,-6.063890660E0,6.695589382E0
8.904861750E0,1.436013307E0,1.902814659E0,-5.938057995E-1,2.456713897E0
8.914831750E0,-7.344971902E-1,-1.845914234E0,1.023202396E1,1.042310893E1
8.924801750E0,-2.503813118E0,-4.364856730E0,9.013279445E0,1.032280295E1
8.934771750E0,-2.944682069E0,-2.448241765E0,1.283483716E0,4.038857595E0
8.944741750E0,-3.155829996E0,7.986776179E-1,-6.238447589E0,7.036716367E0
8.954711750E0,2.458267401E0,-1.340918577E-1,-1.493246146E0,2.879382450E0
8.964681750E0,3.558445000E0,1.800051013E0,-3.039242363E0,5.013951396E0
8.974651750E0,2.389250668E0,-1.647244557E0,2.842717445E-1,2.915946469E0
8.984621750E0,2.197295934E0,-5.775315365E-1,1.415058348E0,2.676572851E0
8.994591750E0,-1.623733926E0,-3.844994527E-1,1.971878754E0,2.583148759E0
9.004561750E0,-7.795336877E-1,-6.991527450E-1,2.028573942E0,2.282892807E0
9.014532750E0,-3.336537611E0,-1.428400817E0,3.535336511E0,5.066696791E0
9.024502750E0,-2.923375399E0,-1.452245762E0,3.132272149E0,4.523966213E0
9.034472750E0,7.825126979E-1,-1.250626165E0,8.976686400E-1,1.726905010E0
9.044442750E0,-1.610854995E0,2.956641671E-1,-9.017733854E-1,1.869616633E0
9.054412750E0,-6.204897143E-1,1.861612838E0,-1.300949349E0,2.354374451E0
9.064382750E0,-8.360751667E-1,1.129914491E0,-5.143063538E0,5.331681817E0
9.074352750E0,-2.607394789E-1,-1.498188797E0,-2.229546252E0,2.698783288E0
9.084322750E0,2.985738513E-1,3.045203599E-1,-1.212687968E0,1.285492552E0
9.094292750E0,1.827065880E0,1.032984612E0,-1.051408312E0,2.347485118E0
9.104262750E0,-6.174304511E-1,-1.584178828E0,2.609439853E0,3.114485393E0
9.114232750E0,-2.600957589E0,-3.565795827E0,5.017216254E0,6.682240583E0
9.124202750E0,-1.559647419E0,2.232983245E0,8.888931388E-1,2.865108245E0
9.134173750E0,-2.486144879E0,3.751374173E0,-4.257545997E0,6.195193496E0
9.144143750E0,-2.860202082E-3,-1.621909449E0,-2.499098216E0,2.979276814E0
9.154113750E0,1.911324404E0,-1.766891453E0,-3.459058414E0,4.328989662E0
9.164083750E0,-9.995660207E-1,-4.723670241E-1,-1.810561675E0,2.121413778E0
9.174053750E0,-8.950097649E-1,-1.807865817E0,2.202163156E0,2.986460088E0
9.184023750E0,-4.111167824E-1,1.038360542E0,5.494812151E0,5.607153485E0
9.193993750E0,-8.519842710E-1,4.790767041E-1,6.140943514E0,6.218245647E0
9.203963750E0,-1.139469645E0,-2.786849931E0,4.088228758E0,5.077256935E0
9.213933750E0,-2.864330508E0,2.123109385E-1,-9.930121690E-1,3.039002857E0
9.223903750E0,-1.676585593E0,1.337602913E0,-4.077707863E0,4.607366082E0
9.233873750E0,4.951482879E-1,-2.829258324E0,-1.600312757E-1,2.876714185E0
9.243844750E0,1.490809026E0,-5.020384276E-1,-2.496239512E0,2.950553480E0
9.253814750E0,-3.195543554E-1,2.874510218E0,-2.224733409E0,3.648885134E0
9.263784750E0,6.037990199E-1,-1.914930966E0,-4.292563802E-1,2.053240099E0
9.273754750E0,4.827320910E-1,-1.738495912E0,-4.413338041E-1,1.857464356E0
9.283724750E0,-1.988239556E0,-4.084562261E0,4.679147787E0,6.521592552E0
9.293694750E0,-2.861412748E0,-6.556622660E0,9.961681452E0,1.226426031E1
9.303664750E0,-1.567740550E0,-5.426345934E0,2.978869277E0,6.385663849E0
9.313634750E0,-7.174489021E-1,1.262062149E0,-1.771778848E0,2.290575055E0
9.323604750E0,4.722581782E0,2.345996768E0,-5.627290177E0,7.711865809E0
9.333574750E0,5.191244595E0,-5.932973841E-1,-2.768584106E0,5.913212340E0
9.343544750E0,2.728854614E0,-3.654976975E0,2.539855063E-1,4.568370917E0
9.353514750E0,2.379489692E-1,-3.050021997E0,3.659002199E0,4.769439274E0
9.363485750E0,2.422346786E0,2.335134687E0,2.594511911E0,4.248777473E0
9.373455750E0,-2.382179411E-2,7.291288469E0,2.201469676E0,7.616424604E0
9.383425750E0,2.398770228E0,3.983693991E0,-2.884958900E0,5.472376474E0
9.393395750E0,1.655191800E0,1.763482234E-1,-4.195892955E0,4.514008892E0
9.403365750E0,-7.071645268E-1,2.204682721E0,-5.935081762E0,6.370706640E0
9.413335750E0,-2.231290769E0,5.502772551E0,-5.046544719E0,7.792738789E0
9.423305750E0,-4.611382505E-1,3.545011314E0,-2.711370855E0,4.486790124E0
9.433275750E0,1.038492178E0,2.024322431E0,-5.273978019E-1,2.335486191E0
9.443245750E0,-1.001323438E-1,1.903907503E0,6.702789018E0,6.968663493E0
9.453215750E0,-1.176758728E0,1.489739571E0,8.014460991E0,8.236241259E0
9.463185750E0,-7.845937950E-1,1.304445400E0,5.215464347E0,5.433068523E0
9.473155750E0,-5.568480636E0,1.754526346E0,9.662611574E-1,5.917769844E0
9.483126750E0,-2.585911534E0,3.132752790E0,-3.901668080E0,5.632414430E0
9.493096750E0,-3.984155701E-1,1.825597498E0,-5.796128529E0,6.089880715E0
9.503066750E0,-7.491629572E-1,2.247222677E0,-5.092413787E0,5.616398586E0
9.513036750E0,1.966067645E0,-3.901481554E-1,-3.117199781E0,3.706018354E0
9.523006750E0,3.157336531E0,-3.074038266E0,-2.692635207E0,5.164181405E0
9.532976750E0,1.400851660E0,-3.246015696E0,-2.832344484E-1,3.546720319E0
9.542946750E0,-1.629176953E0,-2.830215221E0,2.001141729E0,3.830000517E0
9.552916750E0,-2.120297898E0,-2.443148840E0,5.325019534E0,6.230607712E0
9.562886750E0,-1.566721088E0,-3.385673226E0,5.991403897E0,7.057925958E0
9.572856750E0,-5.522433155E-1,-3.490767572E0,4.125758527E0,5.432523754E0
9.582826750E0,-2.163550483E0,-4.639981967E-1,-1.673472535E0,2.774302677E0
9.592796750E0,-1.795717057E0,-3.061785718E0,-5.526983532E0,6.568613133E0
9.602767750E0,-7.005811467E-1,-3.478810893E0,-9.169629314E0,9.832346664E0
9.612737750E0,-3.259397707E-1,-4.189047912E0,-6.165279626E0,7.460900214E0
9.622707750E0,4.848853829E-3,-6.162814440E0,4.553963578E0,7.662825171E0
9.632677750E0,-1.781276042E0,-2.692433770E0,1.220259878E1,1.262242295E1
9.642647750E0,-5.155599968E0,1.451088890E0,1.143130075E1,1.262380715E1
9.652617750E0,-3.995246627E0,7.846904933E-1,6.326997238E0,7.523870602E0
9.662587750E0,-1.183759746E0,9.012445047E-1,-1.647295135E0,2.219709453E0
9.672557750E0,5.726236030E-1,-7.435301882E-1,-2.898876443E0,3.047001733E0
9.682527750E0,2.110042174E0,-1.814852362E0,1.101574498E0,2.993231272E0
9.692497750E0,8.424965058E-1,2.248392120E0,-2.990134522E0,3.834836626E0
9.702467750E0,2.484224946E0,1.449270699E0,-3.232641360E0,4.326861368E0
9.712438750E0,2.897119647E0,-5.092226091E-1,-1.140704066E0,3.154966827E0
9.722408750E0,4.566939280E-1,-4.576688781E-1,-2.654330097E0,2.731940411E0
9.732378750E0,6.803374283E-2,-5.691241175E-2,-1.314938228E0,1.317926461E0
9.742348750E0,-9.062372229E-1,3.726175304E0,1.411341857E0,4.086261634E0
9.752318750E0,-1.559327284E0,1.421380942E0,2.087392253E0,2.968001311E0
9.762288750E0,-6.350637531E-1,9.865167895E-1,-1.548022277E0,1.942393966E0
9.772258458E0,-1.445982663E0,1.988985368E0,-3.119902949E0,3.972495823E0
9.782228458E0,-2.198124777E0,1.898563733E0,-1.155447235E0,3.125916681E0
9.792198458E0,-5.969023387E-1,2.220815774E0,-1.131694091E0,2.563015142E0
9.802168458E0,-8.451875407E-1,1.492214405E0,-3.357753648E0,3.770352155E0
9.812138458E0,-1.037444430E0,-6.891455278E-1,-3.320959459E0,3.546827347E0
9.822108458E0,-3.852102549E-1,4.781665850E-1,-3.849924899E0,3.898583327E0
9.832079458E0,-1.294600443E0,-5.750929552E-1,-5.994547945E-1,1.538202933E0
9.842049458E0,-1.014809858E0,4.168696093E0,1.671555233E-1,4.293693880E0
9.852019458E0,-7.096823379E-1,8.956039882E0,-3.121997421E0,9.511107574E0
9.861989458E0,-1.592769265E0,3.566434635E0,-9.781076163E-1,4.026544976E0
9.871959458E0,1.437540307E0,-2.935942528E-1,5.639430751E0,5.827169031E0
9.881929458E0,-1.264577037E0,-7.256678215E-1,-1.506811101E0,2.096718523E0
9.891899458E0,-1.677063018E0,8.166040117E-1,-3.228734835E0,3.728821679E0
9.901869458E0,-2.157266919E0,-1.251126394E0,5.144625914E-1,2.546328646E0
9.911839458E0,-2.335444882E0,-3.574295047E0,3.316779869E0,5.406562363E0
9.921809458E0,-2.167837077E0,-6.270067577E0,5.145705310E0,8.395924497E0
9.931779458E0,-3.653420154E0,-4.693465279E0,3.712358041E0,7.011255050E0
9.941750458E0,-3.456686198E0,-1.176719990E-1,3.244323512E0,4.742168409E0
9.951720458E0,1.316542850E0,-3.063455391E0,6.781244034E-1,3.402630852E0
9.961690458E0,3.496921766E0,-3.649613324E0,-2.864297764E0,5.809676491E0
9.971660458E0,2.914268069E0,-2.818507633E0,1.085679427E0,4.197099412E0
9.981630458E0,-8.774885101E-1,-3.568770306E0,7.150080550E0,8.039263613E0
9.991600458E0,-1.215715802E-1,-6.975893165E0,7.979082413E0,1.059922739E1
1.000157046E1,9.080331952E-1,1.650663131E0,-1.120434693E0,2.191936805E0
1.001154046E1,2.241739743E0,4.305030066E0,-7.882772924E0,9.257256068E0
1.002151046E1,5.265377934E0,-2.083898834E0,-4.686108897E0,7.350269093E0
1.003148046E1,2.120929251E0,-4.358700196E0,1.076520349E0,4.965430933E0
1.004145046E1,-5.107147089E-1,-1.955476729E0,9.213673466E0,9.432735419E0
1.005142046E1,9.825228123E-2,3.052885379E0,2.189254843E0,3.758004712E0
1.006139146E1,2.636915334E0,6.024724841E0,-3.669354109E0,7.530922351E0
1.007136146E1,4.695670557E0,1.511395903E0,-5.634550080E0,7.488777882E0
1.008133146E1,3.852619881E0,-1.333542899E0,-3.016148200E0,5.071308172E0
1.009130146E1,3.499747725E0,1.253774598E0,1.508977495E0,4.012131349E0
1.010127146E1,2.308403118E0,3.230789254E0,5.035784088E0,6.412943594E0
1.011124146E1,1.530313108E0,2.759324748E0,1.238504010E0,3.389634708E0
1.012121146E1,2.627324731E0,-2.246272797E0,-6.895849460E-1,3.524784266E0
1.013118146E1,3.351690670E0,3.080909914E0,-5.210947373E0,6.919523739E0
1.014115146E1,2.812691115E0,2.600110913E0,-7.897693849E-1,3.910951770E0
1.015112146E1,1.152919118E0,1.555170498E0,2.804249783E0,3.407578996E0
1.016109146E1,9.932671076E-1,-1.204163897E-1,-3.670430582E0,3.804358068E0
1.017106146E1,-3.280610674E-1,1.326402571E0,-2.969598516E0,3.268865735E0
1.018103246E1,-2.685398400E0,3.218372984E0,-1.192281185E0,4.357846218E0
1.019100246E1,2.913918990E0,1.750661044E0,3.147094256E0,4.632487477E0
1.020097246E1,1.653440997E0,2.506880860E0,-2.608824141E0,3.977974632E0
1.021094246E1,6.699547467E-1,2.341489441E0,-2.203955328E0,3.284635635E0
1.022091246E1,-1.593742095E0,-5.521876574E-1,-6.557991493E-1,1.809695444E0
1.023088246E1,-6.106212223E0,-3.956799138E0,9.742654109E-1,7.341068057E0
1.024085246E1,-5.838726665E0,-4.105192700E-1,2.698232161E0,6.445130870E0
1.025082246E1,1.572251970E0,2.619012037E0,9.770422536E-1,3.207150117E0
1.026079246E1,3.729446237E0,1.410308362E0,1.953484583E-1,3.991979450E0
1.027076246E1,2.084047061E0,-4.124709829E0,3.091377892E0,5.559955089E0
1.028073246E1,-1.612409185E0,-3.300922805E0,9.696045953E-1,3.799485204E0
1.029070346E1,-4.386891816E-2,-1.214451781E0,-1.968886734E0,2.313726989E0
1.030067346E1,1.220467542E0,-7.106086099E-1,1.905856673E0,2.372086692E0
1.031064346E1,5.504929881E-1,-1.067095222E0,-1.095688691E0,1.625505598E0
1.032061346E1,-1.948565028E0,-2.127299792E0,1.171654547E0,3.113693057E0
1.033058346E1,-5.032893809E0,-2.112491134E0,1.743529195E0,5.729967970E0
1.034055346E1,-3.576891211E0,-9.880823815E-1,3.286068538E0,4.956682758E0
1.035052346E1,-1.192711540E0,-2.059434084E0,-1.190112453E0,2.660863998E0
1.036049346E1,-4.317313604E-2,6.124440917E-1,-6.389145539E0,6.418577133E0
1.037046346E1,-3.734107929E-1,-1.111693105E0,-6.018799857E0,6.131985722E0
1.038043346E1,1.884891627E0,-2.017883770E0,1.616874411E0,3.199836592E0
1.039040346E1,2.537832219E0,-2.657737269E0,7.042734441E0,7.943819495E0
1.040037446E1,-1.105343321E0,-2.870087092E0,7.255233368E0,7.880202725E0
1.041034446E1,-4.256841115E0,-5.517298204E-1,5.809294705E0,7.223088470E0
1.042031446E1,-3.714349895E0,7.815028837E-1,2.343213201E-2,3.795746431E0
1.043028446E1,1.000287713E0,7.914864197E-1,-4.559154736E0,4.734228360E0
1.044025446E1,4.985158310E0,4.466897367E0,-1.084621081E1,1.274540170E1
1.045022446E1,3.375854874E0,-2.456506220E0,-8.675737812E0,9.628044740E0
1.046019446E1,1.074486102E0,-5.656375982E0,-1.804914435E0,6.033806904E0
1.047016446E1,-3.060260764E0,-1.266132396E0,1.084213998E1,1.133667882E1
1.048013446E1,-5.582445542E0,1.693532285E0,1.084369534E1,1.231330494E1
1.049010446E1,-1.222517722E0,4.090741599E0,5.797298557E0,7.199818537E0
1.050007446E1,-1.238211503E0,2.985710519E0,-2.886330072E0,4.333420856E0
1.051004446E1,1.913321813E0,-5.995141438E-1,-4.600655934E0,5.018590697E0
1.052001546E1,2.753885960E0,-9.172296229E-1,-4.570373788E0,5.414195658E0
1.052998546E1,1.025313650E0,-8.602248251E-2,-2.578090591E0,2.775827632E0
1.053995546E1,1.340022783E0,1.561465611E0,-3.124863142E0,3.741471043E0
1.054992546E1,1.968165480E0,1.147486543E0,2.424949089E0,3.327277988E0
1.055989546E1,-3.827775573E-2,7.346035364E-1,2.173842752E0,2.294929161E0
1.056986546E1,-2.338165299E0,1.078007296E-1,-6.577375013E-1,2.431307587E0
1.057983546E1,-7.543832052E-1,7.367155507E-1,-2.097584535E0,2.347702005E0
1.058980546E1,7.675566897E-1,3.106388572E0,-4.127964681E0,5.222919264E0
1.059977546E1,1.185667546E0,2.597184089E0,-1.778261071E0,3.363537596E0
1.060974546E1,2.703595228E0,2.509617064E0,1.714962038E0,4.068009311E0
1.061971546E1,8.070028836E-1,4.831256086E0,1.335801094E0,5.077071359E0
1.062968646E1,1.066410513E0,1.243293464E0,2.069054216E0,2.638938303E0
1.063965646E1,-2.876629834E0,-1.986312606E0,4.700076726E0,5.857572723E0
1.064962646E1,-6.508407835E-2,5.093807763E-1,3.349837103E0,3.388969361E0
1.065959646E1,-1.763362512E0,1.789944101E0,-7.411600778E0,7.825929550E0
1.066956646E1,-1.732921615E0,3.193230541E0,-9.607983962E0,1.027195670E1
1.067953646E1,9.229764126E-1,2.618579051E0,-4.922627601E0,5.651646150E0
1.068950646E1,-2.305310672E0,-4.558091420E0,3.602640887E0,6.250574057E0
1.069947646E1,-1.653537586E-1,-5.836231073E0,6.329422079E0,8.611069554E0
1.070944646E1,-1.399618190E0,-3.552650409E0,5.352233645E0,6.574698548E0
1.071941646E1,6.853648643E-1,-2.044717812E0,4.436804087E0,4.933135558E0
1.072938646E1,2.192910961E0,-2.544383731E-1,1.589938627E0,2.720570199E0
1.073935746E1,1.536022768E0,-4.160149803E0,1.048071306E0,4.556826284E0
1.074932746E1,2.139244485E0,-1.679741335E0,1.901025703E0,3.318402724E0
1.075929746E1,2.311865839E0,-2.955884457E-2,2.054073064E0,3.092703273E0
1.076926746E1,2.463561763E0,-1.782343013E0,-1.766778894E0,3.516730134E0
1.077923788E1,9.511655469E-1,-2.929538365E0,-5.573051405E-1,3.130095837E0
1.078920788E1,8.369344150E-1,-1.963710194E0,1.073102067E0,2.389176633E0
1.079917788E1,-5.136490610E-1,-3.523587116E0,5.752005440E-1,3.606987273E0
1.080914787E1,-5.156509649E-1,8.127904576E-1,2.425252560E0,2.609286152E0
1.081911788E1,-4.979375560E-2,1.838952539E0,-4.358567172E-1,1.890554663E0
1.082908788E1,3.507795248E0,1.007001048E0,-5.635309634E0,6.713821064E0
1.083905788E1,2.806616151E0,-1.578276356E0,-8.965956759E-1,3.342444357E0
1.084902888E1,2.185990489E0,-2.774124050E0,3.373652228E0,4.884244877E0
1.085899888E1,9.805818656E-1,-3.165483749E-1,2.526754961E0,2.728778903E0
1.086896888E1,5.013300740E-1,1.102619396E0,-3.894882971E-1,1.272321700E0
1.087893888E1,1.965478538E0,4.737753260E-1,-2.877609535E0,3.516845970E0
1.088890888E1,2.643040878E0,-2.318288859E0,-2.328889276E0,4.217090653E0
1.089887888E1,4.911332973E-1,2.625971393E0,-3.202120648E0,4.170193559E0
1.090884888E1,6.735415019E-2,5.703008112E0,-3.763824064E0,6.833389327E0
1.091881888E1,6.821661450E-1,2.957499165E0,-3.000531456E0,4.267943414E0
1.092878887E1,1.215414305E-1,2.381220102E-2,3.236626822E0,3.238995604E0
1.093875888E1,-2.592396389E0,1.312760725E0,5.489048551E0,6.210757905E0
1.094872888E1,-2.368064890E0,6.582558569E0,2.470492467E0,7.418971740E0
1.095869988E1,-2.119343194E0,4.898643784E0,-3.590010901E0,6.432457133E0
1.096866988E1,-1.556213934E0,6.091798836E-1,-5.087797410E0,5.355238970E0
1.097863988E1,-1.180074099E-1,2.570727192E0,-3.224600853E0,4.125604769E0
1.098860988E1,-2.576951846E0,1.523806911E0,1.380452771E0,3.296713237E0
1.099857988E1,-1.274856150E0,3.701498008E-1,3.136072254E0,3.405468875E0
1.100854987E1,6.484099498E-1,1.451941999E0,-1.863418751E0,2.449673544E0
1.101851988E1,-1.765572760E0,-3.158555383E0,-4.095027316E-1,3.641622134E0
1.102848988E1,-4.562078051E-2,-3.380325947E0,6.211273239E0,7.071675899E0
1.103845988E1,-2.877348164E0,-3.827487671E0,6.412132114E0,8.002764058E0
1.104842988E1,-3.655125495E0,-1.708055015E0,-4.058098056E0,5.722373122E0
1.105839988E1,9.262303881E-1,-1.897213026E0,-3.453747972E0,4.047924784E0
1.106837088E1,2.829360358E0,-5.355296416E0,9.380799168E-1,6.128986349E0
1.107834088E1,8.853864904E-2,-4.793615512E0,1.122958935E0,4.924187805E0
1.108831087E1,-1.221418153E0,-5.421506778E0,1.605597471E0,5.784681606E0
1.109828088E1,-1.660721366E0,-9.117066354E-1,3.761244857E0,4.211432930E0
1.110825088E1,-1.148848798E0,-1.864086503E0,2.083930702E0,3.022819747E0
1.111822088E1,-5.522090362E-1,-3.763232911E0,4.432481825E-2,3.803790405E0
1.112819088E1,3.444715340E-1,6.688980818E-2,1.837106865E0,1.870319897E0
1.113816088E1,5.094036170E-1,2.559527728E0,1.700523509E0,3.114876312E0
1.114813088E1,5.215892875E-1,-4.069612393E-1,1.209455627E-1,6.725330209E-1
1.115810088E1,2.259379039E0,6.966229472E-1,-2.616701510E0,3.526642024E0
1.116807088E1,8.666079381E-1,1.524041384E0,-7.639860290E0,7.838442237E0
1.117804188E1,1.960813337E0,-3.751845458E-1,-6.521642277E0,6.820364387E0
1.118801188E1,1.874652714E0,-1.234505684E0,2.755478742E0,3.554010436E0
1.119798188E1,1.447312905E0,-4.183861139E-1,9.328181829E0,9.449060155E0
1.120795187E1,-1.358521181E0,1.295084300E0,9.057784358E0,9.250204355E0
1.121792188E1,-4.261484974E0,4.607871105E0,-2.335235260E0,6.696719646E0
1.122789188E1,5.222331756E-1,7.257508519E0,-9.514248417E0,1.197769094E1
1.123786188E1,6.059912215E0,-2.421919647E-1,-5.776629235E0,8.375597788E0
1.124783188E1,3.740107757E0,-2.050877853E0,-3.918801007E0,5.792366299E0
1.125780188E1,-8.241838304E-1,-6.702245227E-1,2.521908204E0,2.736512541E0
1.126777188E1,-1.754089267E0,2.100992292E-2,5.617467440E0,5.884998811E0
1.127774188E1,-3.046026960E-1,6.307145941E-1,1.254059358E0,1.436401258E0
1.128771287E1,-2.499301406E0,-4.774546865E-1,3.973446161E-1,2.575335559E0
1.129768288E1,-1.601720328E0,2.657934613E0,-3.058073321E0,4.356826466E0
1.130765288E1,-2.142163707E0,8.479614598E-1,-1.530808074E0,2.766094240E0
1.131762288E1,-3.920991958E0,6.976693064E-2,2.549307087E0,4.677393717E0
1.132759288E1,-1.996639227E0,1.842736272E0,3.669233072E-1,2.741692522E0
1.133756288E1,-8.378811523E-1,2.403293049E0,2.281199386E0,3.417855021E0
1.134753288E1,-1.686101936E0,2.184294650E-1,2.087417396E0,2.692204033E0
1.135750288E1,-3.607361636E0,7.336644736E-1,1.882016990E0,4.134405578E0
1.136747288E1,-1.698200995E0,3.393298287E0,-2.257041029E0,4.415041800E0
1.137744288E1,-2.653385479E0,2.116271359E0,-2.357828316E0,4.132603699E0
1.138741288E1,3.132448150E0,-1.137974878E0,-3.360449799E0,4.732847038E0
1.139738388E1,3.926187867E-2,1.395569578E0,-8.152469898E0,8.271149943E0
1.140735388E1,-3.393469026E0,-1.560017548E0,-3.592370837E0,5.182124566E0
1.141732388E1,-2.586126127E0,-3.331857499E0,7.870119549E0,8.929059551E0
1.142729388E1,-5.035647263E0,-3.579424810E0,7.171695952E0,9.465899226E0
1.143726388E1,-4.588434668E0,-5.225002910E0,1.009688311E1,1.225974864E1
1.144723388E1,-2.786965705E0,-1.380059838E-2,-6.426364821E-1,2.860131107E0
1.145720388E1,2.003887874E0,1.344640329E-1,-7.467451628E0,7.732818438E0
1.146717388E1,2.430481579E0,-2.044365809E0,-9.819769528E0,1.032058844E1
1.147714388E1,1.725232380E0,-4.651001337E0,1.407182148E0,5.156394264E0
1.148711388E1,1.899980952E0,-4.652988514E0,1.213221234E1,1.313205262E1
1.149708388E1,1.323149035E0,1.877830968E0,7.567375866E0,7.908359501E0
1.150705488E1,-2.512303860E0,1.720316918E0,-1.948169464E-1,3.051084172E0
1.151702488E1,2.385327771E0,7.994897962E-1,-4.546190874E0,5.195846800E0
1.152699488E1,3.562936538E0,-3.116219495E0,-3.678878639E0,5.994955276E0
1.153696488E1,8.027183363E-1,-1.686316529E0,-5.472278152E0,5.782200994E0
1.154693488E1,7.980812019E-1,2.192222013E0,-2.474148731E0,3.400615077E0
1.155690488E1,3.218647511E0,2.383891695E0,-7.317767000E-1,4.071624805E0
1.156687488E1,3.297175325E0,-5.058113435E0,2.201838051E0,6.426816276E0
1.157684488E1,2.091810702E0,-5.990877648E0,4.087500195E0,7.548108693E0
1.158681488E1,-2.538935588E0,-1.086418515E-1,1.599944383E0,3.002968365E0
1.159678488E1,-2.147764316E0,2.647399977E-1,-2.442500092E0,3.263247696E0
1.160675588E1,-8.894426309E-2,-2.730384831E0,-2.080727012E0,3.433997278E0
1.161672588E1,6.996518049E-1,1.033120268E0,-8.159514624E-1,1.490847720E0
1.162669588E1,4.665922043E-1,2.042715140E0,-1.651005778E0,2.667623195E0
1.163666588E1,4.849341158E-1,-5.608824670E-2,4.962482808E0,4.986435862E0
1.164663588E1,8.269137857E-2,-2.852657712E-1,8.586283599E0,8.591419001E0
1.165660588E1,-1.613226918E0,-8.761760294E-1,2.640720702E0,3.216145418E0
1.166657588E1,-2.959659711E0,1.284640588E0,2.311007321E0,3.968707836E0
1.167654588E1,1.065900709E0,3.975801711E0,1.773085701E0,4.481849671E0
1.168651588E1,1.335897573E0,5.011400614E0,-4.730225555E0,7.019529346E0
1.169648587E1,1.846011882E0,3.749997738E-1,-1.227806646E1,1.242172696E1
1.170645588E1,2.078872275E0,1.299183783E0,-1.399541942E1,1.420849581E1
1.171642688E1,2.408857552E0,9.503216475E-1,-6.612564726E0,7.101529285E0
1.172639688E1,9.513413288E-1,-5.385119555E0,9.282670611E0,1.077369652E1
1.173636688E1,-2.049049721E0,-5.939697554E0,1.894250885E1,1.995738593E1
1.174633688E1,-6.358898478E0,4.934467628E0,1.017122929E1,1.297067716E1
1.175630688E1,-5.712094100E0,7.229662909E0,-2.688260320E0,9.598061697E0
1.176627688E1,-1.768055195E0,-1.008221362E0,-5.527063054E0,5.889902842E0
1.177624646E1,2.155830952E-1,-2.002485712E0,-3.826779281E0,4.324426524E0
1.178621646E1,-9.768957809E-1,2.318789381E-1,-4.944065832E0,5.044985646E0
1.179618646E1,3.624408901E0,1.559473464E0,-1.839491360E0,4.353392451E0
1.180615646E1,4.550510797E0,-6.154337731E-1,-2.289767895E0,5.131173770E0
1.181612646E1,2.495406576E0,-1.434323169E0,1.298192972E-1,2.881178575E0
1.182609746E1,8.143209663E-1,2.430892199E-2,2.146022869E0,2.295457191E0
1.183606746E1,-8.543281274E-1,1.867668507E0,1.922107254E0,2.812927034E0
1.184603746E1,-1.655741731E0,5.732847623E0,-2.241801431E0,6.374378103E0
1.185600746E1,-5.196428590E-1,7.180293113E-2,-1.676247039E0,1.756413532E0
1.186597746E1,1.104378238E0,-1.058182896E0,-3.639195925E0,3.947549786E0
1.187594746E1,-1.474546896E0,-2.298979891E0,3.247613740E-1,2.750466695E0
1.188591746E1,-2.093659884E0,-3.598002875E0,4.346541789E0,6.018426864E0
1.189588746E1,-3.234765068E0,-3.518235452E0,2.190830668E0,5.257511270E0
1.190585746E1,5.791721556E-1,-4.419804185E0,8.909320629E-1,4.545752892E0
1.191582746E1,-9.995273560E-1,-6.358789135E0,1.347900152E-2,6.436880912E0
1.192579746E1,-1.370034641E0,-2.209401132E0,1.985390500E0,3.271119643E0
1.193576846E1,-6.823042855E-1,1.477594904E0,1.928702914E0,2.523632455E0
1.194573846E1,1.139046672E0,3.719531406E0,3.314606459E0,5.110670913E0
1.195570846E1,3.599211203E-1,2.583504820E0,8.926981559E0,9.300270970E0
1.196567846E1,-1.374417641E-1,-2.996425542E0,3.227678828E0,4.406287199E0
1.197564846E1,1.397922936E0,-2.283452902E0,-6.365815149E0,6.905935722E0
1.198561846E1,3.046520685E0,4.098623353E-1,-1.029532241E1,1.074443758E1
1.199558846E1,2.429783567E0,-2.285776878E0,-2.949895154E0,4.453145578E0
1.200555846E1,1.327147361E0,-1.942324879E0,9.483388567E0,9.770803691E0
1.201552846E1,-3.543205694E0,-1.223183428E0,1.248543562E1,1.303597280E1
1.202549846E1,-3.622365299E0,6.012624028E0,-1.548170212E0,7.188185381E0
1.203546946E1,-6.671367542E-1,4.373241637E0,-6.065962914E0,7.507743998E0
1.204543946E1,3.673022360E0,-7.711296308E-1,-7.655147835E0,8.525668451E0
1.205540946E1,4.911134314E0,1.128357670E0,-8.023965640E0,9.475043845E0
1.206537946E1,1.339390407E0,8.788599014E-2,-3.812720236E0,4.042094284E0
1.207534946E1,-1.077260606E0,-1.769767406E0,4.708680319E0,5.144340330E0
1.208531946E1,-5.824781348E-1,1.801775942E0,5.855768375E0,6.154323731E0
1.209528946E1,-2.661511647E0,4.411651997E0,4.435475015E0,6.798511322E0
1.210525946E1,-4.523527651E0,1.415410935E0,5.736118555E-2,4.740145655E0
1.211522946E1,-2.119238821E0,1.963402922E0,1.285475278E-1,2.891824456E0
1.212519946E1,-5.668543015E-1,2.480507578E0,-7.777860426E0,8.183480583E0
1.213516946E1,5.069097064E-1,4.535787508E-1,-3.988430820E0,4.046019221E0
1.214514046E1,1.497338174E0,1.963952853E0,5.654199064E-1,2.533541412E0
1.215511046E1,-6.968069152E-1,9.880823815E-1,-4.790872875E0,4.941083847E0
1.216508046E1,-1.825329257E0,-8.543474963E-1,-2.295612772E0,3.054762600E0
1.217505046E1,-4.605138117E0,-1.493667145E0,3.076431239E0,5.736093425E0
1.218502046E1,-2.150046338E0,-6.269144302E0,6.926480684E0,9.586501145E0
1.219499046E1,-3.298446802E0,-4.265581825E0,5.999173093E0,8.066288949E0
1.220496046E1,-2.059430868E0,1.144372024E0,-6.816923743E-1,2.452661274E0
1.221493046E1,-1.483358504E0,2.432186188E0,-5.855326325E0,6.511584176E0
1.222490046E1,3.214499204E0,-8.053992847E-1,-2.529893746E0,4.169176838E0
1.223487046E1,2.308474161E0,-4.073482665E0,2.443463713E-1,4.688498600E0
1.224484046E1,2.141848542E0,-7.583207202E0,8.812624054E0,1.182179721E1
1.225481146E1,7.406376437E-1,5.451195431E-1,7.279691686E0,7.337547988E0
1.226478146E1,9.358022802E-2,2.910551578E0,-1.572249046E0,3.309385866E0
1.227475146E1,3.476659117E0,-4.068576266E0,-1.370329487E0,5.524334743E0
1.228472146E1,3.662582156E0,-2.490372123E0,-2.396477827E0,5.035828367E0
1.229469146E1,3.016160772E0,1.781811501E0,-4.201461259E0,5.470315780E0
1.230466146E1,4.176111825E0,2.282047817E0,-1.315200183E0,4.937347844E0
1.231463146E1,3.252754320E0,-2.972905701E0,2.623112397E0,5.128284082E0
1.232460146E1,2.582574528E0,-2.951281821E0,3.324824468E0,5.141421333E0
1.233457146E1,4.300042391E-3,-2.109270488E0,3.962465674E0,4.488894597E0
1.234454146E1,-1.690816692E-1,2.184177121E0,4.039076478E0,4.594927323E0
1.235451146E1,2.290209068E0,3.201743795E0,2.758923921E0,4.807065852E0
1.236448246E1,3.025899309E0,-1.331095254E-1,-6.134344347E0,6.841342364E0
1.237445246E1,6.195780457E0,6.111924952E-1,-8.971879989E0,1.092043416E1
1.238442246E1,3.446609691E0,9.071285579E-1,-5.110851227E0,6.230794560E0
1.239439246E1,4.020748089E0,-7.259394246E-1,5.321695976E0,6.709236268E0
1.240436246E1,1.140812312E0,2.884618885E0,2.121449361E0,3.758061499E0
1.241433246E1,1.864304165E0,5.597973992E0,-1.633981025E0,6.122322830E0
1.242430246E1,2.262111735E0,-7.240659767E-1,2.130079266E0,3.190401028E0
1.243427246E1,2.563966641E0,-3.725258461E0,8.451787698E-1,4.600630684E0
1.244424246E1,-7.073737109E-1,-1.280504560E0,-4.102665533E0,4.355678360E0
1.245421246E1,1.377606054E0,3.399449558E0,-3.436799233E0,5.026494276E0
1.246418246E1,3.116403390E0,9.750913301E-1,5.920735618E0,6.761500089E0
1.247415346E1,-2.334558444E0,-1.666110891E0,4.601081611E0,5.421811563E0
1.248412346E1,-6.403892510E-1,1.830335789E0,1.069860955E0,2.214685070E0
1.249409346E1,-1.169921579E0,1.034228315E0,1.571845588E0,2.215636085E0
1.250406346E1,-5.457549892E-1,-2.218685634E0,-3.660959262E-1,2.313966438E0
1.251403346E1,3.079175191E-1,4.808399320E-1,-2.031502812E0,2.110218926E0
1.252400346E1,-6.910392947E-2,3.317267819E0,-3.261442405E0,4.652531322E0
1.253397346E1,8.113135240E-1,-1.133514914E0,2.231911451E0,2.631447210E0
1.254394346E1,4.734768257E-2,-1.726042512E-1,-8.687342781E-1,8.869798625E-1
1.255391346E1,-7.155963580E-1,-1.891709627E0,-6.153046081E0,6.476929792E0
1.256388346E1,1.571444469E0,-4.368187304E0,-7.201676965E0,8.568234891E0
1.257385346E1,-9.494165716E-1,-1.724883886E0,1.693109824E0,2.596774369E0
1.258382446E1,-4.452619051E0,-3.721048173E0,6.881467649E0,9.001478374E0
1.259379446E1,-1.557471963E0,-1.118707717E0,3.200294563E0,3.730832502E0
1.260376446E1,-3.992226540E0,2.280955557E0,-1.008303807E0,4.707154933E0
1.261373446E1,-2.188843491E0,-3.037384118E0,9.069306296E-1,3.852176174E0
1.262370446E1,-1.795667940E0,-5.238976001E0,4.089654309E0,6.884516342E0
1.263367446E1,-2.309174804E0,-1.820575325E0,-4.754516058E0,5.590367227E0
1.264364446E1,-6.781409948E-1,-3.821238167E0,-4.168099970E-1,3.903263623E0
1.265361446E1,-1.301539772E-1,-3.141167810E0,1.221560767E1,1.261368091E1
1.266358446E1,-8.072175495E-1,-8.741824213E-1,1.290839747E1,1.296312155E1
1.267355446E1,-5.212302319E-1,1.801587369E0,8.056906514E0,8.272311683E0
1.268352446E1,2.075995591E0,4.351322472E0,-3.495118777E0,5.954798084E0
1.269349446E1,7.062719055E0,4.441514312E0,-1.099856586E1,1.380498102E1
1.270346546E1,9.474116637E0,1.689172017E0,-1.370425966E1,1.674571351E1
1.271343546E1,6.240667192E0,-1.304938612E0,-8.637984679E0,1.073608733E1
1.272340546E1,7.719657826E-1,-3.112862609E0,2.692817055E0,4.187733096E0
1.273337546E1,-2.043415491E0,-8.752226409E-1,7.792424671E0,8.103298328E0
1.274334546E1,-1.733119105E0,1.681344057E0,4.291341149E0,4.924045951E0
1.275331546E1,6.479472157E-1,3.147543907E0,-2.798340002E0,4.261170614E0
1.276328546E1,3.015366720E0,1.550814030E0,-8.400104744E0,9.058654443E0
1.277325546E1,6.723109846E0,-3.631334344E-1,-7.371208797E0,9.983325650E0
1.278322538E1,3.767999561E0,-9.101726183E-1,-6.025827041E0,7.164972185E0
1.279319538E1,8.630928113E-1,-1.937480461E0,1.083357498E0,2.381684951E0
1.280316538E1,-2.422880198E0,-7.383290899E-1,1.087818573E1,1.116917199E1
1.281313638E1,-4.368585207E0,1.613731825E0,1.754083419E1,1.814854075E1
1.282310637E1,-4.533056566E0,6.190172392E0,9.613764519E0,1.230005302E1
1.283307638E1,-9.999639237E-1,6.510873460E0,1.073227197E-1,6.588089193E0
1.284304638E1,5.374956509E0,1.775623100E0,-7.100576853E0,9.080814199E0
1.285301638E1,1.750701244E0,6.517999461E-1,-1.062524921E1,1.078822130E1
1.286298638E1,2.850886298E0,8.039915675E0,-1.214335713E1,1.484011183E1
1.287295638E1,1.353880246E0,5.628864248E0,-6.662033924E0,8.826086361E0
1.288292638E1,-1.853890420E0,-2.505533077E0,9.480576056E-1,3.257824261E0
1.289289638E1,-3.579511641E0,-6.923486325E0,7.174728903E0,1.059359718E1
1.290286638E1,-3.434074723E0,-4.043771208E0,9.686161235E0,1.104385233E1
1.291283638E1,-3.767986112E0,-2.083888017E0,5.406661282E0,6.911750490E0
1.292280638E1,-3.674186248E0,-1.528814759E0,4.057489945E0,5.683321547E0
1.293277738E1,-2.383250840E0,-1.639284157E0,-2.498938002E0,3.822542119E0
1.294274737E1,-5.266751591E-1,-1.106439382E0,-9.045262545E0,9.127889643E0
1.295271738E1,-4.277552538E-1,-3.775734550E0,-7.395677640E0,8.314757586E0
1.296268738E1,5.279979455E-1,-7.258975586E0,4.667942768E0,8.646455810E0
1.297265738E1,9.897261800E-1,-5.890184501E0,1.327725621E1,1.455882426E1
1.298262738E1,4.041604230E-1,-1.416609322E0,3.064630389E0,3.400306903E0
1.299259738E1,9.312582627E-1,-1.601905831E0,-7.260995214E0,7.493690395E0
1.300256738E1,3.300933330E0,-4.472213656E-1,-9.402698745E0,9.975315107E0
1.301253738E1,3.185582968E0,2.701141736E-1,-2.801695134E0,4.250928856E0
1.302250738E1,2.786264917E0,4.751080819E0,2.329492709E0,5.980182055E0
1.303247738E1,1.948202208E0,4.534519539E0,1.064502917E1,1.173345667E1
1.304244838E1,4.411200153E-1,5.561846970E0,5.844467461E0,8.080007951E0
1.305241838E1,1.659336745E0,-1.360041018E0,3.948687295E0,4.493911588E0
1.306238838E1,-3.656601624E-1,-4.930445913E0,-1.611286812E0,5.199927831E0
1.307235838E1,-1.386798901E0,-7.209430958E0,-5.418400152E0,9.124591286E0
1.308232838E1,-1.125121967E0,-9.910869732E-1,-5.556820704E0,5.755554635E0
1.309229838E1,-7.168942206E-1,3.884736298E0,-4.768315487E0,6.192087371E0
1.310226838E1,8.211915178E-1,3.701444213E0,-3.290276780E0,5.020056380E0
1.311223838E1,1.669106711E0,8.443028569E-1,2.583895122E0,3.189871240E0
1.312220838E1,1.874638681E0,-3.803399774E0,1.117267957E1,1.195026731E1
1.313217838E1,2.143664541E0,-1.353803793E0,7.611801256E0,8.022942150E0
1.314214838E1,-1.615282360E-1,-1.587086356E-1,2.411037979E0,2.421649012E0
1.315211838E1,1.985347230E0,-6.646094415E-1,-6.373846884E0,6.708892117E0
1.316208938E1,4.362252672E0,-3.186054838E0,-8.295032617E0,9.898876701E0
1.317205938E1,3.971325960E0,-2.693520183E0,-4.688265935E0,6.708674857E0
1.318202938E1,2.959423776E0,3.890022473E0,-3.734944081E-1,4.902036516E0
1.319199938E1,2.272106088E0,7.822491639E0,3.233947628E0,8.764260309E0
1.320196938E1,3.315755729E0,4.882499037E0,2.836904728E0,6.548363256E0
1.321193938E1,2.636116312E-1,-2.435367366E0,1.008984423E0,2.649255530E0
1.322190938E1,-1.588205513E0,-3.994079523E0,-8.718373954E-1,4.385791654E0
1.323187938E1,-1.035904712E0,2.631625066E0,-3.441799187E0,4.454720048E0
1.324184938E1,-2.683431982E0,3.425326996E0,-1.077716689E0,4.482760923E0
1.325181938E1,5.284883807E-1,3.773945010E-1,-1.858569070E0,1.968757366E0
1.326178938E1,1.492403562E0,-3.199459873E0,5.187883615E-1,3.568326391E0
1.327175937E1,-1.662804290E0,-4.135842050E0,1.197954154E0,4.615755813E0
1.328173038E1,-2.751600868E0,-1.422385494E0,4.021412625E0,5.076046427E0
1.329170038E1,-2.273723136E0,-1.841004619E-1,5.019169809E0,5.513236386E0
1.330167038E1,-1.477344643E0,-1.354500489E0,1.750071645E-1,2.011926012E0
1.331164038E1,7.163643166E-2,1.640851504E-1,1.765530514E0,1.774585503E0
1.332161038E1,-2.443804898E0,1.530642598E0,2.704951197E-1,2.896241833E0
1.333158038E1,4.993259043E-1,2.512103300E0,-1.549259548E0,2.993358398E0
1.334155038E1,-1.109282590E-1,-5.339765042E-1,-1.971761225E0,2.045795277E0
1.335152037E1,-7.300841504E-1,-7.380569020E-1,-3.475454006E0,3.627193324E0
1.336149038E1,6.934369455E-1,1.207040727E-1,-1.857007279E0,1.985925554E0
1.337146038E1,-1.285886776E-1,-2.351209853E0,1.729454362E0,2.921598058E0
1.338143038E1,2.081646487E0,-2.786171654E0,3.735460975E0,5.103888055E0
1.339140138E1,3.342841786E0,-1.890991004E0,2.003081251E0,4.331601630E0
1.340137138E1,-6.623126552E-1,-3.768153343E-1,5.207793385E-1,9.229620624E-1
1.341134138E1,-6.246168984E-1,1.422468232E0,2.160472509E0,2.661053100E0
1.342131138E1,2.320962352E-1,-3.846269220E-2,-1.139844525E0,1.163870088E0
1.343128138E1,1.200727415E0,-1.649451881E0,-2.218746445E0,3.014178763E0
1.344125138E1,-1.104667675E-1,-7.164134333E-1,-3.722971907E0,3.792884250E0
1.345122138E1,1.746934175E0,-1.716177675E0,-3.080938858E-1,2.468190970E0
1.346119138E1,2.407042576E0,-8.649984920E-1,2.140715936E0,3.335377201E0
1.347116137E1,7.465059093E-1,4.970618623E-1,6.992574102E-1,1.137234581E0
1.348113138E1,5.272035281E-1,-1.335802555E0,6.041805142E-1,1.557994262E0
1.349110138E1,1.065744223E-1,-1.252131531E-1,-1.117523364E0,1.129555182E0
1.350107138E1,1.531777981E0,1.304158594E0,1.025233836E0,2.257936633E0
1.351104238E1,1.294620616E0,4.777444160E-1,3.754152185E-1,1.430111482E0
1.352101238E1,1.924357263E0,-2.372914132E-1,2.514158304E0,3.174972452E0
1.353098238E1,1.903562517E0,2.788194790E0,-1.927597205E0,3.887571405E0
1.354095238E1,1.485918708E0,-1.547363589E0,-3.379836243E0,4.003196411E0
1.355092237E1,-2.175076514E-2,-3.434835446E0,2.850552129E0,4.463654901E0
1.356089238E1,-1.180554667E0,1.873044437E-1,3.378887240E0,3.584085833E0
1.357086238E1,-7.774194807E-2,1.784497127E-1,1.548534493E0,1.560720086E0
1.358083238E1,1.826060305E0,-9.434330428E-1,1.255410064E0,2.408446922E0
1.359080238E1,2.515991114E0,1.544425070E0,-2.306696169E0,3.746506012E0
1.360077238E1,2.885774294E0,2.177124794E0,-1.417794845E0,3.883002430E0
1.361074238E1,3.865280272E0,3.738551813E-1,8.888089389E-1,3.983734506E0
1.362071238E1,4.315037575E-1,1.016424420E-1,-5.071358548E0,5.090697811E0
1.363068238E1,1.097864075E0,-7.471689105E-2,4.977352862E0,5.097541530E0
1.364065338E1,-3.820238001E0,-3.314172596E0,5.405688890E0,7.402663761E0
1.365062338E1,9.195777916E-1,4.827256590E-2,1.067161880E0,1.409534687E0
1.366059338E1,1.817033958E0,7.391050154E-1,-3.105103646E0,3.672813265E0
1.367056338E1,9.489047210E-1,9.742078158E-1,-6.577120074E0,6.716249661E0
1.368053338E1,3.478790135E0,-7.165704310E-2,2.857861733E-1,3.491244660E0
1.369050338E1,1.672851122E0,-1.899083258E0,2.585913581E0,3.618272674E0
1.370047338E1,-2.474687845E-3,-2.374575911E0,6.449937286E0,6.873158508E0
1.371044338E1,-2.098368647E0,3.842289020E0,2.510402638E0,5.046628310E0
1.372041338E1,-2.104149789E0,-1.131053236E-1,-1.998004698E0,2.903835726E0
1.373038338E1,9.136900109E-1,-2.960307583E0,3.472625708E0,4.653748997E0
1.374035338E1,2.578046152E-1,-1.682279027E-1,-2.514640115E0,2.533412472E0
1.375032437E1,2.603024873E0,3.423847943E0,-5.815206825E0,7.232918058E0
1.376029438E1,1.713211967E0,7.723978919E-1,-8.685488044E0,8.886472658E0
1.377026438E1,1.770235768E0,-2.436945237E0,-3.330109767E0,4.490219128E0
1.378023446E1,-3.145927736E-1,-1.671933255E0,3.126916099E0,3.559765964E0
1.379020446E1,-2.144692920E0,-2.278349160E0,6.426616836E0,7.147865876E0
1.380017446E1,-2.214104486E-1,-6.766243002E-1,5.484999939E0,5.531009615E0
1.381014446E1,-1.724397106E0,-1.433181792E-1,1.716242579E0,2.437124139E0
1.382011446E1,-2.437899503E0,-3.242339551E0,3.502245364E0,5.359276289E0
1.383008446E1,-9.438874445E-1,-4.633126107E-1,1.783600164E0,2.070461694E0
1.384005446E1,-1.679269172E0,9.142042735E-1,1.921640646E-1,1.921624686E0
1.385002446E1,2.364813546E-1,3.524891630E-1,-2.280771369E0,2.319933206E0
1.385999446E1,1.334158611E0,-9.999718174E-1,-1.057736753E0,1.974520163E0
1.386996546E1,7.028693084E-1,-1.641298816E0,-5.391891215E0,5.679821999E0
1.387993546E1,2.373078439E0,-3.084258030E0,-3.823326500E0,5.455453638E0
1.388990546E1,1.790895150E0,-4.327767549E0,1.540650108E0,4.930565906E0
1.389987546E1,1.146480895E0,-9.526283741E-1,4.703203232E0,4.933765287E0
1.390984546E1,8.784889687E-1,2.916842890E0,6.925453328E0,7.565819131E0
1.391981546E1,3.153557476E0,2.988442630E0,3.157882953E0,5.371027728E0
1.392978546E1,1.275746388E0,-3.674545267E-1,4.898271609E0,5.074999156E0
1.393975546E1,3.289228666E0,-1.792625634E0,-4.703020799E-1,3.775409372E0
1.394972546E1,5.887715807E0,6.408826098E-1,-5.323700987E0,7.963524354E0
1.395969546E1,7.946048860E-1,6.628593698E0,-5.678812918E0,8.764620214E0
1.396966546E1,4.138518029E0,5.747462153E-2,-1.973023639E0,4.585134358E0
1.397963546E1,-6.031050651E-1,-2.188287129E0,-1.476432477E0,2.707801532E0
1.398960646E1,-3.412360210E0,-9.594798490E-1,-3.799418989E0,5.196189801E0
1.399957646E1,-2.401119347E0,4.341062948E0,-2.334506696E0,5.482711295E0
1.400954646E1,-1.399613951E0,2.689240021E0,2.773111020E0,4.108658641E0
1.401951646E1,-1.093032813E0,7.524498233E-1,6.319329200E0,6.457152856E0
1.402948646E1,-6.827836110E-1,5.492610675E0,-1.256624531E0,5.675744065E0
1.403945646E1,-4.491918772E-1,8.490751204E0,-5.337006326E0,1.003883787E1
1.404942646E1,2.599782591E0,2.458064210E0,-6.052528351E0,7.030935117E0
1.405939646E1,1.137614908E0,-5.161089334E0,-2.584655845E0,5.883150230E0
1.406936646E1,-1.728061848E0,-5.518108043E0,3.378807718E-1,5.792225612E0
1.407933646E1,-2.533304720E0,-1.957479401E0,5.763882889E0,6.593307544E0
1.408930646E1,-1.104378458E0,5.187029922E-1,4.111541022E0,4.288761377E0
1.409927646E1,3.808782721E-1,1.927182930E0,-2.741277024E0,3.372491961E0
1.410924746E1,1.009745365E0,-1.428355793E0,-7.410144237E0,7.613804803E0
1.411921746E1,2.490823821E0,-5.856716208E0,4.996141720E-1,6.383959772E0
1.412918746E1,1.440499437E0,1.082463459E0,8.650402411E0,8.836075353E0
1.413915746E1,-8.629116938E-1,1.653423894E0,7.609580483E0,7.834803271E0
1.414912746E1,1.798559096E0,-3.651062557E0,3.353950034E0,5.273903056E0
1.415909746E1,-1.184814949E0,-4.576950444E0,4.111572012E0,6.265563522E0
1.416906746E1,-2.591967203E0,2.052254580E0,-2.814277173E0,4.341681569E0
1.417903746E1,1.088555234E0,1.482370909E0,-5.187552078E0,5.503914296E0
1.418900746E1,2.502415341E0,-3.709763047E0,-3.788765363E0,5.863375084E0
1.419897746E1,2.538050320E0,-2.060780698E0,-3.550593651E0,4.826513419E0
1.420894746E1,-8.668270625E-1,-3.532632466E0,3.387417743E0,4.970460769E0
1.421891846E1,2.557057571E-1,-1.048581768E0,7.579294830E0,7.655757263E0
1.422888846E1,-2.919847774E0,3.439495969E0,7.147953333E0,8.452743956E0
1.423885846E1,1.015071229E0,2.799227024E0,-3.408365393E-1,2.997033713E0
1.424882846E1,4.024011420E0,-3.767090611E0,-1.455512309E-1,5.514057013E0
1.425879846E1,8.695267220E-1,-1.145195604E0,-4.712035452E0,4.926543189E0
1.426876846E1,-2.237010954E0,9.808081529E-1,-6.360132825E0,6.813038396E0
1.427873846E1,-7.706116406E-1,-9.641549903E-1,-6.524263583E0,6.639988889E0
1.428870846E1,-1.668195715E0,-3.563492024E-1,-9.738800794E-1,1.964256630E0
1.429867846E1,-2.452200330E0,-1.192888126E0,6.599550578E0,7.140751807E0
1.430864846E1,-2.677757259E-1,1.507991362E0,9.154177462E0,9.281417283E0
1.431861846E1,-8.909853456E-1,2.093960431E0,1.462340688E0,2.704988994E0
1.432858846E1,1.323815763E0,2.850611186E0,-6.793964067E0,7.485747795E0
1.433855946E1,2.525040850E0,8.257540271E-1,-6.255156008E0,6.795930966E0
1.434852946E1,2.910844232E0,-8.853587893E-1,-2.243584832E0,3.780284014E0
1.435849946E1,7.838498099E-1,1.155979624E0,2.733945200E0,3.070043286E0
1.436846946E1,-1.073516926E0,3.284834776E0,7.038995147E-2,3.456520337E0
1.437843946E1,4.709998355E-1,2.381986965E0,-6.208639653E0,6.666551514E0
1.438840946E1,2.344405448E0,-4.003640013E0,-6.435123950E0,7.933233295E0
1.439837946E1,9.402238715E-1,-8.325180277E0,8.691940446E0,1.207238486E1
1.440834946E1,-2.470072930E-1,-1.775683911E0,1.779583712E1,1.788591302E1
1.441831946E1,-7.197735357E-1,9.090591915E0,8.485210968E0,1.245615272E1
1.442828946E1,1.976624939E0,7.748224398E0,-1.018452118E1,1.294860993E1
1.443825946E1,5.278488561E0,1.206314211E0,-1.740107638E1,1.822402521E1
1.444823046E1,2.606596352E0,-1.692273672E0,-1.097166867E1,1.140331742E1
1.445820046E1,-1.352806989E0,-3.656307802E0,1.406591579E0,4.144535361E0
1.446817046E1,-2.396938003E0,-1.283246612E0,1.358048112E1,1.384996394E1
1.447814046E1,-3.202781383E0,-1.438392539E0,1.472843456E1,1.514112170E1
1.448811046E1,3.380018457E-1,-3.178046492E-1,4.335748998E0,4.360500478E0
1.449808046E1,-1.455301225E0,2.339560737E0,-6.687914286E0,7.233231891E0
1.450805046E1,3.223200518E-1,2.198966776E0,-8.542476844E0,8.826848572E0
1.451802046E1,5.941751608E-1,-2.307358074E-1,3.914652407E-2,6.386044040E-1
1.452799046E1,-1.975989347E0,1.764530347E0,-3.858361262E0,4.680283418E0
1.453796046E1,-8.551500267E-1,-3.267498074E0,-2.889303381E0,4.444760878E0
1.454793046E1,7.802360845E-1,-5.416665283E0,4.872557893E0,7.327404149E0
1.455790046E1,-7.220838437E-1,-4.714364398E-1,8.763213912E0,8.805542315E0
1.456787146E1,-3.512356296E-1,1.349419259E0,3.997756544E0,4.233952786E0
1.457784146E1,-8.585892127E-1,3.350049357E0,-2.825351799E0,4.465715947E0
1.458781146E1,-5.547312693E-1,-1.919682122E0,-4.200294739E0,4.651384968E0
1.459778146E1,7.592260884E-1,-4.492567229E0,-4.080709823E0,6.116516755E0
1.460775146E1,4.380330509E-1,-2.899985075E-1,-4.769152808E0,4.797998603E0
1.461772146E1,-6.001214867E-2,1.922898383E0,-4.768638838E0,5.142086737E0
1.462769146E1,-7.600890644E-1,3.009866536E0,2.743357463E0,4.142830207E0
1.463766146E1,9.329529320E-1,-1.169707425E0,7.648198419E0,7.793173660E0
1.464763146E1,2.299942708E-1,-8.467200374E0,8.856202183E0,1.225474180E1
1.465760146E1,6.783340260E-1,-5.743227600E0,-2.451705948E0,6.281374242E0
1.466757146E1,7.228068519E-2,5.065146466E0,-1.103756445E1,1.214449514E1
1.467754246E1,2.891026556E0,9.754579505E-1,-4.716993890E0,5.617791748E0
1.468751246E1,2.083271720E0,2.014930049E0,1.801473933E0,3.412517032E0
1.469748246E1,-2.854622376E0,-4.799996871E-1,4.012645894E0,4.947786948E0
1.470745246E1,-4.699871708E-1,-1.099728532E0,3.048122529E0,3.274346002E0
1.471742246E1,1.670970877E-1,-1.748408112E-1,2.546928440E0,2.558385277E0
1.472739246E1,5.402601414E-1,-1.772038465E0,1.249051802E0,2.234307889E0
1.473736246E1,2.280773343E-1,-2.763604617E-1,-3.028751289E0,3.049873562E0
1.474733246E1,-2.701140566E0,-2.259656781E0,-6.468131483E-1,3.580583245E0
1.475730246E1,-2.446707017E0,2.821687641E0,2.682778555E-1,3.744365017E0
1.476727246E1,1.473362104E0,2.126134442E0,4.424294554E0,5.125000084E0
1.477724258E1,-1.389932679E-1,-5.489085388E-1,2.584031947E0,2.645343232E0
1.478721358E1,-3.899482683E0,2.651997350E0,1.823940690E0,5.056264904E0
1.479718358E1,-2.507177533E-1,3.355563866E0,-3.821126193E-1,3.386543711E0
1.480715358E1,9.519832800E-1,-2.050945973E0,1.337854636E-1,2.265071765E0
1.481712358E1,-9.235025889E-1,-4.139828682E-3,-4.806976107E0,4.894884418E0
1.482709358E1,-1.491013971E0,3.443828756E0,-3.518907589E0,5.144491207E0
1.483706358E1,-1.667143947E0,4.824774155E0,-6.816878720E0,8.516316696E0
1.484703358E1,-1.221684348E0,-7.619872168E-1,-3.087774253E0,3.406976225E0
1.485700358E1,-2.450028126E-1,-4.127959127E0,4.944534194E0,6.445811922E0
1.486697358E1,2.118785516E0,-1.126590934E0,6.899960638E0,7.305334763E0
1.487694358E1,-2.519495058E-1,1.360486284E-1,5.162803738E0,5.170737880E0
1.488691358E1,1.328905034E0,2.847472401E0,3.442980909E-1,3.161111962E0
1.489688358E1,1.100273201E0,-2.869433373E-1,-5.263778136E0,5.385192462E0
1.490685458E1,3.113152923E0,4.278536332E-1,-3.846811842E0,4.967166315E0
1.491682458E1,7.037062642E-1,-8.063462412E-1,-8.211022747E-1,1.348927616E0
1.492679458E1,1.111967340E0,-1.362349207E0,2.197933280E-1,1.772223415E0
1.493676458E1,-2.685196379E0,-5.927530083E-1,-1.161517230E0,2.985089278E0
1.494673458E1,-3.057740322E0,-5.292171630E-1,3.311779330E0,4.538472101E0
1.495670458E1,3.130518861E-2,7.236514091E-3,2.447069691E0,2.447280624E0
1.496667458E1,9.611992959E-2,6.622281629E-1,1.007727272E0,1.209669143E0
1.497664458E1,-4.997975553E-1,5.793324789E-1,-3.485974901E0,3.568955692E0
1.498661458E1,6.941542527E-1,2.385687375E-1,-3.660190938E0,3.733063470E0
1.499658458E1,-4.199031375E-1,-2.057613261E0,4.304320799E0,4.789286848E0
1.500655558E1,-6.075217594E-1,-2.643325345E0,2.798911859E0,3.897455473E0
1.501652558E1,-1.897817482E0,-2.370125303E0,-5.417794381E0,6.210611975E0
1.502649558E1,-6.409900524E-2,-3.306264529E0,-7.255008835E-1,3.385534721E0
1.503646558E1,2.157972678E0,-1.734503725E0,2.498109452E0,3.729061555E0
1.504643558E1,-1.221735730E0,-1.944176108E0,1.702101088E-1,2.302483532E0
1.505640558E1,-2.934194941E-2,-2.832875704E0,1.058027360E0,3.024147417E0
1.506637558E1,-3.050868089E0,-2.382433107E0,6.278811504E0,7.376127541E0
1.507634558E1,-2.134864335E0,-1.196529188E0,4.940596095E0,5.513512274E0
1.508631558E1,1.125655233E0,6.232210364E0,-4.806739295E0,7.950615598E0
1.509628558E1,2.236368637E0,3.234820032E0,-1.208697828E0,4.114165257E0
1.510625558E1,1.064688216E0,-6.486060215E0,3.592118822E0,7.490384219E0
1.511622558E1,-2.099041807E0,-3.235281085E0,1.159275992E0,4.027026326E0
1.512619658E1,-4.846753034E-1,5.426959307E0,-1.310489666E0,5.603943311E0
1.513616658E1,7.250138104E-1,1.119177833E0,-1.247271910E0,1.825894648E0
1.514613658E1,2.412735718E0,-8.629154214E-1,-3.065595764E0,3.995471694E0
1.515610658E1,-8.822327216E-1,2.561079871E0,-1.560925913E0,3.126332418E0
1.516607658E1,2.673699291E0,3.417499913E0,-8.868353866E0,9.872976950E0
1.517604658E1,2.911638283E0,3.537689723E0,-9.386954532E0,1.044546799E1
1.518601658E1,5.130730737E-1,-5.231390408E0,9.447289027E0,1.081119603E1
1.519598658E1,-2.680781439E0,-5.336712795E0,1.733713474E1,1.833693905E1
1.520595658E1,-1.431755510E0,3.533488499E0,5.277710881E0,6.510737052E0
1.521592658E1,1.451802105E0,1.225835199E1,-7.857302452E0,1.463257068E1
1.522589658E1,1.532210383E0,6.010657024E-1,-7.492459584E0,7.671108086E0
1.523586758E1,3.793186442E0,-6.518643240E0,-2.493953835E0,7.943599864E0
1.524583758E1,-5.428510061E-1,4.500891325E-1,-2.121745230E0,2.235860072E0
1.525580758E1,-2.724922654E0,2.318423053E0,1.761444479E0,3.987853505E0
1.526577758E1,-1.226976992E-1,-1.729515466E0,1.968994322E0,2.623588595E0
1.527574758E1,9.956016815E-1,1.481527741E0,-5.797935319E-1,1.876781206E0
1.528571758E1,-1.229039414E-1,-2.139810495E0,-2.813667893E0,3.537035672E0
1.529568758E1,-2.459525137E0,-1.964255154E-2,-3.391309065E-1,2.482873235E0
1.530565758E1,9.989823224E-1,1.581408417E0,4.879727165E0,5.225950197E0
1.531562758E1,-1.082432907E0,-4.722272172E0,3.803910236E0,6.159646787E0
1.532559758E1,-4.972125743E-1,-2.347515874E0,1.825413018E-1,2.406527052E0
1.533556758E1,-9.747570156E-1,2.021963664E0,-2.428735746E0,3.307150681E0
1.534553858E1,2.714737243E-1,2.972033882E0,-3.362143153E-1,3.003285441E0
1.535550858E1,2.890246537E0,-2.940665031E0,-5.155332166E-1,4.155335169E0
1.536547858E1,-2.634756835E-1,-3.923265648E0,3.787598258E0,5.459609267E0
1.537544858E1,-1.961896351E-1,3.902308935E-1,3.034777429E0,3.066047059E0
1.538541858E1,-1.053613589E0,3.184089589E-1,-1.818277076E0,2.125468745E0
1.539538858E1,-1.247864890E-1,2.719561635E0,-6.216933344E0,6.786887899E0
1.540535858E1,-1.768248007E0,-1.137004532E0,-8.795698119E0,9.043438821E0
1.541532858E1,-3.108198212E-1,9.017426875E-1,-8.018035394E-1,1.246048856E0
1.542529858E1,3.564909974E-1,-7.202363428E-1,6.835023800E0,6.882105533E0
1.543526858E1,2.708714173E0,-6.159529474E0,9.713881130E0,1.181678562E1
1.544523858E1,9.318358945E-1,-2.214567732E0,5.268440121E0,5.790430872E0
1.545520958E1,1.754241002E0,8.581113490E-1,-8.537730074E-1,2.131348148E0
1.546517958E1,5.227956046E-1,3.510908014E-1,-4.694628875E0,4.736678190E0
1.547514958E1,-1.300969230E0,9.642038146E-1,-3.776605493E0,4.109131171E0
1.548511958E1,-2.829525249E0,-9.680270165E-1,-9.281203544E-1,3.131245253E0
1.549508958E1,-1.548251342E0,3.726167411E-2,-2.073377062E0,2.587926408E0
1.550505958E1,7.424399748E-1,-9.612904394E-1,4.172573090E-2,1.215334300E0
1.551502958E1,3.094796759E0,8.991321981E-1,-1.882571306E0,3.732329086E0
1.552499958E1,4.818347261E-1,-2.193122776E0,-8.768776953E-2,2.247140708E0
1.553496958E1,-1.684113444E0,9.838174224E-1,3.118038856E0,3.677812002E0
1.554493958E1,-6.566983780E-1,3.982819247E0,4.738408148E0,6.224677799E0
1.555490958E1,-1.078217869E0,-1.872281083E0,1.246983642E0,2.494585823E0
1.556488058E1,-1.679153690E0,-1.444934696E-2,-3.910579237E0,4.255866053E0
1.557485058E1,-9.775163897E-1,1.339137515E0,-5.070470940E0,5.334651173E0
1.558482058E1,-2.077540426E0,1.780928279E0,1.463552815E0,3.103202636E0
1.559479058E1,-1.041784526E0,4.684173469E0,-2.050902704E0,5.218524503E0
1.560476058E1,3.246954466E0,-6.506886828E-1,-8.470446163E-1,3.418127214E0
1.561473058E1,-2.417070697E0,-1.135667859E0,2.299070231E0,3.523875163E0
1.562470058E1,-4.393170264E-1,1.402676868E0,2.369698164E0,2.788542852E0
1.563467058E1,-1.171268412E0,-3.038955849E-1,-1.231189728E-2,1.210113136E0
1.564464058E1,-1.670641313E0,1.116565005E0,-1.803332763E0,2.699957196E0
1.565461058E1,-2.549777057E-1,-1.581277147E-1,5.411715031E-2,3.048715640E-1
1.566458058E1,9.173031516E-1,2.278415526E0,3.030559248E-1,2.474765701E0
1.567455158E1,-1.047376730E0,-1.672623812E0,-7.086427760E-1,2.096865044E0
1.568452158E1,-2.353186796E0,-4.286258749E0,3.968947898E0,6.297781322E0
1.569449158E1,-8.667381117E-1,-4.315113589E-1,2.912229729E0,3.068960574E0
1.570446158E1,1.157485574E0,2.143072364E0,2.744490069E-1,2.451092465E0
1.571443158E1,1.381462147E0,-3.401041755E-1,-3.973139182E0,4.220182872E0
1.572440158E1,-1.889936751E0,-1.900143943E0,-4.283076110E0,5.052439895E0
1.573437158E1,-2.047110638E0,-2.134604134E0,-2.416752462E0,3.819409541E0
1.574434158E1,-1.000963140E0,1.106626493E-1,-9.859750450E-2,1.011876918E0
1.575431158E1,3.677621634E-1,-5.551635978E-1,9.111705042E0,9.136007027E0
1.576428158E1,9.995811503E-1,-3.051267162E-1,6.780885599E0,6.860952871E0
1.577425158E1,1.387499415E-1,1.884677180E0,-1.050829437E0,2.162290944E0
1.578422283E1,-5.458911197E-1,-3.483174670E-1,-8.207857064E0,8.233361389E0
1.579419283E1,1.538723889E0,-5.272142578E0,-5.971767193E0,8.113270732E0
1.580416283E1,-2.545881532E-1,-3.422520332E0,1.675724298E-1,3.436064765E0
1.581413283E1,-4.672861592E-1,-2.093242100E0,4.731860436E0,5.195240325E0
1.582410283E1,-1.106142489E0,3.655261150E-1,6.971558624E0,7.068223977E0
1.583407283E1,-1.879041780E0,5.078813163E0,3.185355511E0,6.282645214E0
1.584404283E1,-1.201557135E0,1.620811341E0,-4.506035120E0,4.937116715E0
1.585401283E1,8.068685438E-1,-2.356643963E0,-3.811556640E0,4.553325338E0
1.586398283E1,7.742140371E-1,-1.728660018E0,-1.614108093E0,2.488577459E0
1.587395283E1,-1.116683704E0,-2.796580575E0,5.067311690E0,5.894530784E0
1.588392283E1,-1.787796272E0,5.922030777E-2,1.929478254E0,2.631085116E0
1.589389383E1,-4.708046481E-1,1.822910995E0,-1.491997765E0,2.402232054E0
1.590386383E1,1.449433836E0,2.647051483E0,-4.919305213E0,5.771248026E0
1.591383383E1,2.092400101E0,7.587583843E-1,-5.009951089E0,5.482103828E0
1.592380383E1,1.284432135E0,-1.005972815E0,3.701053619E-2,1.631905939E0
1.593377383E1,7.227586124E-1,-2.987337507E0,6.745283073E0,7.412517057E0
1.594374383E1,-1.787757315E-1,1.550304446E0,4.323651693E0,4.596669294E0
1.595371383E1,-1.418212628E0,4.975358961E0,-8.444086915E-1,5.241998654E0
1.596368383E1,1.728564709E0,1.882812503E0,-3.417220416E0,4.267354479E0
1.597365383E1,2.085559444E0,6.093319112E-1,-1.802535203E0,2.823114721E0
1.598362383E1,2.458083799E0,2.506733510E-1,6.605810022E-1,2.557612236E0
1.599359383E1,-5.097289049E-1,1.864047619E0,2.130965120E0,2.876718516E0
1.600356483E1,-1.808146775E0,2.329703794E0,1.402553492E0,3.265588894E0
1.601353483E1,3.074044260E-1,-3.093785191E0,2.359024072E-1,3.117956740E0
1.602350483E1,-1.061761246E0,6.577869102E-1,-7.151689119E0,7.259936488E0
1.603347483E1,7.295627249E-1,2.621258537E0,-4.615100895E0,5.357463426E0
1.604344483E1,4.427451393E-1,-1.511005894E0,3.278417457E0,3.636919451E0
1.605341483E1,2.578863666E-1,-5.801216776E0,1.043409905E1,1.194114921E1
1.606338483E1,-6.655745975E-1,-3.356183378E0,5.575904846E0,6.541992913E0
1.607335483E1,1.758077652E0,5.640521257E0,-4.250843334E0,7.278460423E0
1.608332483E1,1.348859242E0,2.403079918E0,-3.590454120E0,4.526099329E0
1.609329483E1,-1.969500107E0,-4.523912105E0,-2.461672527E0,5.514031469E0
1.610326483E1,-3.709182711E-1,-2.553864115E0,-8.034659028E-1,2.702842899E0
1.611323483E1,-1.217844774E0,5.373509324E-1,-6.558201993E-1,1.483911066E0
1.612320583E1,1.415361087E0,-1.036020194E0,-2.230075425E-1,1.768139478E0
1.613317583E1,8.222153652E-2,-2.907244978E0,1.973021300E0,3.514490972E0
1.614314583E1,-1.653310020E0,1.264726433E-1,9.139379328E-1,1.893333541E0
1.615311583E1,1.934319237E-1,2.535210327E0,-4.376874804E-2,2.542955567E0
1.616308583E1,1.216872236E0,1.114228750E0,2.510254118E0,3.003940659E0
1.617305583E1,1.578878619E0,-4.883986276E-1,9.157213336E-1,1.889427552E0
1.618302583E1,1.001257766E0,-1.631459413E0,-2.836118862E0,3.421658535E0
1.619299583E1,1.543088982E-1,3.717744496E-1,-3.878953986E0,3.899783520E0
1.620296583E1,1.405141835E-1,-6.748204342E-1,3.467340410E-1,7.715901433E-1
1.621293583E1,-3.602283183E-2,-1.956632724E0,5.670733820E0,5.998910844E0
1.622290683E1,-5.411462139E-1,-1.163869857E0,1.435412505E0,1.925575584E0
1.623287683E1,1.887827953E0,5.982792118E-1,-1.477018368E0,2.470509189E0
1.624284683E1,2.783420539E0,7.952701530E-1,-1.529245698E0,3.273908508E0
1.625281683E1,6.544015186E-1,-2.262163190E0,4.011558312E-1,2.388838556E0
1.626278683E1,-1.009664308E0,-2.047786430E0,-2.956451637E-1,2.302228777E0
1.627275683E1,2.218695281E0,8.062725663E-2,-1.640278476E-1,2.226210826E0
1.628272683E1,4.096718988E-1,4.846644203E0,5.742994881E-1,4.897714875E0
1.629269683E1,-9.871895117E-1,-1.342489724E0,1.735289884E0,2.405837228E0
1.630266683E1,-8.260363745E-1,-4.503795345E0,2.692559193E0,5.311909601E0
1.631263683E1,-1.006553590E0,1.258048621E0,-6.553027207E-1,1.739326915E0
1.632260683E1,-2.372578283E-1,2.708037942E0,1.532364019E0,3.120560888E0
1.633257783E1,-8.659748308E-2,-9.636708409E-2,-2.243258557E0,2.246996817E0
1.634254783E1,-4.507874362E-2,2.198019527E0,-2.836682534E0,3.588884190E0
1.635251783E1,1.016570528E0,2.972314256E0,-2.850736901E0,4.242024110E0
1.636248783E1,1.353896764E0,-1.453565186E-1,7.162201828E-1,1.538550069E0
1.637245783E1,-6.146923462E-1,1.062934928E0,3.939675567E0,4.126587078E0
1.638242783E1,1.135344362E0,1.976348073E0,-5.483056909E-1,2.344269109E0
1.639239783E1,3.339945368E0,4.541462231E-1,-2.077356677E0,3.959405842E0
1.640236783E1,1.298682384E0,-1.129971501E0,-5.445968605E0,5.711565947E0
1.641233783E1,2.410364672E0,-7.654236254E-1,-4.629666309E0,5.275371201E0
1.642230783E1,5.932734470E-1,-2.977412443E0,3.115658455E0,4.350205265E0
1.643227783E1,-8.574978299E-1,-1.907420218E-1,7.451889263E0,7.503488431E0
1.644224883E1,-1.428798135E0,1.868682999E0,3.074302268E0,3.871017269E0
1.645221883E1,1.397612741E0,2.554873636E-1,2.050084679E0,2.494281932E0
