"Time (s)","Linear Acceleration x (m/s^2)","Linear Acceleration y (m/s^2)","Linear Acceleration z (m/s^2)","Absolute acceleration (m/s^2)"
5.265375017E-3,9.213541026E-1,-3.734852280E0,1.404150367E-2,3.846844434E0
1.523537503E-2,1.411667693E0,-1.450511186E0,1.107528718E0,2.307251230E0
2.520637499E-2,1.685371327E0,-3.738469952E-1,1.792607215E0,2.488710251E0
3.517637501E-2,2.231329506E0,-1.345982850E0,2.517153248E0,3.623059712E0
4.514637502E-2,3.391694396E0,-2.737901719E0,3.304441659E0,5.469829191E0
5.511637504E-2,2.897897619E0,-1.514796644E0,2.011691276E0,3.839182370E0
6.508637499E-2,1.973058430E0,-1.105234271E0,1.236197868E0,2.577341174E0
7.505737501E-2,2.569821751E0,-1.817831226E0,1.969198390E0,3.712982157E0
8.502737503E-2,2.224119159E0,-2.298966735E0,9.454251891E-1,3.335533371E0
9.499737498E-2,1.199882785E0,-8.226120257E-1,-7.485535312E-1,1.636075069E0
1.049673750E-1,6.047861396E-1,2.529710144E-1,-1.758899771E0,1.877095899E0
1.149373750E-1,1.692084661E0,3.344645360E-1,-4.813626730E-1,1.790733662E0
1.249083750E-1,2.887706507E0,-3.782894173E-1,3.658561903E-1,2.935268728E0
1.348783750E-1,2.250261768E0,-5.421123201E-1,-8.109175944E-1,2.452580505E0
1.448483750E-1,1.592547947E0,-3.911012515E-1,-2.360535577E0,2.874247269E0
1.548183750E-1,2.094394879E0,-1.456968266E-1,-1.016530255E0,2.332606103E0
1.647883750E-1,2.272521240E0,-5.904559296E-1,1.101662207E0,2.593578726E0
1.747591667E-1,1.055813239E0,-5.093573874E-1,-3.558434182E-1,1.225075949E0
1.847291667E-1,2.746531661E-1,9.282177106E-1,-1.866787332E0,2.102835567E0
1.946991667E-1,-5.322005495E-3,2.463147487E0,-6.547688699E-1,2.548694988E0
2.046691666E-1,6.281924707E-1,2.004938619E0,8.486941159E-2,2.102761865E0
2.146391667E-1,7.040420406E-1,7.248381016E-1,-6.586011350E-1,1.206159576E0
2.246101667E-1,-3.193529188E-1,-1.420013863E-1,-2.023905525E0,2.053860816E0
2.345801667E-1,-3.418204429E-1,7.710173643E-1,-1.800431374E0,1.988180607E0
2.445501667E-1,3.780033058E-3,8.601005718E-1,-3.301899290E-1,9.213103014E-1
2.545201667E-1,2.129523781E0,2.562977877E-1,7.751612860E-1,2.280665497E0
2.644901667E-1,2.256760509E0,-3.018338567E-1,1.662991401E0,2.819505643E0
2.744611667E-1,1.211914674E0,-5.118959561E-1,5.527320331E-1,1.426985405E0
2.844311667E-1,1.168928210E0,-9.409701955E-1,-4.371027589E-2,1.501242371E0
2.944011667E-1,1.208574306E0,-1.110821285E0,2.934308231E-2,1.641778547E0
3.043711667E-1,1.250885781E0,-4.167293054E-1,1.027768604E0,1.671731693E0
3.143411667E-1,2.165732518E0,-8.765979061E-1,2.593754112E0,3.490899830E0
3.243121667E-1,2.416833885E0,-1.328738827E0,3.926304739E0,4.798176924E0
3.342821667E-1,1.264546047E0,-8.923824647E-1,1.952247897E0,2.491323949E0
3.442521667E-1,1.109834421E0,-2.323824711E0,5.090644419E-1,2.625079110E0
3.542221667E-1,6.433433374E-1,-2.112806007E0,-2.029463303E-1,2.217887978E0
3.641931667E-1,2.810336844E-1,-8.621158147E-1,-7.564425945E-2,9.099151959E-1
3.741631667E-1,1.663032551E-1,1.603446865E-1,4.570248073E-1,5.120926339E-1
3.841331667E-1,-5.974050531E-1,6.178296697E-1,-2.176274609E0,2.339824240E0
3.941031666E-1,-5.548480674E-1,-7.030238941E-1,-2.412789220E0,2.573645429E0
4.040731667E-1,-1.855840321E0,-1.924284465E0,-1.879855859E0,3.268160346E0
4.140441667E-1,-1.257931384E0,-1.797805974E0,-8.925394624E-1,2.368781201E0
4.240141667E-1,-1.013238711E0,-9.095671391E-1,8.085845554E-1,1.583595292E0
4.339841667E-1,-1.375574878E0,-7.978265557E-1,9.596631593E-1,1.857333259E0
4.439541667E-1,-6.665143181E-1,-2.521080238E0,-6.714357734E-2,2.608561896E0
4.539241667E-1,-1.589128788E0,-1.404416707E0,4.606436491E-1,2.170232514E0
4.638951667E-1,-1.422082169E0,1.622417572E0,1.415876373E0,2.580554664E0
4.738651667E-1,3.199530624E-2,1.670973143E0,2.071969637E0,2.661997957E0
4.838351667E-1,1.054904727E0,-1.590411960E0,1.295927761E0,2.306872980E0
4.938051667E-1,1.378971087E0,-3.258897989E0,-6.799066347E-1,3.603366536E0
5.037751667E-1,3.270789910E-2,-1.015508747E0,-1.206961205E0,1.577682849E0
5.137461667E-1,-4.157145942E-1,1.594743285E0,-4.613119859E-1,1.711383509E0
5.237161667E-1,-2.041657306E-1,3.223309496E0,-6.367138374E-1,3.291931388E0
5.336861667E-1,-5.085633355E-1,2.030753199E0,-3.946472955E-1,2.130338402E0
5.436561667E-1,-1.118734615E0,-8.929195315E-1,-6.881775212E-1,1.588225654E0
5.536261667E-1,-3.638700373E-1,-2.577435410E0,6.907157975E-1,2.693076867E0
5.635971667E-1,-1.404072599E0,-8.319737104E-1,1.633962314E0,2.309422647E0
5.735671667E-1,-1.464804850E0,5.349097198E-1,3.259986448E-1,1.593127984E0
5.835371666E-1,-8.904103450E-1,2.307013088E-1,-8.022379875E-4,9.198121113E-1
5.935071667E-1,-5.191302044E-1,8.944763526E-1,-1.893398595E-1,1.051396070E0
6.034781667E-1,-6.330619588E-1,1.272105619E-1,4.058669329E-2,6.469909199E-1
6.134481667E-1,-1.178342958E0,-6.985387874E-1,-1.619861169E0,2.121414333E0
6.234181667E-1,-1.017968524E0,-1.316379274E0,-7.287905270E-1,1.816659005E0
6.333881667E-1,-1.474163319E0,-1.476458205E0,1.251922200E0,2.433186289E0
6.433581667E-1,-4.745782218E-1,-9.951665756E-1,1.359015124E0,1.750000889E0
6.533291667E-1,1.098463268E0,3.919786263E-1,-5.522344351E-2,1.167612274E0
6.632991667E-1,1.240294281E0,1.790080048E0,-1.821091926E-1,2.185378741E0
6.732691667E-1,9.433086433E-1,8.121548653E-1,1.336924928E-1,1.251918689E0
6.832391667E-1,1.167773970E0,2.599751016E-1,-2.435254222E-1,1.220896281E0
6.932091667E-1,1.638150090E-1,1.150643455E0,-2.351951864E0,2.623450646E0
7.031801667E-1,3.359500942E-1,-1.728290766E-2,-1.468235850E0,1.506279415E0
7.131501667E-1,1.076179602E0,-2.108754179E0,5.647960085E-1,2.433927126E0
7.231201667E-1,9.072804393E-1,-7.115120047E-1,-7.911236000E-1,1.398314585E0
7.330901667E-1,6.498210291E-1,2.752223012E0,-1.339798835E0,3.129226709E0
7.430611667E-1,8.769100743E-1,4.290662580E0,-3.014187044E-1,4.389716379E0
7.530311667E-1,1.125437863E0,2.876548265E0,-2.706512403E-1,3.100708370E0
7.630011667E-1,4.433917317E-1,3.246227950E-1,-1.824813094E0,1.905759433E0
7.729711666E-1,3.625308788E-1,-2.303406526E0,-2.080963240E0,3.125302908E0
7.829411667E-1,1.931956597E-1,-1.804030043E0,-1.238197616E0,2.196584234E0
7.929121667E-1,-1.963058668E-1,1.696984482E0,-3.501686954E-1,1.743820644E0
8.028821667E-1,3.592687903E-1,2.539706251E0,1.560134200E0,3.002199299E0
8.128521667E-1,3.840495095E-2,-2.184294650E-1,1.657648215E0,1.672418601E0
8.228221667E-1,8.228859678E-2,-1.950746332E0,-5.810904443E-2,1.953345675E0
8.327921667E-1,-1.424455554E-1,-7.911200917E-1,-9.220953834E-1,1.223283136E0
8.427631667E-1,-1.109774487E-1,1.165327568E0,-3.081178594E-1,1.210471375E0
8.527331667E-1,3.144772180E-1,1.343860896E0,9.424740994E-1,1.671261636E0
8.627031667E-1,3.402212660E-1,4.259608895E-2,7.698362267E-1,8.427412133E-1
8.726731667E-1,7.264819732E-1,-7.723174927E-1,-9.478973919E-1,1.422237615E0
8.826441666E-1,4.149483897E-2,-8.254856399E-1,-1.236456315E0,1.487270178E0
8.926141667E-1,2.677681976E-1,3.429912382E-1,-9.189934355E-1,1.016804667E0
9.025841667E-1,3.921619365E-1,9.484765586E-1,-4.519102478E-1,1.121437309E0
9.125541667E-1,5.270022377E-2,3.515133212E0,-3.155167506E0,4.723771883E0
9.225241667E-1,9.084870122E-2,2.061582059E0,-3.907121778E0,4.418594195E0
9.324951667E-1,8.656336458E-1,-1.021492202E0,-1.095479361E0,1.729983514E0
9.424651667E-1,7.321292871E-1,-1.267357973E0,4.716878700E-1,1.537757774E0
9.524351667E-1,4.584283584E-1,-6.094932944E-1,7.458182037E-2,7.662904694E-1
9.624051666E-1,2.477115901E-1,7.248921883E-1,1.278351615E0,1.490306200E0
9.723751667E-1,4.968540669E-1,1.410831103E0,2.498138688E0,2.911701439E0
9.823461667E-1,8.730088120E-1,1.680071703E-1,1.839152221E0,2.042755905E0
9.923161667E-1,4.677287203E-1,9.596777773E-1,-4.329956746E-1,1.152057658E0
1.002286167E0,-1.646370544E-1,1.925295741E0,-9.601718670E-1,2.157730072E0
1.012256167E0,2.867755222E-1,5.169830337E-1,4.598864347E-1,7.490041322E-1
1.022227167E0,4.652577601E-1,4.551823497E-2,3.861524606E-1,6.063418308E-1
1.032197167E0,-6.011613044E-1,4.917742252E-1,-1.790137351E0,1.951365814E0
1.042167167E0,-3.548628402E-1,5.268192199E-1,-2.010083292E0,2.108056205E0
1.052137167E0,9.440103091E-2,1.305187704E0,4.557097685E-1,1.385675968E0
1.062107167E0,5.131104228E-1,-1.078173941E-1,9.816954678E-1,1.112938852E0
1.072078167E0,2.468217169E-1,-1.743057910E-1,-1.735424370E-1,3.484543674E-1
1.082048167E0,-1.960573601E-1,4.589792392E-1,-1.526982826E0,1.606479686E0
1.092018167E0,-9.636720103E-1,9.135461694E-1,-2.579175834E0,2.900927150E0
1.101988167E0,-9.025642213E-1,2.892342764E-1,4.148675519E-1,1.034598340E0
1.111958167E0,-4.952234977E-1,-3.208794075E-1,1.914736839E0,2.003603521E0
1.121929167E0,-5.162194604E-1,-7.211447078E-1,-1.789014101E-2,8.870469424E-1
1.131899167E0,-7.413203792E-1,1.314820114E0,-2.786163175E0,3.168755762E0
1.141869167E0,-2.998128397E-1,1.212020508E0,-2.185086948E-1,1.267528107E0
1.151839167E0,4.428746916E-2,4.372869462E-2,2.361286944E0,2.362107028E0
1.161810167E0,5.322642202E-1,7.962913692E-2,6.999386108E-1,8.829269836E-1
1.171781167E0,8.699135153E-1,-5.913669258E-2,-1.602980257E0,1.824771870E0
1.181751167E0,7.665829090E-1,-5.147046661E-1,7.849998111E-1,1.211938510E0
1.191721167E0,8.390644826E-2,1.395259091E0,1.271396352E0,1.889507054E0
1.201691167E0,2.263609938E-1,3.055936456E0,4.184852242E-3,3.064311413E0
1.211662167E0,-4.379511899E-1,2.507996508E-1,-7.059483790E-1,8.677930764E-1
1.221632167E0,-7.985413047E-1,-1.219149141E0,-7.487236851E-1,1.638468798E0
1.231602167E0,-1.208507720E0,-2.845886636E-1,-1.038769555E0,1.618803202E0
1.241572167E0,-1.402374860E0,3.118103760E-1,-6.836734110E-1,1.591002920E0
1.251542167E0,-8.995689851E-1,2.208864650E-1,1.344792942E0,1.632937000E0
1.261513167E0,-7.853070822E-1,2.326253352E-1,1.649486087E0,1.841636802E0
1.271483167E0,-6.560279216E-1,-2.560612679E-1,-3.826143104E-1,8.014572461E-1
1.281453167E0,-3.065697359E-1,-3.260085851E-2,-9.392324030E-1,9.885369623E-1
1.291423167E0,-3.825070871E-1,-8.863036993E-1,5.030991125E-1,1.088556216E0
1.301393167E0,-1.691293387E0,4.384853330E-1,-8.584385008E-1,1.946704745E0
1.311364167E0,-2.026228331E0,8.415891641E-1,-2.731030363E0,3.503198598E0
1.321334167E0,-1.223507729E0,-1.020944903E0,-2.269326614E0,2.772930388E0
1.331304167E0,-1.475257479E0,-2.013527594E0,-1.188937163E0,2.764823607E0
1.341274167E0,1.054630128E-1,-2.317383418E0,2.437198421E0,3.364717595E0
1.351245167E0,7.288104806E-1,2.324578124E-1,4.250597751E0,4.318886730E0
1.361215167E0,8.253861641E-1,6.737343138E-1,2.200941088E0,2.445265204E0
1.371185167E0,1.030741182E0,-1.153000760E0,1.897382888E0,2.447835770E0
1.381155167E0,1.298688962E0,-1.940445877E0,1.422963198E0,2.734364183E0
1.391125167E0,-3.262900554E-1,2.315095402E0,-4.233754846E0,4.836404865E0
1.401096167E0,-3.933236320E-1,3.602195914E0,-4.485369306E0,5.766199502E0
1.411066167E0,6.093740842E-1,6.255035555E-1,-3.301275392E0,3.414822204E0
1.421036167E0,6.214238070E-1,-1.115502566E0,-2.929165605E0,3.195391160E0
1.431006167E0,7.808758429E-1,-3.723793441E-1,-2.290698187E0,2.448618313E0
1.440976167E0,1.164635623E0,-2.935211626E-1,4.154905728E0,4.325017042E0
1.450947167E0,1.732077716E0,-6.147864863E-1,6.404908463E0,6.663400638E0
1.460917167E0,1.201836632E0,-1.522804990E-1,1.993523977E0,2.332753413E0
1.470887167E0,6.580542742E-1,7.553669992E-1,-1.140818086E0,1.518249201E0
1.480857167E0,1.480446737E0,6.504799372E-1,2.203621452E0,2.733275360E0
1.490827167E0,1.344540927E0,4.967005044E-2,2.658212648E0,2.979320711E0
1.500798167E0,-9.743752655E-1,6.563651597E-1,-1.772203941E0,2.126247678E0
1.510768167E0,-4.658013318E-1,-8.761535177E-1,-3.161150962E-1,1.041414721E0
1.520738167E0,7.506078042E-1,-1.811896302E0,4.574565073E0,4.977250837E0
1.530708167E0,5.787314583E-1,1.925126464E0,2.476461890E0,3.189656015E0
1.540678167E0,-9.650344115E-1,1.899366263E0,-1.988638628E0,2.914372524E0
1.550649167E0,-1.632525215E0,-7.049604920E-1,-4.040303224E0,4.414312859E0
1.560619167E0,-4.422467738E-1,-4.165392709E-1,-2.944203474E0,3.006230408E0
1.570589167E0,-2.464436214E-1,2.026802820E0,-2.817788426E0,3.479740758E0
1.580559167E0,-9.387393366E-1,9.250184065E-1,-2.190987958E0,2.556818106E0
1.590529167E0,-2.439898373E-1,-9.135163486E-1,-2.365464195E0,2.547442643E0
1.600500167E0,1.595547423E0,-1.799473308E0,-6.807556504E-1,2.499460746E0
1.610470167E0,2.191302684E0,3.336231217E-1,2.550344968E-1,2.231177813E0
1.620440167E0,5.841181326E-1,1.807180815E0,2.848725459E0,3.423789309E0
1.630410167E0,-3.624270907E-1,3.254893523E-1,2.592614490E0,2.637981540E0
1.640380167E0,3.585505329E-2,4.468047515E-1,-2.151597605E0,2.197792602E0
1.650351167E0,1.045577176E-1,5.895230064E-1,-4.157619420E0,4.200508176E0
1.660321167E0,-2.997431117E-1,6.222957730E-2,-2.033074543E0,2.055993811E0
1.670291167E0,-2.393723642E-1,-5.255348790E-1,-3.334538448E-1,6.668414387E-1
1.680261167E0,-6.017420791E-2,-1.455830690E0,-4.929606253E-1,1.538204834E0
1.690231167E0,1.423680798E-1,-1.195668770E0,-4.504209620E-1,1.285601618E0
1.700201167E0,1.936910650E-1,3.303662226E-1,3.072638150E0,3.096411354E0
1.710172167E0,-1.574881755E-2,1.222370372E0,3.426908083E0,3.638424984E0
1.720142167E0,5.273812835E-1,-7.905122736E-1,2.135824156E-1,9.739908219E-1
1.730112167E0,3.899924733E-1,-3.003692461E0,-9.981892937E-1,3.189144775E0
1.740082167E0,9.390905350E-1,1.325248039E-1,-3.781511307E-2,9.491490079E-1
1.750052167E0,8.160005059E-1,2.668377740E0,-6.068825126E-3,2.790364388E0
1.760023167E0,4.887148889E-1,1.585797629E0,2.174018753E0,2.734950439E0
1.769993167E0,6.770194258E-1,-5.729990673E-1,2.797651200E0,2.934882531E0
1.779963167E0,-5.116785859E-1,-1.142323744E-1,-6.082624555E-1,8.030238012E-1
1.789933167E0,-6.569476886E-1,2.760730711E0,-2.652278894E0,3.884301437E0
1.799903167E0,-1.162248132E-1,2.994207693E0,-1.286583325E0,3.260994414E0
1.809873167E0,-1.269374970E-1,1.210368378E0,-1.600227388E0,2.010430907E0
1.819844167E0,-7.357874514E-1,-1.218999453E0,-1.058703883E0,1.774315854E0
1.829814167E0,-5.949819669E-1,-1.836328601E0,1.840235710E-2,1.930400196E0
1.839784167E0,5.064799726E-1,6.861350888E-1,2.103670317E-1,8.783835214E-1
1.849754167E0,3.740975484E-2,1.643162908E0,1.995858185E0,2.585504540E0
1.859724167E0,-8.294792151E-1,2.201179655E0,1.050255826E0,2.576094901E0
1.869695167E0,-2.297428771E-1,1.348155383E0,-1.221868681E0,1.833921427E0
1.879665167E0,-7.610502005E-2,2.011310622E0,-2.429712231E0,3.155101253E0
1.889635167E0,8.144440502E-3,7.093160829E-1,-1.774348699E0,1.910892186E0
1.899605167E0,-7.077981457E-3,-4.909255019E-1,-4.719428086E-1,6.810197947E-1
1.909575167E0,-6.025694601E-2,-1.607338772E0,7.619711369E-1,1.779822699E0
1.919546167E0,-3.609538116E-1,1.835870471E0,-7.409112203E-1,2.012376078E0
1.929516167E0,-5.633346431E-2,1.133060585E0,-1.039930227E0,1.538978436E0
1.939486167E0,2.760467586E-1,-2.795087488E0,2.795401776E0,3.962699455E0
1.949456167E0,1.829530920E-1,-2.806338700E0,2.277831389E0,3.619050231E0
1.959426167E0,1.565253437E0,-1.263038927E0,1.365190369E0,2.430849727E0
1.969396167E0,1.980637591E0,2.508820966E-1,2.824337307E0,3.458720618E0
1.979367167E0,8.930870542E-1,4.498584598E-1,2.709413792E0,2.888061671E0
1.989337167E0,6.757383739E-1,2.441572139E-1,-7.860768682E-1,1.064965698E0
1.999307167E0,1.263278078E0,6.539999610E-1,-2.324124380E0,2.724911299E0
2.009277167E0,1.182371251E0,1.994488475E0,-1.036221339E0,2.539633973E0
2.019247167E0,-5.610806876E-1,2.250602660E0,-7.251178908E-1,2.430189258E0
2.029217167E0,-1.506282221E0,1.290438102E0,-3.916035858E0,4.389698562E0
2.039188167E0,-7.004330660E-1,-6.620980623E-1,-1.665037342E0,1.923884007E0
2.049158167E0,-2.309250379E-1,-5.363665536E-1,1.505075063E0,1.614393508E0
2.059128167E0,-5.244646192E-1,7.268916437E-1,-1.294572376E0,1.574595896E0
2.069098167E0,-1.113411821E0,1.392969029E0,-4.126157892E0,4.495022530E0
2.079068167E0,6.736136419E-1,-9.898669517E-1,-7.376128060E-1,1.406294625E0
2.089038167E0,2.440237658E0,-7.805439404E-1,4.054435945E-1,2.593914644E0
2.099009167E0,1.115509583E0,8.960366821E-1,-3.025456967E0,3.346734711E0
2.108979167E0,2.474015415E-1,6.874606526E-1,-2.508749045E0,2.612973678E0
2.118949167E0,1.402016425E0,5.185837090E-1,-9.183683681E-1,1.754417162E0
2.128919167E0,2.581672010E0,-9.166592270E-1,-4.960467857E-1,2.784125881E0
2.138889167E0,2.323653533E0,-9.766765103E-1,7.948196250E-1,2.642915244E0
2.148859167E0,3.992592137E-1,1.830170605E0,-1.178178871E-1,1.876915933E0
2.158830167E0,1.154348543E0,1.180805440E0,-1.002862973E0,1.931982451E0
2.168800167E0,1.728858970E0,-2.345747969E0,3.374490718E0,4.458550715E0
2.178770167E0,1.079790770E0,3.597449729E-1,4.054745262E0,4.211451495E0
2.188740167E0,8.183355915E-1,6.319284761E-1,1.325038708E0,1.680694594E0
2.198710167E0,5.892373699E-1,-8.169352564E-1,1.641977093E0,1.926310635E0
2.208680167E0,2.952666295E-1,-5.738679636E-1,3.337377856E0,3.399205462E0
2.218651167E0,7.497469479E-1,2.889354545E0,1.706992868E0,3.438650145E0
2.228621167E0,5.207146537E-1,2.471229801E0,-8.948526210E-1,2.679343519E0
2.238591167E0,9.704779501E-1,-2.192647690E0,1.471140162E0,2.813144988E0
2.248561167E0,4.413146545E-1,-7.391743049E-1,1.449997800E0,1.686306881E0
2.258531167E0,1.815999001E-1,2.371159968E-1,-1.158954980E0,1.196820440E0
2.268501167E0,6.597065511E-1,2.334661648E-1,3.299560404E-1,7.736860942E-1
2.278471167E0,1.255579488E0,-1.319225114E0,2.073216264E0,2.759539894E0
2.288442167E0,8.775985108E-1,-1.127115429E0,-1.137615566E0,1.826126368E0
2.298412167E0,3.936626974E-1,7.424849984E-1,-2.983721296E0,3.099814037E0
2.308382167E0,8.117097460E-1,-3.777655068E-1,-1.159336803E0,1.464800776E0
2.318352167E0,1.272716800E0,-1.433133845E0,-1.676344103E-1,1.924001550E0
2.328322167E0,1.506481757E-1,-1.659933307E0,-1.975653132E0,2.584816967E0
2.338292167E0,-4.967540064E-1,-1.115453157E0,-1.036384476E0,1.601590794E0
2.348263167E0,2.411817120E-1,3.269093487E-1,3.491850768E0,3.515403267E0
2.358233167E0,2.209880604E-1,2.324718750E0,2.654711335E0,3.535625159E0
2.368203167E0,-2.004257418E-2,7.062267065E-1,4.239757597E-1,8.239619594E-1
2.378173167E0,2.475996159E-1,-9.765127882E-1,-7.596813673E-1,1.261744259E0
2.388143167E0,3.359992839E-2,4.924601036E-1,-1.115945785E0,1.220238052E0
2.398113167E0,1.152384610E-1,2.096586415E0,-1.807263261E0,2.770407009E0
2.408083167E0,-8.066128743E-1,9.657126886E-1,-2.064371181E0,2.417613223E0
2.418054167E0,-6.956539173E-1,-2.553726997E0,-3.062030717E0,4.047405102E0
2.428024167E0,-9.493195809E-1,-1.288181954E0,-3.310229818E0,3.676716179E0
2.437994167E0,-1.327370870E0,1.417918805E0,-2.537743633E0,3.195708046E0
2.447964167E0,-5.785260017E-1,-1.402393278E-1,1.080610476E0,1.233725417E0
2.457934167E0,7.876146859E-1,-2.768230934E0,3.411260349E0,4.463198020E0
2.467904167E0,1.120341429E0,-1.376039878E0,1.525621594E0,2.340122200E0
2.477875167E0,7.697759273E-1,1.634251459E0,1.073176911E0,2.101200012E0
2.487845167E0,8.888030186E-1,6.817300889E-1,1.604884695E0,1.957136072E0
2.497815167E0,1.340381218E0,-2.899789193E-1,1.558081242E0,2.075650920E0
2.507785167E0,-2.042440467E-1,2.136283162E-1,-2.163769169E0,2.183861192E0
2.517755167E0,-5.995749548E-1,2.979115444E-1,-1.064255229E0,1.257330747E0
2.527725167E0,-6.710701762E-1,-1.239489850E-1,8.716444373E-3,6.824767459E-1
2.537696167E0,5.333619618E-1,-9.778830832E-1,2.449897989E0,2.691232146E0
2.547666167E0,3.210258803E-1,1.352502203E0,1.125961481E0,1.788884871E0
2.557636167E0,-8.305023316E-1,4.711072415E-1,-6.473692185E-1,1.153587041E0
2.567606167E0,-7.313602321E-2,-1.038701727E0,-2.566857505E-1,1.072444745E0
2.577576167E0,1.038884307E-1,9.056512588E-1,-2.262970106E0,2.439678403E0
2.587546167E0,-1.494293090E0,4.263494369E-1,-2.583430853E0,3.014763781E0
2.597516167E0,-1.123645399E0,-1.689378131E0,-2.119311619E-1,2.039973595E0
2.607487167E0,-6.629728058E-1,-9.868430641E-1,-5.339835209E-1,1.303276860E0
2.617457167E0,-1.606286858E0,-8.281206876E-1,3.435531557E-2,1.807518086E0
2.627427167E0,-1.978363024E-1,-9.697569153E-1,1.746487886E0,2.007433091E0
2.637397167E0,3.296182175E-1,-1.640485176E0,7.931672019E-1,1.851743500E0
2.647367167E0,-1.163001692E-1,2.198082092E0,-5.443816245E-1,2.267474799E0
2.657337167E0,-4.014142781E-2,1.367040136E0,1.573665826E0,2.084906281E0
2.667307167E0,4.650052334E-1,-1.885273304E0,2.007071975E0,2.792637322E0
2.677278167E0,-1.118497802E-1,3.843959570E-1,-1.645942090E0,1.693929157E0
2.687248167E0,-1.034066713E0,2.308585989E-1,-2.787073587E0,2.981672154E0
2.697218167E0,-9.615821423E-1,-1.048550777E0,-1.286413171E0,1.918060947E0
2.707188167E0,2.925449699E-1,-2.957083136E-1,6.183354539E-1,7.452279515E-1
2.717158167E0,8.601980741E-1,-3.814094916E-1,1.303509260E0,1.607653669E0
2.727128167E0,6.295017354E-1,8.019701850E-1,-1.072599206E0,1.479830284E0
2.737099167E0,5.920255416E-1,2.605677170E-1,-3.788516271E-1,7.496121213E-1
2.747069167E0,7.117638735E-1,-3.637044150E-1,2.313665466E0,2.447843255E0
2.757039167E0,3.588149001E-1,9.432532409E-1,2.075808334E0,2.308128040E0
2.767009167E0,-2.747942850E-1,-3.869523597E-1,7.819908339E-1,9.147424184E-1
2.776979167E0,-7.634223428E-1,-1.419825583E0,1.161667503E0,1.987005220E0
2.786949167E0,-7.465044475E-1,1.058090802E0,2.496304416E0,2.812180786E0
2.796919167E0,-4.751425512E-1,4.800300926E-1,3.821578767E0,3.880805794E0
2.806890167E0,-4.932337634E-1,2.310433710E-1,4.295949340E-2,5.463571201E-1
2.816860167E0,-6.133792077E-1,4.445839790E-1,-1.982019580E0,2.121860170E0
2.826830167E0,-8.512860404E-1,9.976618749E-1,-1.162810634E0,1.752753750E0
2.836800167E0,-4.451583217E-1,8.221594512E-1,-9.817697275E-1,1.355722646E0
2.846770167E0,-1.961289885E-1,1.189985569E0,-3.279714369E0,3.494432511E0
2.856740167E0,6.698380217E-2,1.993111163E-2,-4.035082245E0,4.035687402E0
2.866711167E0,7.752165422E-2,-9.005884472E-1,-2.189588719E0,2.368832606E0
2.876681167E0,-3.383121501E-1,-5.249846560E-1,-1.395777154E-1,6.399577631E-1
2.886651167E0,-9.747353809E-1,-2.621862262E-2,6.675339264E-1,1.181692863E0
2.896621167E0,-1.085052606E0,2.239436817E-1,1.374026681E0,1.765060693E0
2.906591167E0,-1.067516660E0,-1.204208921E0,1.598315349E0,2.268109984E0
2.916561167E0,-6.915892254E-1,-7.051169050E-1,2.462946051E0,2.653599208E0
2.926531167E0,-1.994963269E-1,1.928593571E0,1.818332625E0,2.658120667E0
2.936502167E0,-2.103828192E-3,1.546550826E0,1.270111134E0,2.001251152E0
2.946472167E0,-3.352954254E-2,-1.654054517E0,1.505470920E0,2.236842253E0
2.956442167E0,1.514091177E-1,-1.242405857E0,1.176115973E0,1.717482406E0
2.966412167E0,-7.959080842E-1,1.960080242E0,-2.002842100E0,2.913204543E0
2.976382167E0,-1.151569216E0,-1.017824829E-1,4.218847954E-1,1.230633216E0
2.986352167E0,-1.390751911E0,-3.730128899E-1,1.335601119E0,1.963965336E0
2.996322167E0,-1.962253360E0,5.531027466E-2,-8.414698809E-1,2.135783003E0
3.006293167E0,-2.393509195E0,-1.104921152E0,-4.315999442E-1,2.671332165E0
3.016263167E0,-1.531908813E0,1.050222789E0,9.394353014E-1,2.081406064E0
3.026233167E0,-2.579235476E0,6.064746693E-1,-1.439637119E0,3.015430682E0
3.036203167E0,-2.663567528E0,-7.176688305E-1,-2.448754858E0,3.688636724E0
3.046173167E0,-1.740331499E0,-2.587675347E0,-1.509856916E0,3.464748957E0
3.056143167E0,-1.615702921E0,-2.367188539E0,2.217382874E0,3.623653449E0
3.066114167E0,-1.617463518E0,4.087165734E-1,-3.104947525E-1,1.696951520E0
3.076084167E0,-3.182681872E-1,-1.238142944E0,-4.977173352E-1,1.371865567E0
3.086054167E0,-8.853853941E-2,-2.383716863E0,3.991378402E0,4.649843729E0
3.096024167E0,-2.238825783E0,1.259214555E0,-5.324597365E-1,2.623256670E0
3.105994167E0,-1.038951988E0,2.959148372E0,-4.715761882E0,5.663425682E0
3.115964167E0,-5.486774276E-1,-1.615954644E0,-2.623843299E0,3.130001596E0
3.125934167E0,-1.389215116E-1,-3.748480678E0,3.050620460E0,4.834944857E0
3.135905167E0,-1.933201177E0,2.106462362E0,5.266598833E-1,2.907201594E0
3.145875167E0,-5.739656121E-1,3.608145456E0,-1.482083226E0,3.942679399E0
3.155845167E0,5.689371528E-1,-2.270072426E0,2.511513609E-1,2.353719463E0
3.165815167E0,2.955842064E-1,-2.425797520E0,-5.943203545E-1,2.514971236E0
3.175784625E0,1.765594541E-1,9.650773886E-1,-2.010379745E0,2.237001191E0
3.185754625E0,1.946897694E-1,1.036160820E0,1.700469714E-1,1.067918219E0
3.195725625E0,9.574008715E-1,-2.247522347E0,3.166552035E0,3.999378067E0
3.205695625E0,1.038067451E0,-2.852640462E0,3.202086149E0,4.412312018E0
3.215665625E0,6.979422252E-1,1.331457782E-1,-1.261671263E-1,7.216434658E-1
3.225635625E0,5.496965973E-1,-3.820219874E-2,1.681802478E0,1.769769853E0
3.235605625E0,5.596596681E-1,-2.041833088E-1,4.173326211E0,4.215632981E0
3.245575625E0,7.426402420E-2,-2.555952448E-1,6.238201421E-1,6.782297872E-1
3.255545625E0,-1.789307924E-1,-4.217380303E-1,-2.285212330E0,2.330681142E0
3.265516625E0,5.494248480E-2,-7.811739779E-1,2.646246906E0,2.759687328E0
3.275486625E0,-1.012992543E0,8.683895847E-1,1.937720490E-1,1.348258866E0
3.285456625E0,-4.380603866E-1,1.830501558E0,-1.039434968E0,2.150129742E0
3.295426625E0,4.413471065E-1,-9.113151643E-1,2.298072696E0,2.511258790E0
3.305396625E0,-7.460285573E-1,8.823655996E-1,-1.227697186E0,1.685932395E0
3.315366625E0,-3.265996655E-1,3.167816788E-2,-1.640820513E0,1.673308939E0
3.325337625E0,9.391886220E-1,-2.106831029E0,1.756477854E0,2.899314868E0
3.335307625E0,8.120362399E-1,8.897854239E-1,-1.957151957E0,2.298165515E0
3.345277625E0,-5.275619625E-1,2.331280495E0,-1.272276358E0,2.707743988E0
3.355247625E0,-1.655253927E-1,-9.507525873E-1,1.606691485E0,1.874242958E0
3.365217625E0,2.653729588E-2,-8.563834968E-1,-1.762906868E0,1.960086107E0
3.375187625E0,-6.237268060E-1,-5.802387974E-1,-2.310938324E0,2.462955162E0
3.385157625E0,5.439860603E-1,1.076595193E-1,-1.982986709E0,2.059064762E0
3.395128625E0,1.245073064E0,-8.007250205E-1,-6.732823241E-1,1.626246163E0
3.405098625E0,3.359498019E-1,-1.549500453E-1,9.029059911E-1,9.757617612E-1
3.415068625E0,-1.246575945E-1,-5.098883146E-1,-1.239755899E-1,5.393473427E-1
3.425038625E0,-2.938367660E-1,-1.243176520E-2,-9.888384265E-1,1.031647240E0
3.435008625E0,-5.360965584E-1,5.398026699E-1,-1.060842794E-1,7.681408183E-1
3.444978625E0,-4.263813043E-1,-4.826452598E-1,2.441317785E-1,6.887291113E-1
3.454949625E0,-4.812200010E-2,-2.058930054E0,1.764722428E0,2.712149322E0
3.464919625E0,-2.430016579E-1,1.763880429E0,1.297263265E-1,1.785259895E0
3.474889625E0,4.105169311E-1,6.604365760E-1,-1.063041347E0,1.317101943E0
3.484859625E0,2.245669949E-1,-1.147791476E0,6.174121785E-1,1.322517828E0
3.494829625E0,-5.244067318E-1,2.816121385E-1,-1.364675229E0,1.488840589E0
3.504799625E0,-4.521966152E-1,1.725236473E0,-1.409244461E0,2.273079985E0
3.514770625E0,6.286648527E-2,-6.631663486E-1,5.546089894E-1,8.667946308E-1
3.524740625E0,2.739757479E-1,-1.197760319E0,2.644973382E0,2.916432184E0
3.534710625E0,9.898985267E-2,2.682129514E-1,1.234374121E0,1.267050374E0
3.544680625E0,8.658961858E-1,2.612391235E0,-4.965315199E-1,2.796588586E0
3.554650625E0,6.174338863E-1,2.032219973E0,-2.522477138E0,3.297579951E0
3.564620625E0,4.455182909E-1,-4.370217749E-1,-1.659199482E0,1.772686520E0
3.574591625E0,-1.315538006E-1,1.239456229E0,-2.083629570E0,2.427976592E0
3.584561625E0,2.487674510E-1,7.860739446E-1,-2.033299077E0,2.194106339E0
3.594531625E0,1.107461110E0,-1.635025046E0,-1.389728794E0,2.414771859E0
3.604501625E0,8.356508050E-1,-1.431803604E0,7.826398748E-1,1.833275484E0
3.614471625E0,9.099578062E-1,1.964499275E0,1.153523501E0,2.453140249E0
3.624441625E0,8.720747924E-1,3.523780659E-1,-2.026633251E-1,9.621627555E-1
3.634412625E0,3.896987969E-1,-6.253705314E-1,-3.420486086E0,3.498953918E0
3.644382625E0,1.963537262E0,-1.134727626E0,-1.007673478E0,2.481630755E0
3.654352625E0,1.821235475E0,-1.036118135E0,1.756580765E0,2.734230318E0
3.664322625E0,1.968987598E0,4.126076031E-1,1.450571412E-1,2.016977632E0
3.674292625E0,2.349134676E0,1.020204353E0,1.125997149E0,2.797699095E0
3.684262625E0,2.420716290E0,5.023202634E-1,1.844468510E0,3.084518939E0
3.694233625E0,1.676454761E0,1.925523198E-1,7.943500936E-2,1.689345105E0
3.704203625E0,6.847805813E-1,1.257125053E-1,-3.680237532E-3,6.962338850E-1
3.714173625E0,8.252539439E-1,3.995419997E-1,6.574901640E-1,1.128260252E0
3.724143625E0,1.592838554E0,2.238255680E-1,-3.702696687E-1,1.650555110E0
3.734113625E0,9.485610509E-1,-4.783452174E-1,-2.224444556E-1,1.085386452E0
3.744084625E0,1.168110550E0,-3.815121102E-1,9.294581974E-1,1.540755103E0
3.754054625E0,8.865122256E-1,-9.314059049E-2,-7.489979196E-1,1.164292480E0
3.764024625E0,1.149967736E0,-7.419163567E-1,-1.543936828E0,2.063154527E0
3.773994625E0,5.657033867E-1,-1.207841796E-1,-1.179568169E0,1.313769464E0
3.783964625E0,7.416615643E-1,1.108573616E-2,-5.327708083E-1,9.132521578E-1
3.793934625E0,1.338311742E0,1.178737280E-1,1.151667595E-1,1.348419785E0
3.803905625E0,6.805365260E-1,-3.035348117E-1,-1.105693277E0,1.333349530E0
3.813875625E0,1.358084540E-1,-1.787666318E-1,-1.383200378E0,1.401301085E0
3.823845625E0,1.355391459E0,7.559353486E-1,-1.416727728E-1,1.558395146E0
3.833815625E0,1.315645010E0,1.582905596E0,5.542616647E-1,2.131599848E0
3.843785625E0,6.742906764E-1,9.294339314E-1,-1.682105364E0,2.036662418E0
3.853755625E0,7.256733763E-1,-1.596136676E0,6.031402946E-3,1.753365483E0
3.863726625E0,1.041859370E0,-2.813381964E-1,2.922520244E-1,1.118048914E0
3.873696625E0,1.552827958E0,1.628569427E0,-1.168305262E0,2.535438864E0
3.883666625E0,1.797032680E0,1.686106029E-1,1.787028387E0,2.539926464E0
3.893636625E0,1.542288936E0,-1.380989546E-1,1.210285932E-1,1.553182026E0
3.903606625E0,1.758783119E0,9.210949248E-1,-1.823600382E-1,1.993737471E0
3.913577625E0,1.117774502E0,1.607218027E0,1.781013941E0,2.646616761E0
3.923547625E0,1.623840199E0,9.951347083E-1,-1.641222802E0,2.514112640E0
3.933517625E0,1.002398850E0,-1.341779287E0,-2.647246780E0,3.132585294E0
3.943487625E0,-2.912546173E-1,-4.314569798E-1,-2.745446674E0,2.794362506E0
3.953457625E0,-3.804906382E-1,1.134954791E0,-5.572536265E0,5.699654018E0
3.963427625E0,-6.407514129E-1,-6.770871073E-1,-3.639340351E0,3.756834774E0
3.973398625E0,3.566131676E-1,-1.817849060E0,-1.153597176E-1,1.856086211E0
3.983368625E0,-1.105611855E0,-2.089872642E0,-1.712033753E0,2.919076019E0
3.993338625E0,1.272540945E0,-1.532602877E0,4.961108712E0,5.346104347E0
4.003308625E0,2.768960082E0,5.605629167E-1,5.478881997E0,6.164374961E0
4.013278625E0,2.348089048E0,3.082263837E0,8.383164775E-1,3.964422663E0
4.023249625E0,6.990338273E-1,-1.116169441E0,2.234237473E0,2.593511056E0
4.033219625E0,2.230790978E-1,-1.342881487E0,1.112376060E0,1.757974821E0
4.043189625E0,9.506983544E-1,2.695352700E0,-4.545105631E0,5.369053802E0
4.053159625E0,1.042873716E0,1.338360128E0,-2.778993904E0,3.256009910E0
4.063129625E0,-5.280498030E-1,-3.093936926E0,-6.943825865E-1,3.214568318E0
4.073099625E0,-9.515521210E-2,1.006481230E-2,-5.590107733E-1,5.671409521E-1
4.083070625E0,1.490981519E0,1.185764756E0,2.245847120E0,2.944977628E0
4.093040625E0,2.133520645E0,5.238058573E-1,2.493790113E0,3.323442801E0
4.103010625E0,9.707918724E-1,7.191610399E-1,2.241403821E0,2.546275819E0
4.112980625E0,9.237785775E-2,1.005879844E0,1.430269879E-1,1.020188536E0
4.122950625E0,-6.768992655E-1,5.593621910E-1,4.283833909E-1,9.770317323E-1
4.132921625E0,1.000884275E0,1.382464506E0,1.537489688E0,2.297139957E0
4.142891625E0,-5.216882151E-2,2.172787914E0,-6.939329356E-1,2.281506482E0
4.152861625E0,-1.005360977E0,-5.092892674E-1,-6.297930729E-1,1.291032752E0
4.162831625E0,1.706396160E0,3.897520065E-1,1.297116500E0,2.178578824E0
4.172801625E0,-1.172315210E0,2.082882296E0,2.138443708E-2,2.390225701E0
4.182771625E0,2.054214275E0,1.004056682E0,4.560348737E-1,2.331500357E0
4.192742625E0,9.659349559E-1,-3.896637136E-1,1.121729851E-1,1.047592921E0
4.202712625E0,8.362695135E-2,9.110377139E-1,-1.670265922E0,1.904408421E0
4.212682625E0,1.773019774E-1,1.139419140E0,-1.989651366E0,2.299657480E0
4.222652625E0,-1.679027975E-3,-7.731422424E-2,-2.150138140E-1,2.284978088E-1
4.232622625E0,-3.794388337E-1,-1.912562844E-1,-1.790136766E-1,4.610842562E-1
4.242593625E0,-4.121426763E-1,-1.147975078E0,-4.402164012E-1,1.296726203E0
4.252563625E0,-3.307969431E-1,-1.597861312E0,1.117081314E0,1.977487814E0
4.262533625E0,-1.884053282E-2,1.071377138E0,5.753788841E-1,1.216250302E0
4.272503625E0,-8.794987097E-2,4.481031257E-1,1.356994327E0,1.431769951E0
4.282473625E0,-2.054696962E-1,-1.800118548E0,1.151779861E0,2.146914398E0
4.292444625E0,5.042358112E-1,-1.385463835E0,-2.947616494E-1,1.503545218E0
4.302414625E0,8.763905492E-1,3.017434587E0,7.985226667E-1,3.242007146E0
4.312384625E0,-7.532578354E-1,1.065453616E0,-1.078343511E0,1.692753231E0
4.322354625E0,-7.943573295E-1,-1.911744819E0,-3.847701788E-2,2.070568110E0
4.332324625E0,-7.864343523E-1,1.899589919E0,-3.701299202E-1,2.088999045E0
4.342294625E0,-1.144294256E0,2.431054460E0,-2.545928566E0,3.701511501E0
4.352265625E0,-9.414658932E-1,-1.201792559E0,2.883619888E0,3.262809685E0
4.362235625E0,-9.257352751E-1,3.781226840E0,1.270546167E0,4.094990815E0
4.372205625E0,-1.000761996E0,1.328148258E0,8.314845908E-1,1.859265713E0
4.382175625E0,-1.906098016E-1,-2.192958177E0,4.030321442E0,4.592263994E0
4.392145625E0,-4.134968915E-1,3.309523767E0,-1.764435915E0,3.773216312E0
4.402116625E0,-1.701713125E0,2.183878036E0,-1.161778015E0,3.002478808E0
4.412086625E0,-1.388942928E0,-6.740678975E-1,2.493490151E0,2.932750095E0
4.422056625E0,-1.707744674E0,2.110713288E-1,-9.212095302E-1,1.951811972E0
4.432026625E0,-1.872412207E0,1.064622434E0,-2.106533698E0,3.012778223E0
4.441996625E0,-1.084322142E0,-3.693499017E-1,1.748674160E0,2.090462910E0
4.451967625E0,-1.468046693E0,-1.319567469E0,3.795415986E0,4.278037155E0
4.461937625E0,-1.334246319E0,6.784708509E-1,-2.257452089E-1,1.513769082E0
4.471907625E0,-8.049253678E-1,-3.051059586E-1,-6.182155859E-1,1.059804229E0
4.481877625E0,-1.477650306E0,-2.255254997E0,-7.589025182E-1,2.800992424E0
4.491847625E0,-6.658179148E-1,-8.154333991E-1,8.686214268E-1,1.364825376E0
4.501817625E0,7.987001297E-1,-4.995565769E-1,-5.842491102E-1,1.108524106E0
4.511788625E0,2.505697091E-1,-2.007084255E0,-4.450824541E-1,2.071055474E0
4.521758625E0,-2.548484091E-1,-3.049179414E0,9.786116463E-1,3.212494912E0
4.531728625E0,-4.489071178E-1,-8.150226322E-1,1.185423571E-1,9.379934871E-1
4.541698625E0,-7.081000082E-1,1.199047583E-1,2.514872249E0,2.615409185E0
4.551668625E0,-1.005690541E0,-7.478884104E-1,4.005314071E0,4.196819193E0
4.561639625E0,-7.941374011E-1,-5.005652216E-1,1.761720468E0,1.996216110E0
4.571609625E0,-8.603923479E-1,1.923548301E0,6.568358606E-1,2.207203299E0
4.581579625E0,-1.558346267E0,2.410990324E0,-2.828808088E0,4.030319172E0
4.591549625E0,-1.836546263E0,4.989791644E-1,-4.482183743E0,4.869481850E0
4.601519625E0,-2.027264896E0,-1.305135371E0,-3.970160610E0,4.644928047E0
4.611490625E0,-7.979803374E-1,-1.961739682E0,-1.498262472E0,2.594221585E0
4.621460625E0,-4.887420054E-1,6.108071637E-1,-1.391811572E0,1.596588110E0
4.631430625E0,-1.293852876E0,4.833919492E-1,9.910515976E-1,1.699972444E0
4.641400625E0,-7.526117912E-1,-4.560109001E-1,3.035155159E0,3.160148302E0
4.651370625E0,-6.420922525E-1,1.703239248E0,-1.475136734E0,2.342932944E0
4.661340625E0,-8.038414402E-1,-7.514540425E-1,2.015875543E0,2.296649395E0
4.671311625E0,-4.061708419E-1,4.808916798E-1,1.838387405E0,1.943167469E0
4.681281625E0,-1.554209216E0,-3.985754550E-3,2.366170539E0,2.830961885E0
4.691251625E0,-5.826602755E-1,-1.148487002E0,3.854677516E0,4.064117880E0
4.701221625E0,-9.211098352E-1,1.388303535E0,1.669993442E0,2.358963359E0
4.711191625E0,-2.196653325E0,-6.339747092E-1,3.634956694E0,4.294196075E0
4.721162625E0,-1.299945382E0,-2.648053696E0,4.066978807E0,5.024177842E0
4.731132625E0,-1.639498019E0,-6.272495341E-1,6.039477950E-1,1.856380530E0
4.741102625E0,-1.912352198E0,3.271984935E-2,-1.127103442E0,2.220027857E0
4.751072625E0,-1.034228023E0,-1.318117359E-1,-6.608412033E-1,1.234387716E0
4.761042625E0,-1.694289792E0,-2.097849414E0,-1.449897228E0,3.061664912E0
4.771013625E0,-9.306647703E-2,-2.932952846E0,-1.456259583E0,3.275906858E0
4.780983625E0,3.512423904E-1,1.911089346E-1,2.502491355E-2,4.006495826E-1
4.790953625E0,-1.017789745E-1,-2.210467372E0,4.420599114E0,4.943502957E0
4.800923625E0,-8.143500562E-1,-2.179317500E0,1.629897915E0,2.840626338E0
4.810893625E0,-1.205476743E0,3.869020736E-1,-2.351803345E0,2.670926125E0
4.820863625E0,-1.876188924E0,9.560244370E-1,-8.096464097E-2,2.107278547E0
4.830834625E0,-2.155357657E0,-9.012462589E-1,1.816176172E0,2.959105834E0
4.840804625E0,-1.786373498E0,-9.603160009E-1,3.143235678E0,3.740757627E0
4.850774625E0,-1.093055105E0,8.509183967E-1,1.310217186E0,1.906698890E0
4.860744625E0,-3.255529408E-1,-5.400815821E-1,1.510569692E-1,6.484528051E-1
4.870714625E0,-9.732308923E-1,1.156207081E0,3.854654127E-1,1.559672006E0
4.880685625E0,-2.984431733E0,4.282580266E0,-5.443293504E0,7.541668958E0
4.890655625E0,-2.691497923E0,-7.629739344E-3,-2.399864534E0,3.606046182E0
4.900625625E0,-6.768722221E-2,-2.286218343E0,2.566477436E-1,2.301574230E0
4.910595625E0,-1.857280344E-2,-1.354269817E0,2.871861722E0,3.175213605E0
4.920565625E0,-1.140217870E0,-1.393721565E0,2.964607918E0,3.468639027E0
4.930536625E0,6.130162418E-2,1.658670309E0,1.377275979E0,2.156811119E0
4.940506625E0,-1.175392819E0,-3.776541173E-2,2.002874844E0,2.322602451E0
4.950476625E0,4.356332074E-1,1.756615849E0,-4.503975731E-1,1.865029089E0
4.960446625E0,5.167386201E-1,4.081689817E-1,-5.288829947E-1,8.445933584E-1
4.970416625E0,-2.017187074E0,7.729943079E-1,9.231929058E-1,2.349223070E0
4.980387625E0,-2.471663372E-1,7.992032826E-1,9.926233292E-2,8.424191925E-1
4.990357625E0,-1.061431024E0,-4.326030341E-1,-1.784459120E-1,1.160010408E0
5.000327625E0,-3.566023284E0,2.941918382E-1,2.307862104E0,4.257851382E0
5.010297625E0,-4.942155840E-1,8.601075885E-1,1.122443211E0,1.497969582E0
5.020267625E0,-1.674534974E0,-1.518269598E0,-6.826437163E-1,2.361188767E0
5.030238625E0,-1.729100313E0,-2.333272934E0,-2.148804975E-1,2.912065265E0
5.040208625E0,4.986463116E-1,-7.370622906E-1,-1.678156155E0,1.899504421E0
5.050178625E0,1.737773488E-1,-2.907487637E0,5.043708819E-1,2.956023159E0
5.060148625E0,1.295944864E0,-4.011045511E0,4.834955619E0,6.414417746E0
5.070118625E0,1.721128512E0,-2.944540858E-1,1.774350454E0,2.489438912E0
5.080089625E0,-1.151557813E0,1.062427682E0,7.297167259E-1,1.728387826E0
5.090059625E0,-6.577265377E-1,1.286728044E0,2.569477057E-1,1.467751812E0
5.100029625E0,-6.113639648E-1,-7.350037783E-1,-1.179413218E0,1.518226594E0
5.109999625E0,-2.025948980E0,-1.318990933E0,-3.112711458E0,3.941215418E0
5.119969625E0,-1.591351169E0,7.050408912E-1,-3.424342909E0,3.841302587E0
5.129939625E0,-2.049170905E0,-2.544730179E0,-1.256932679E0,3.500661772E0
5.139910625E0,-5.041599436E-1,-1.696831869E0,-1.937480754E-1,1.780717259E0
5.149880625E0,2.927535693E-1,8.935837752E-1,-3.275010284E0,3.407328716E0
5.159850625E0,5.446269152E-1,-2.831076223E0,3.210021991E0,4.314609164E0
5.169820625E0,2.878204197E0,-3.235969595E0,1.150404713E1,1.229221945E1
5.179792667E0,3.102939299E0,1.390200080E0,9.353064070E0,9.951919215E0
5.189762667E0,-1.307421340E-1,1.654566148E-1,4.198949295E0,4.204241260E0
5.199732667E0,2.191834635E0,1.185923215E0,4.635598894E0,5.263015300E0
5.209702667E0,-5.702342699E0,2.920576922E0,-7.472058064E0,9.842669025E0
5.219672667E0,-2.253342958E0,-2.994493622E-1,-2.577369044E0,3.436576145E0
5.229643667E0,-1.009576892E0,2.686168478E0,-7.001491690E0,7.566745171E0
5.239613667E0,-3.580144894E0,1.110077519E0,-4.502087080E0,5.858199181E0
5.249583667E0,-7.815366514E-1,-4.694790843E-1,-6.442555761E-1,1.116367052E0
5.259553667E0,2.637155070E0,-1.061536859E0,-1.680143039E0,3.302170195E0
5.269523667E0,2.182480844E0,-7.661402017E-1,-4.460630322E-1,2.355666715E0
5.279494667E0,2.431791501E0,-2.185731896E0,3.052120271E0,4.472859485E0
5.289464667E0,3.175483657E0,9.186572206E-1,1.998492941E0,3.862848894E0
5.299434667E0,1.068165409E0,-1.087289751E-1,-1.882867759E-1,1.090069374E0
5.309404667E0,-7.866604934E-1,-2.445728047E0,5.098894840E-1,2.619238000E0
5.319374667E0,-1.288035481E0,5.204235354E-1,1.692154974E-1,1.399467735E0
5.329345667E0,-1.532251313E0,1.272483349E0,1.777524907E0,2.669569770E0
5.339315667E0,-1.079946379E-1,-3.206351693E0,1.833365816E0,3.695075674E0
5.349285667E0,-5.333604269E-1,-2.582730356E0,-2.171186362E0,3.415994681E0
5.359255667E0,-1.091557926E0,6.272583050E-1,-1.130296606E0,1.691898964E0
5.369225667E0,-7.733914800E-2,1.104940156E0,-1.296776192E0,1.705433254E0
5.379196667E0,7.558022513E-1,-2.625818196E0,2.700676298E0,3.841849907E0
5.389166667E0,1.358532437E0,-1.862946003E0,5.377904091E0,5.851327251E0
5.399136667E0,1.720137409E0,-4.152961528E-1,6.742231411E-1,1.893652673E0
5.409106667E0,2.093694090E0,4.778259847E-1,4.842354101E-1,2.201444196E0
5.419076667E0,2.714678333E0,-7.025488079E-1,-6.195850039E-1,2.871748397E0
5.429047667E0,1.898485672E0,6.083273596E-1,-4.824609556E0,5.220265069E0
5.439017667E0,1.047911823E0,1.431912654E0,-6.494539263E0,6.732572560E0
5.448987667E0,4.708470404E-2,-1.617935681E0,-2.521666714E0,2.996453880E0
5.458957667E0,-1.190816312E0,-3.906454611E0,-5.485951281E-1,4.120605262E0
5.468928667E0,-1.251283831E0,4.324030593E-1,2.553612392E0,2.876390078E0
5.478898667E0,8.967333779E-2,1.234147834E0,1.513550602E0,1.954992995E0
5.488868667E0,-7.366957433E-1,1.254350549E0,-3.249533381E0,3.560278516E0
5.498838667E0,1.158859305E0,-5.245993245E-1,8.481999092E0,8.576856530E0
5.508808667E0,3.520737768E0,6.124654341E-1,7.596123701E0,8.394748574E0
5.518779667E0,2.206317457E0,3.462243392E0,2.154073316E0,4.636269823E0
5.528749667E0,8.290063215E-1,7.001456022E-3,4.909749109E0,4.979250627E0
5.538719667E0,4.067941843E0,-2.243355621E0,9.469782096E-1,4.741050834E0
5.548689667E0,1.479940660E0,-2.642542402E0,-4.166591388E0,5.151091001E0
5.558659667E0,-6.050957131E-1,9.614877829E-1,-5.178059708E0,5.301217023E0
5.568630667E0,9.726156190E-1,2.288424790E-1,-7.168955362E-1,1.229751695E0
5.578600667E0,-2.910027302E-1,-1.173111381E0,-2.099910557E-1,1.226771839E0
5.588570667E0,-1.768570408E-1,-2.746557937E0,-9.939494777E-1,2.926225295E0
5.598540667E0,8.538970415E-2,-2.220829223E0,2.691901381E0,3.490803186E0
5.608511667E0,1.877930663E0,1.609875586E0,1.641449089E0,2.968615517E0
5.618481667E0,2.534254015E0,2.729453954E0,3.383321768E-1,3.739897186E0
5.628451667E0,1.844791422E0,3.925765041E-1,4.739723772E-1,1.944742018E0
5.638421667E0,2.822031165E0,-1.141930519E0,-2.473648794E0,3.922601632E0
5.648391667E0,6.679485670E-1,4.103225112E-2,-2.694337916E0,2.776201675E0
5.658362667E0,1.603993580E-1,7.166189629E-1,-2.647846119E0,2.747791798E0
5.668332667E0,2.934918534E-1,2.290412843E-1,-8.338883811E-1,9.132180518E-1
5.678302667E0,-2.026348199E-1,3.499046937E-1,1.987427085E0,2.028142151E0
5.688272667E0,2.034460845E-1,-3.048989671E-1,1.310923530E0,1.361203214E0
5.698242667E0,7.747364858E-1,-7.021240076E-1,-8.608031148E-1,1.354317816E0
5.708213667E0,1.202069863E0,-1.458058771E-1,-1.186938000E0,1.695598161E0
5.718183667E0,1.753829358E0,-1.757407562E0,1.866826508E0,3.106354771E0
5.728153667E0,2.194022224E0,1.176370327E0,3.903437448E-1,2.519910495E0
5.738123667E0,3.095180629E0,-2.203874052E-1,3.169258711E0,4.435415934E0
5.748093667E0,1.712863180E0,-3.027215225E0,1.876128843E0,3.951935188E0
5.758064667E0,1.655429635E0,-2.123826546E0,1.182450262E0,2.940964994E0
5.768034667E0,1.127826377E0,1.111049034E0,3.411530491E0,3.760978939E0
5.778004667E0,8.699841935E-2,1.905191844E0,1.567905734E0,2.468937642E0
5.787974667E0,1.486597935E-1,-6.377052328E-1,-7.410685104E-1,9.889136642E-1
5.797945667E0,1.341754546E-1,-5.732572219E-1,9.391797781E-2,5.961941643E-1
5.807915667E0,-2.802036356E-1,2.132003585E0,-1.457765241E0,2.597890079E0
5.817885667E0,1.793246170E0,1.266465687E0,5.857787418E-1,2.272180428E0
5.827855667E0,1.751548359E0,1.087747295E0,4.988955492E-1,2.121323314E0
5.837825667E0,9.794509410E-1,1.623502815E0,-1.009756256E0,2.148183705E0
5.847796667E0,1.083019383E0,-1.267326690E0,-9.216007090E-1,1.904834846E0
5.857766667E0,4.266515187E-1,-1.966523874E-1,6.851223511E-1,8.307203596E-1
5.867736667E0,1.901045291E-1,-9.141396618E-1,2.579624900E0,2.743402209E0
5.877706667E0,-5.383918829E-1,-3.808462586E0,2.030553224E0,4.349413694E0
5.887677667E0,6.696072759E-1,-2.478431817E0,3.901492079E0,4.670400263E0
5.897647667E0,9.925109164E-1,-9.514951837E-1,2.232634751E0,2.622037173E0
5.907617667E0,1.080379803E0,-1.013081860E0,-8.388585144E-1,1.702127781E0
5.917587667E0,2.807541180E0,-1.344140685E0,1.745989704E0,3.568960872E0
5.927557667E0,8.881636255E-1,4.732318273E-1,1.116702999E0,1.503265970E0
5.937528667E0,8.332193866E-1,-1.301344036E0,2.301668733E-1,1.562282829E0
5.947498667E0,1.604027786E0,-8.143364614E-1,1.037971995E0,2.076881044E0
5.957468667E0,8.337949719E-1,-5.090349135E-1,1.070044557E0,1.448905088E0
5.967438667E0,-3.849482265E-1,-1.684643933E0,5.820306766E-1,1.823450034E0
5.977408667E0,-2.688573511E-1,-3.744653383E-1,-5.161769950E-1,6.920601528E-1
5.987379667E0,-4.292570746E-1,-6.785123661E-1,7.191297573E-1,1.077862827E0
5.997349667E0,-8.455037288E-3,-1.670678151E0,2.735521610E0,3.205357304E0
6.007319667E0,-2.694111921E-2,-1.179693884E0,1.419339094E0,1.845786268E0
6.017289667E0,6.908489679E-1,6.547358331E-1,4.030041361E-1,1.033616777E0
6.027259667E0,1.494763498E0,1.499664634E0,5.767810464E-1,2.194536012E0
6.037230667E0,5.601923859E-1,1.216949126E0,-9.565851849E-1,1.646157921E0
6.047200667E0,5.197942654E-1,8.887159681E-1,-3.551630362E0,3.697848074E0
6.057170667E0,-6.558415416E-1,-4.034666508E-1,-3.525074648E0,3.608194110E0
6.067140667E0,-8.008973671E-1,-2.126149645E0,-1.281790363E0,2.608627118E0
6.077111667E0,-6.124594407E-1,8.586981171E-1,-5.864160883E-1,1.206794453E0
6.087081667E0,-6.086537804E-1,2.927104461E-1,1.313194004E0,1.476691342E0
6.097051667E0,-4.846893368E-1,-1.721331410E0,2.900071614E0,3.407098611E0
6.107021667E0,6.267533979E-1,-2.026109925E-1,2.025476671E0,2.129888913E0
6.116991667E0,9.166098911E-2,-1.710935938E0,1.769963872E-1,1.722507255E0
6.126962667E0,3.664195696E-1,-2.449606505E0,-7.219481152E-1,2.579931087E0
6.136932667E0,8.810109459E-1,-1.650898190E0,2.868510683E0,3.424908562E0
6.146902667E0,7.346573308E-1,-2.110471506E0,2.910274420E0,3.669265400E0
6.156872667E0,5.186800784E-1,-8.905721667E-1,2.529141210E0,2.731062626E0
6.166843667E0,7.651569193E-1,-4.091489750E-1,2.760816665E0,2.893955192E0
6.176812792E0,3.120280387E-1,-1.360778645E0,5.109671259E-1,1.486663183E0
6.186782792E0,-9.712934174E-2,-1.022040379E0,2.491387492E-1,1.056442503E0
6.196752792E0,1.760990589E-1,-1.141029463E0,4.725766468E-1,1.247512646E0
6.206722792E0,-6.831188757E-1,-8.989462566E-1,-1.103837956E0,1.578991451E0
6.216693792E0,-1.254251146E0,-1.610628415E0,-3.241159583E0,3.830454970E0
6.226663792E0,-1.555084691E0,-2.559072814E0,-2.694896910E0,4.028599188E0
6.236633792E0,-7.608307837E-1,-3.964463668E0,1.619591612E0,4.349587641E0
6.246603792E0,-6.429824911E-2,-2.804696510E0,2.646266786E0,3.856576809E0
6.256573792E0,6.300944238E-1,-1.091697674E0,2.403038403E0,2.713561564E0
6.266544792E0,6.298774921E-1,6.044120640E-2,1.913204284E0,2.015130126E0
6.276514792E0,-5.416055857E-1,-1.078762756E0,-2.329887396E-1,1.229369532E0
6.286484792E0,6.888575524E-2,-1.890726417E0,3.648732734E-1,1.926843050E0
6.296454792E0,-7.349292263E-2,-2.387415227E-1,1.154064953E-1,2.751679188E-1
6.306425792E0,-7.111578096E-1,3.717656788E-1,-1.751926382E0,1.926966838E0
6.316395792E0,1.209278749E-1,-1.784812292E0,-1.176514168E0,2.141112808E0
6.326365792E0,-8.565427604E-1,-1.566347159E0,9.228321326E-1,2.009658694E0
6.336335792E0,-1.125140166E0,3.333062026E-1,-6.062422425E-1,1.320819092E0
6.346305792E0,-8.869692586E-1,-6.251784503E-2,8.657270551E-1,1.241010186E0
6.356276792E0,-2.501144303E-1,-9.068818054E-1,4.022773857E0,4.131307461E0
6.366246792E0,-4.411123408E-1,-1.291875055E-1,1.272568134E0,1.353033320E0
6.376216792E0,-8.480484371E-1,1.132478495E0,8.804456663E-1,1.666396791E0
6.386186792E0,-1.880130532E-1,6.721251601E-1,1.161164643E0,1.354771001E0
6.396156792E0,-2.180594824E-2,-1.060158670E-2,1.577757123E0,1.577943419E0
6.406127792E0,-5.516738333E-2,-1.061632168E0,3.679132408E-1,1.124929533E0
6.416097792E0,-6.700442822E-1,7.018003643E-2,-3.189048028E-1,7.453756442E-1
6.426067792E0,-3.323935984E-1,6.534649408E-1,-1.070935088E-1,7.409257404E-1
6.436037792E0,-6.108549647E-1,-1.141253704E-1,5.823768318E-1,8.516637613E-1
6.446008792E0,-1.046993225E0,-2.575358772E0,-6.865215898E-3,2.780056609E0
6.455978792E0,-6.906301358E-1,-1.970368418E0,-2.341915703E0,3.137497546E0
6.465948792E0,-1.628216401E0,2.763581228E-1,-2.331166767E0,2.856886585E0
6.475918792E0,-2.106172341E0,-1.173547876E0,-1.081747760E0,2.642603784E0
6.485888792E0,-1.752118024E0,-3.303971836E0,-1.736651700E0,4.123361079E0
6.495859792E0,-1.090231339E0,-4.371059749E0,-1.639518923E0,4.794036921E0
6.505829792E0,-7.901757663E-1,-3.319878309E0,5.239830279E-1,3.452611756E0
6.515799792E0,-5.534293136E-1,-1.989354035E0,2.185761716E0,3.006886723E0
6.525769792E0,3.049689876E-1,-9.103497890E-1,5.806144810E-1,1.121987521E0
6.535740792E0,1.006129082E0,-3.368570412E0,2.671715038E0,4.415611351E0
6.545710792E0,9.876257139E-1,-2.943058881E0,1.634540604E0,3.508378987E0
6.555680792E0,4.300403456E-1,-1.373548087E0,-4.578773314E-1,1.510371046E0
6.565650792E0,-3.260759743E-1,-8.895524123E-1,6.268846679E-1,1.136051681E0
6.575620792E0,-2.457223673E-1,3.666271457E-1,3.711227775E-1,5.766515947E-1
6.585591792E0,-1.285249283E0,-1.121038710E0,7.650689918E-1,1.869204128E0
6.595561792E0,-1.737691481E0,-1.216336046E0,8.538104296E-2,2.122812988E0
6.605531792E0,-1.765203654E0,7.902342385E-1,-1.022418986E0,2.187636779E0
6.615501792E0,-2.181114057E0,9.120732558E-1,-5.234830910E-1,2.421398501E0
6.625471792E0,-9.944828899E-1,-7.448545825E-1,7.646240187E-1,1.458922362E0
6.635442792E0,-6.496168882E-1,4.998425058E-1,3.257495534E-1,8.820189360E-1
6.645412792E0,-9.568111798E-1,1.878001707E0,-2.932349414E-1,2.127995483E0
6.655382792E0,-2.252898569E-1,9.780219546E-1,-3.759262651E-1,1.071728986E0
6.665352792E0,-7.218340945E-1,-8.014816502E-1,1.456190586E-1,1.088403512E0
6.675322792E0,-4.648491128E-1,-7.724481779E-1,5.782364184E-1,1.071036060E0
6.685293792E0,-7.138962069E-1,-5.282009169E-1,1.681562158E0,1.901655935E0
6.695263792E0,-5.688007665E-1,8.408962691E-1,-9.693397164E-1,1.403659622E0
6.705233792E0,-1.050992429E0,2.137402904E-1,-1.799506930E0,2.094873549E0
6.715203792E0,-7.776504457E-3,-2.085432851E0,-4.143161595E-1,2.126205195E0
6.725174792E0,8.137324440E-1,-2.434633248E0,1.576762512E0,3.012603452E0
6.735144792E0,-3.289877415E-2,-8.682767335E-1,1.423880627E0,1.668059607E0
6.745114792E0,7.855631903E-2,5.353622943E-1,4.571592933E-1,7.083632549E-1
6.755084792E0,-7.856859818E-2,-8.544498226E-1,1.223909360E0,1.494727950E0
6.765054792E0,-2.909938498E-1,-1.583285958E0,5.568186522E-1,1.703384530E0
6.775025792E0,-3.929853706E-1,-1.082405864E0,3.909769982E-1,1.216101545E0
6.784995792E0,-1.398508096E0,-4.669916788E-1,-3.503066897E-2,1.474833303E0
6.794965792E0,-8.248054625E-1,8.076028079E-2,-1.005390140E0,1.302933462E0
6.804935792E0,-6.999964982E-1,-1.298119882E-1,-4.219409287E-1,8.275750100E-1
6.814906792E0,4.164379679E-1,-1.492524015E0,3.166143315E0,3.524983972E0
6.824876792E0,2.582010564E-1,-1.367443301E0,1.996319531E0,2.433487340E0
6.834846792E0,-1.020546854E0,-1.850545813E0,-1.377567755E0,2.522643179E0
6.844816792E0,-6.882221062E-1,-1.692514578E-1,-1.886226985E0,2.014980884E0
6.854786792E0,-5.611644490E-1,-2.814671275E-1,-1.068619591E-1,6.368271045E-1
6.864757792E0,4.762992766E-1,-6.836590853E-1,2.458654194E0,2.596002926E0
6.874727792E0,4.612852348E-1,-1.915936688E-1,6.371763521E-1,8.096208406E-1
6.884697792E0,-7.141860826E-1,5.956973737E-1,-1.458630044E0,1.729889802E0
6.894667792E0,-1.437944350E-1,-4.151812550E-1,-4.268104899E-1,6.125516373E-1
6.904637792E0,-5.816162552E-1,1.189663095E0,7.862002444E-1,1.540028107E0
6.914608792E0,-8.363871887E-1,6.155571494E-1,1.401089349E0,1.743991255E0
6.924578792E0,-1.110843797E0,-6.756191638E-1,-5.524332404E-2,1.301340471E0
6.934548792E0,-1.237783779E0,6.524720836E-1,-1.973316000E0,2.419050338E0
6.944518792E0,-9.102011235E-1,1.234368859E0,-1.783793122E0,2.352456263E0
6.954489792E0,-1.462234853E0,2.192211195E0,-2.591578948E0,3.695971068E0
6.964459792E0,-1.374240105E0,3.572251153E-1,-4.189184445E0,4.423280678E0
6.974429792E0,-5.276846078E-1,-1.926717199E0,-5.691211939E-2,1.998481724E0
6.984399792E0,6.490046847E-1,-2.400914986E0,3.916218292E0,4.639220361E0
6.994369792E0,1.951160315E-1,7.510327506E-1,2.830331288E0,2.934773528E0
7.004340792E0,-1.583363726E0,1.278423536E0,2.140266870E0,2.953328580E0
7.014310792E0,-1.537622420E0,-2.870930260E-1,1.186203589E0,1.963105720E0
7.024280792E0,-1.421188422E0,-6.099183869E-1,6.806930852E-1,1.689710048E0
7.034250792E0,-1.585585668E0,2.745291138E-1,-4.967285711E-1,1.684098399E0
7.044221792E0,-1.449158286E0,2.618090808E-2,-1.660588195E0,2.204154789E0
7.054191792E0,-1.544022636E0,-2.717037392E-1,-1.254380955E0,2.007809852E0
7.064161792E0,-1.334769206E0,-6.250492269E-1,-8.082296294E-1,1.680931439E0
7.074131792E0,-1.024979628E0,-5.282930106E-1,2.975232893E-1,1.190880704E0
7.084101792E0,-2.477251849E-1,-5.099780694E-1,4.400561875E-1,7.177010844E-1
7.094072792E0,1.106804833E-1,-1.372339759E0,-4.877881783E-1,1.460651872E0
7.104042792E0,-6.788716775E-1,9.737932482E-1,-2.412246013E0,2.688507183E0
7.114012792E0,1.991880324E-1,5.507796478E-1,5.432373244E-1,7.988372070E-1
7.123982792E0,-7.918153256E-2,2.074592113E-2,4.129843392E0,4.130654494E0
7.133953792E0,-4.820131758E-1,2.786268425E-1,1.544533244E0,1.641813802E0
7.143923792E0,-8.434447780E-2,-7.172107011E-1,-1.024369617E0,1.253330879E0
7.153893792E0,-5.478703657E-1,-3.526081538E-1,-9.276783049E-2,6.581035770E-1
7.163863792E0,-9.671594359E-1,8.960311273E-1,4.825414717E-1,1.403964183E0
7.173833792E0,-8.984496818E-1,8.619462454E-1,-1.768680993E0,2.162959920E0
7.183804750E0,-9.061854020E-1,-4.682959002E-1,-2.516522918E0,2.715393274E0
7.193774750E0,-2.552115212E-1,-1.302852618E0,-1.820244665E0,2.252964381E0
7.203744750E0,-4.743042067E-2,-1.644972621E0,-5.899548233E-1,1.748208015E0
7.213714750E0,-8.771533915E-1,-7.109062332E-1,2.299996430E-1,1.152252394E0
7.223685750E0,-2.856375079E-1,5.480902210E-1,3.132680869E-1,6.929131046E-1
7.233655750E0,2.376796684E-1,-1.108031871E0,2.209296759E0,2.482985788E0
7.243625750E0,1.411737129E-1,-8.893845972E-1,2.324427851E0,2.492769507E0
7.253595750E0,2.323785827E-1,-3.776617187E-1,2.091925015E0,2.138405585E0
7.263565750E0,-7.811888883E-1,5.463714319E-1,3.661812955E-1,1.021208383E0
7.273536750E0,1.770323476E-1,5.573387620E-1,-2.756827694E-1,6.465043983E-1
7.283506750E0,1.089834751E-1,-1.373832554E-1,4.903030658E-1,5.207193611E-1
7.293476750E0,-4.077685936E-1,1.955683136E-1,1.741061085E-1,4.845979037E-1
7.303446750E0,1.288733639E-1,7.763242972E-1,-1.705026450E0,1.877871921E0
7.313417750E0,-7.707246380E-1,-9.790007785E-1,1.292967315E0,1.795612283E0
7.323387750E0,-1.981687166E-1,-2.599827030E-1,1.504675698E0,1.539776219E0
7.333357750E0,-5.336836318E-1,1.058905904E0,-6.107826054E-2,1.187362828E0
7.343327750E0,-9.727913278E-1,4.543301180E-1,-2.258677080E0,2.500872043E0
7.353298750E0,4.252511106E-1,-4.483878851E-1,-3.460913735E0,3.515652725E0
7.363268750E0,5.388282314E-3,-1.758419130E0,-9.445141929E-1,1.996039561E0
7.373238750E0,2.296493948E-3,-8.470890552E-1,2.282238436E-1,8.772977055E-1
7.383208750E0,8.952515472E-1,5.095281261E-1,-2.838353083E0,3.019493744E0
7.393178750E0,9.807253417E-1,-1.276657384E0,-5.489465457E-1,1.700887587E0
7.403149750E0,1.818166564E0,-2.369617180E0,3.067566276E0,4.281445794E0
7.413119750E0,6.664394007E-1,1.705625789E0,1.645616400E0,2.461981751E0
7.423089750E0,-2.521803977E-1,1.207643575E0,4.040443558E-1,1.298171714E0
7.433059750E0,6.427536457E-1,-1.023017448E0,1.711515689E0,2.094989953E0
7.443030750E0,1.104276497E0,-1.383876316E0,1.255172668E0,2.170253134E0
7.453000750E0,8.556501098E-2,1.681380894E0,-2.463782787E-2,1.683736946E0
7.462970750E0,-2.165503161E-1,1.359291113E0,-4.943662959E-1,1.462519882E0
7.472940750E0,7.967611930E-1,-1.698395999E0,7.355393833E-1,2.015042321E0
7.482911750E0,1.072306699E0,-1.374550592E0,4.141927832E-1,1.791866805E0
7.492881750E0,1.090582464E0,1.976899758E-1,-4.631024033E-1,1.201214083E0
7.502851750E0,1.191984220E0,2.660737476E-1,7.386559492E-1,1.427317145E0
7.512821750E0,1.171756947E0,6.104630551E-1,1.427138110E0,1.944840011E0
7.522792750E0,1.669856617E0,-1.669956020E-1,6.409507298E-1,1.796420466E0
7.532762750E0,1.026149363E0,-3.092817476E-1,-5.253886986E-1,1.193595828E0
7.542732750E0,5.954074249E-1,1.535741955E0,-2.198116298E0,2.746766939E0
7.552702750E0,7.160642083E-1,-4.328094408E-1,-1.745381008E0,1.935568864E0
7.562672750E0,7.182262894E-1,-8.715043965E-1,-5.183194149E-1,1.242587595E0
7.572643750E0,6.016146098E-1,4.670659384E-1,-1.068418447E0,1.312100875E0
7.582613750E0,1.207412756E-1,3.161072025E-1,-1.224389416E0,1.270288023E0
7.592583750E0,8.111242935E-2,-3.200309765E-1,9.295266098E-1,9.864171381E-1
7.602553750E0,1.386308173E0,-2.060751754E-1,8.947561419E-1,1.662800614E0
7.612524750E0,5.431265562E-1,2.148751765E0,-9.654507333E-1,2.417481276E0
7.622494750E0,4.008238190E-1,1.379602586E0,-7.731200230E-1,1.631464863E0
7.632464750E0,7.153417117E-1,-6.759050927E-1,-4.453935260E-1,1.080248514E0
7.642434750E0,7.427204950E-1,-1.244331345E-1,-7.859762961E-1,1.088520131E0
7.652405750E0,4.290897711E-1,-1.117166099E-1,-1.164557782E0,1.246111335E0
7.662375750E0,3.603863394E-1,6.927234390E-1,-7.310317647E-1,1.069650185E0
7.672345750E0,1.192319631E0,-1.153515900E0,2.350224597E0,2.876765665E0
7.682315750E0,1.365514012E0,-3.264418638E-1,1.394808270E0,1.979061121E0
7.692286750E0,1.456628835E0,5.889496869E-1,7.909528613E-2,1.573176837E0
7.702256750E0,1.733085629E0,-4.897788629E-1,-1.147504377E-1,1.804615415E0
7.712226750E0,2.146517105E0,-8.115868083E-1,5.138731921E-1,2.351653565E0
7.722196750E0,1.088987928E0,1.887098220E-1,1.694199745E0,2.022824481E0
7.732166750E0,1.054942223E0,2.593671374E0,-6.190096378E-2,2.800690275E0
7.742137750E0,1.235322978E0,-2.509353063E-1,-4.777046549E-1,1.348033058E0
7.752107750E0,1.075287756E0,-4.632274752E0,7.804366440E-1,4.819055353E0
7.762077750E0,7.803858463E-2,-1.260306815E0,1.486326551E0,1.950289698E0
7.772047750E0,1.692622751E-3,5.949422058E0,-1.375784354E0,6.106423526E0
7.782018750E0,4.196928935E-1,2.664269779E0,-7.750507736E-1,2.806274983E0
7.791988750E0,5.421066556E-1,-2.221139418E0,7.599871767E-1,2.409340251E0
7.801958750E0,8.664111793E-4,-2.853702609E0,-5.250729489E-1,2.901606612E0
7.811928750E0,3.186111995E-1,2.275041098E0,-2.807438854E0,3.627538837E0
7.821899750E0,1.398894305E0,3.338249383E0,-1.230223768E0,3.822860806E0
7.831869750E0,8.951176460E-1,-2.779617217E-1,4.030292791E-1,1.020260221E0
7.841839750E0,1.097852307E0,-2.332973849E0,8.968593854E-1,2.729909051E0
7.851809750E0,2.380265910E-1,-1.961121047E-1,-5.734691834E-1,6.511401692E-1
7.861780750E0,8.347604202E-1,1.562375730E0,2.521027029E-1,1.789245275E0
7.871750750E0,8.832432666E-1,2.329285133E-1,1.513833023E0,1.768068093E0
7.881720750E0,6.496586958E-1,-1.690298483E-1,8.357483804E-1,1.071962157E0
7.891690750E0,7.841901179E-1,-2.776535735E-1,-3.390560621E-1,8.983343815E-1
7.901660750E0,1.323335561E0,2.575640023E-2,-1.819191581E-1,1.336029557E0
7.911631750E0,1.803307035E0,1.261180097E-1,6.872121459E-1,1.933929303E0
7.921601750E0,1.329028264E0,-8.493402332E-2,-4.165965736E-2,1.332390874E0
7.931571750E0,1.466963496E0,-1.442557803E0,1.338702482E-1,2.061765301E0
7.941541750E0,1.138889309E0,-9.105392388E-1,1.061101241E0,1.803354210E0
7.951512750E0,6.654680320E-1,1.235557013E0,1.120841074E-1,1.407839366E0
7.961482750E0,6.518391225E-1,6.289256385E-1,-4.145968258E-2,9.067307239E-1
7.971452750E0,2.380371708E-1,-1.400997256E0,1.011996909E0,1.744589565E0
7.981422750E0,-3.965618201E-3,1.742970786E0,-2.036996271E0,2.680917137E0
7.991393750E0,1.682362203E0,9.007018831E-1,-8.456442082E-1,2.087275878E0
8.001363750E0,1.278377928E0,-1.036237711E0,9.495772970E-1,1.899930462E0
8.011333750E0,1.032082606E0,-1.188953827E0,-2.395042920E-1,1.592535091E0
8.021303750E0,8.086115988E-1,1.647745371E-3,-2.200984358E0,2.344821438E0
8.031274750E0,2.016292596E0,1.227783725E0,-9.807043648E-1,2.556300013E0
8.041244750E0,1.214211606E0,7.395347857E-1,-7.365152836E-3,1.421715784E0
8.051214750E0,1.390977175E0,-5.503130400E-1,-7.029908574E-1,1.652833352E0
8.061184750E0,1.009894323E0,-2.018084621E0,-1.801030129E-1,2.263843894E0
8.071154750E0,6.093051236E-1,-1.448644754E-1,3.386518441E0,3.443943321E0
8.081125750E0,1.245532509E0,2.863436761E0,2.046761706E0,3.733611495E0
8.091095750E0,3.767554734E-2,1.507324779E0,3.123003727E-1,1.539798350E0
8.101065750E0,1.586380889E0,-5.745661211E-1,-2.315532482E-1,1.703040651E0
8.111035750E0,9.242976641E-1,-3.860314232E-1,-1.185945727E0,1.552357465E0
8.121006750E0,-1.634179100E-1,-5.220642641E-1,-2.194278771E0,2.261441096E0
8.130976750E0,1.493698136E0,5.840137598E-1,-2.287976308E0,2.794108405E0
8.140946750E0,4.460842649E-1,5.539505929E-2,-4.539667135E-1,6.388627090E-1
8.150916750E0,6.771387090E-1,-7.801717651E-1,3.446974558E-1,1.089036799E0
8.160887750E0,7.467771471E-3,-1.708016131E0,3.385456002E-1,1.741260461E0
8.170857750E0,1.806731895E-1,-5.622168016E-1,1.513443013E0,1.624573879E0
8.180827417E0,2.068188389E0,7.556704697E-1,3.902907105E0,4.481196820E0
8.190797417E0,-1.416094401E-1,3.205893856E-1,1.681537015E0,1.717672122E0
8.200767417E0,1.077451518E0,-5.709893793E-1,6.384504604E-1,1.376426400E0
8.210738417E0,9.972908691E-1,3.918131500E-1,-1.130101309E0,1.557316792E0
8.220708417E0,6.683563372E-1,2.987631914E-1,-1.446041574E0,1.620800997E0
8.230678417E0,9.256621119E-2,-1.550394200E0,-4.101400781E-1,1.606395208E0
8.240648417E0,3.424416731E-1,-2.372733746E0,7.060547984E-1,2.499128870E0
8.250619417E0,5.197412750E-1,-1.099434417E-1,4.981441820E-1,7.282624385E-1
8.260589417E0,1.663861759E-1,-6.394006330E-1,2.306586826E0,2.399345810E0
8.270559417E0,-5.481299455E-1,-5.537430167E-2,8.987509596E-1,1.054166039E0
8.280529417E0,-3.816805831E-1,1.052038642E0,-1.093033471E0,1.564348918E0
8.290500417E0,-6.711477980E-2,-8.405977687E-1,-7.709811115E-1,1.142593925E0
8.300470417E0,5.096407581E-2,-2.231314450E0,1.002689896E0,2.446783304E0
8.310440417E0,5.362967525E-2,-1.254230681E-1,-8.408646941E-2,1.602423865E-1
8.320410417E0,3.859410472E-1,1.412668006E0,-7.161038232E-1,1.630149095E0
8.330381417E0,6.530227451E-1,-7.525682294E-1,1.955011291E0,2.194280473E0
8.340351417E0,1.006976782E0,-1.180903673E0,1.447481158E0,2.122201081E0
8.350321417E0,5.540043142E-1,1.322819982E0,-9.929572052E-1,1.744344432E0
8.360291417E0,-3.140883416E-1,5.081639707E-1,-5.510024267E-1,8.127027635E-1
8.370261417E0,-4.041784763E-1,-1.216098941E0,9.024247652E-1,1.567363178E0
8.380232417E0,4.150304334E-1,-1.681220680E-2,-3.617590463E-1,5.508198604E-1
8.390202417E0,-1.253091205E-2,6.301076531E-1,-1.368087664E0,1.506272397E0
8.400172417E0,-2.615229327E-1,-1.207909916E0,-5.900051093E-1,1.369505983E0
8.410142417E0,3.340536960E-1,-1.919026649E0,1.472047065E0,2.441552316E0
8.420113417E0,1.727828106E-1,2.055081124E0,-1.881405956E-1,2.070895751E0
8.430083417E0,-6.253618336E-1,2.368928086E0,-1.887457824E-1,2.457340568E0
8.440053417E0,1.033602809E0,-2.195829160E0,8.621959215E-1,2.575535337E0
8.450023417E0,1.512948047E0,-2.129787490E0,7.608215743E-1,2.721002759E0
8.459994417E0,-6.128568321E-1,2.175634046E0,-2.126970302E0,3.103704185E0
8.469964417E0,-5.381511238E-1,9.233066341E-1,-2.674481356E-1,1.101648890E0
8.479934417E0,2.051378667E-1,-1.819865473E0,1.086845362E-1,1.834612823E0
8.489904417E0,1.688243186E-1,-1.032941051E0,-1.986736529E0,2.245571397E0
8.499874417E0,-3.496632037E-1,2.752497831E-1,-4.968080932E-1,6.669670761E-1
8.509845417E0,3.089478716E-2,3.341923481E-1,1.403462150E0,1.443033270E0
8.519815417E0,2.419742290E-1,4.680491477E-2,5.807571530E-1,6.308891332E-1
8.529785417E0,1.281028470E-1,3.766460574E-1,-1.952882320E-1,4.431817748E-1
8.539755417E0,-4.089557245E-1,-5.834869257E-1,-5.242274415E-1,8.845994503E-1
8.549726417E0,2.232887936E-1,1.758520871E-1,3.445085907E-1,4.466184176E-1
8.559696417E0,7.121538828E-1,3.796363235E-1,5.847537249E-1,9.966061457E-1
8.569666417E0,-2.009943835E-2,-7.201875186E-1,8.450799519E-1,1.110510772E0
8.579636417E0,7.087692221E-1,-6.155334681E-2,-2.148676336E-2,7.117614106E-1
8.589607417E0,-3.535965525E-1,1.135817840E0,-9.192302477E-1,1.503361878E0
8.599577417E0,-6.388090409E-2,-2.100378335E-2,1.422171485E-1,1.573138461E-1
8.609547417E0,1.876218744E-1,4.709727556E-2,-3.675255704E-1,4.153253737E-1
8.619517417E0,-9.259235555E-1,-2.249920875E-1,-1.430549376E0,1.718844783E0
8.629487417E0,-5.383156499E-1,-5.770123038E-1,1.000376737E-1,7.954460847E-1
8.639458417E0,-2.245878256E-1,-1.271249587E0,5.519625396E-1,1.403986413E0
8.649428417E0,-3.559768078E-1,9.689117002E-1,-1.253439553E0,1.623767250E0
8.659398417E0,-4.314673586E-1,1.677000453E0,4.066972375E-2,1.732093712E0
8.669368417E0,-1.036643654E0,-1.338927307E0,-1.164568892E0,2.055134327E0
8.679339417E0,-6.672261436E-1,-1.486069858E0,-1.673088958E0,2.335127622E0
8.689309417E0,3.543841725E-1,-1.138424821E0,1.907198609E0,2.249223365E0
8.699279417E0,1.601390838E-1,2.475942072E-1,1.945442907E0,1.967662451E0
8.709249417E0,9.833469408E-1,1.201309579E0,2.066153412E0,2.584396609E0
8.719220417E0,7.196003120E-1,1.329224145E-1,2.237061678E0,2.353707273E0
8.729190417E0,-1.413537194E0,5.993586078E-1,-6.189687073E-1,1.655427559E0
8.739160417E0,-1.729459479E0,3.404965237E-1,-1.387317987E0,2.243127096E0
8.749130417E0,-1.758678308E0,4.230054143E-1,-5.504551274E-1,1.890736316E0
8.759100417E0,-1.801009079E0,2.815077657E-1,-3.417048508E-1,1.854627329E0
8.769071417E0,-4.018985007E-1,-1.902827815E0,5.231626636E-1,2.013945200E0
8.779041417E0,-9.269393630E-1,-4.839947972E-1,-1.503624369E0,1.831489500E0
8.789011417E0,-1.625466310E0,1.927280286E-1,-7.144677722E-1,1.785986846E0
8.798981417E0,-4.570696847E-1,-9.675618705E-1,2.000582151E0,2.268792104E0
8.808952417E0,-5.613461512E-1,5.869899926E-1,7.047321582E-1,1.075320495E0
8.818922417E0,-9.732693377E-1,5.897855464E-1,-1.194814784E0,1.650055321E0
8.828892417E0,-8.864244443E-1,-7.626988229E-1,-2.245655331E0,2.531881841E0
8.838862417E0,-1.605094172E0,-1.089337445E0,-2.619744986E0,3.259761826E0
8.848833417E0,-1.457625054E0,4.432856047E-1,-8.352396727E-2,1.525827375E0
8.858803417E0,-9.134189925E-1,1.094048840E0,2.252656202E0,2.665658846E0
8.868773417E0,-3.839147311E-1,-2.094361550E0,2.101629639E0,2.991753325E0
8.878743417E0,-1.949828611E-1,-1.220394306E0,1.452233191E0,1.906924702E0
8.888713417E0,-5.845949730E-1,2.251436765E0,9.393481779E-1,2.508603953E0
8.898684417E0,-2.272377545E0,1.259568897E0,1.016023886E0,2.789716482E0
8.908654417E0,-2.566659284E0,1.305116075E-1,5.377906430E-1,2.625641243E0
8.918624417E0,-2.302481935E0,-9.289714167E-1,-4.486925250E-1,2.523041009E0
8.928594417E0,-2.467618268E0,-1.230591265E0,-1.119343602E0,2.975974610E0
8.938565417E0,-2.312291078E0,2.420764822E-1,-2.117921736E0,3.144977509E0
8.948535417E0,-2.186309600E0,1.274878954E0,-7.738614500E-1,2.646531232E0
8.958505417E0,-2.833285886E-1,-2.212183530E0,2.358967354E0,3.246345335E0
8.968475417E0,8.188999209E-1,-1.866485615E0,1.871575617E0,2.767157553E0
8.978446417E0,-3.171781200E-1,1.243400468E0,6.340901917E-1,1.431334013E0
8.988416417E0,-1.135426515E0,1.037419725E0,1.407816571E0,2.085037303E0
8.998386417E0,-5.688599695E-1,-1.475637256E0,2.958437936E0,3.354618010E0
9.008356417E0,-4.358456075E-1,-3.387230632E-1,2.323054340E0,2.387734527E0
9.018326417E0,-1.561961601E0,1.312249678E0,3.384198850E-1,2.067909882E0
9.028297417E0,-6.208769462E-1,6.602947810E-1,5.589599025E-1,1.064853771E0
9.038267417E0,-7.557214867E-1,-1.965314670E0,1.332253003E0,2.491681115E0
9.048237417E0,-1.238547718E0,-1.011743724E-1,1.476573980E-1,1.251414963E0
9.058207417E0,-1.595722693E-1,9.228391492E-1,-1.059957526E0,1.414427574E0
9.068178417E0,-1.351037037E0,1.695406026E0,-3.091781350E0,3.776084557E0
9.078148417E0,-2.094114359E0,-1.471870187E0,-8.894544715E-1,2.709768634E0
9.088118417E0,-5.810872284E-1,-2.886825916E0,-4.480528396E-1,2.978620081E0
9.098088417E0,-1.661409875E0,1.437140357E-1,-3.195138488E0,3.604142957E0
9.108058417E0,-1.109508001E0,-1.074321503E0,2.343095672E0,2.806291507E0
9.118029417E0,1.801677270E0,-1.665545465E0,2.400450425E0,3.432527483E0
9.127999417E0,1.077184885E0,-1.532117266E0,2.220259704E0,2.904696842E0
9.137969417E0,3.526252569E-1,-4.993501702E-1,2.670573077E0,2.739645182E0
9.147939417E0,6.614444898E-1,1.085669779E0,2.509554791E-1,1.295826507E0
9.157910417E0,1.042310044E-1,-1.179079342E-1,-2.593134892E-1,3.033312857E-1
9.167880417E0,-6.677593365E-2,-1.324073333E0,9.980986619E-1,1.659466829E0
9.177850417E0,-4.740937069E-1,-5.513003424E-1,7.303675210E-1,1.030598674E0
9.187820000E0,-1.166588081E0,3.031103039E-1,6.167812639E-1,1.353965559E0
9.197791000E0,-4.212049104E-1,-5.141980049E-1,1.169437868E0,1.345138689E0
9.207761000E0,-6.028457411E-1,-2.604703608E-1,7.354154223E-1,9.859531631E-1
9.217731000E0,-1.575039191E0,8.875345382E-1,-8.960577321E-1,2.017767447E0
9.227701000E0,-1.230001427E0,2.645742291E-1,2.937822407E-1,1.291979504E0
9.237671000E0,-1.130858816E0,-1.948818505E-1,1.066524534E0,1.566619028E0
9.247642000E0,-1.781747912E0,2.236191612E-1,-1.231256971E0,2.177297610E0
9.257612000E0,-2.027274983E0,1.265355009E0,-1.852173970E0,3.023493934E0
9.267582000E0,-1.953281538E0,-3.477611044E-1,3.549259901E-3,1.984000794E0
9.277552000E0,-2.119093225E0,-1.211798607E0,-2.658582777E-1,2.455543236E0
9.287523000E0,-1.989950597E0,-1.529292476E0,-2.088064098E-1,2.518380228E0
9.297493000E0,-1.202257120E0,-5.541552454E-2,1.883455405E0,2.235150403E0
9.307463000E0,-1.446531571E0,7.040334159E-1,8.035547805E-1,1.798281658E0
9.317433000E0,-1.630246993E0,3.196427214E-1,-5.984210068E-1,1.765781535E0
9.327404000E0,-1.556039687E0,-2.114733249E0,-9.293564558E-3,2.625536629E0
9.337374000E0,-1.170776149E0,-4.820681396E-1,2.133958894E-1,1.283995440E0
9.347344000E0,-1.785925602E0,4.344747278E-1,-1.834988419E0,2.597206392E0
9.357314000E0,-2.736559783E0,5.391942671E-1,-2.781334544E0,3.938948051E0
9.367284000E0,-1.127139402E0,-2.116100913E0,-8.426305532E-2,2.399047012E0
9.377255000E0,4.806988679E-1,-2.628561710E0,1.749037857E0,3.193672101E0
9.387225000E0,-8.570000857E-2,-5.783194488E-1,2.204839427E0,2.281033707E0
9.397195000E0,-3.016882610E-1,4.856919515E-1,4.439942873E0,4.476606437E0
9.407165000E0,-3.062792024E-1,1.052095067E0,3.523533906E0,3.689986744E0
9.417136000E0,6.011902481E-2,-1.035391326E0,2.431880379E0,2.643802502E0
9.427106000E0,-3.119596262E-1,-1.677707966E0,9.001197928E-1,1.929310361E0
9.437076000E0,-7.051400015E-1,2.521015334E-1,3.762075162E-1,8.380391996E-1
9.447046000E0,-6.141165416E-1,1.611531225E0,-1.523589687E0,2.301194809E0
9.457017000E0,-3.962601037E-1,8.260507733E-2,3.401682025E-1,5.287344084E-1
9.466987000E0,-1.120958018E-1,-8.201947868E-1,7.632867604E-1,1.126006943E0
9.476957000E0,6.459151621E-1,4.836264226E-1,-1.148884905E0,1.403936408E0
9.486927000E0,7.581660613E-2,1.001340943E0,-8.035764152E-1,1.286144198E0
9.496897000E0,-9.985879277E-1,-3.992399910E-1,-1.353180188E-1,1.083919455E0
9.506868000E0,-1.319363693E0,-8.021306911E-1,5.057151568E-1,1.624771375E0
9.516838000E0,-8.853403705E-1,5.429750767E-1,-1.004559250E0,1.444918265E0
9.526808000E0,-6.618809845E-1,9.386625919E-1,-9.260796762E-1,1.475397392E0
9.536778000E0,-7.697811167E-1,-1.995830119E-1,5.069319624E-1,9.430675271E-1
9.546749000E0,-1.088506264E0,6.022982955E-2,-6.732951880E-1,1.281327409E0
9.556719000E0,6.754392157E-1,-1.348149536E0,-5.938005370E-1,1.620593837E0
9.566689000E0,1.311400809E0,-1.965285141E0,1.116057467E0,2.612987187E0
9.576659000E0,7.658415551E-1,1.619137868E-1,1.713023686E-1,8.012951163E-1
9.586630000E0,-6.578314953E-1,4.460343808E-2,-2.103002565E0,2.203940002E0
9.596600000E0,2.171305060E-1,-2.083490114E0,-2.531242114E0,3.285614608E0
9.606570000E0,6.285585795E-1,-2.575926829E0,1.206953019E-1,2.654251735E0
9.616540000E0,-2.772716041E-1,-2.170022181E0,8.065210730E-1,2.331598604E0
9.626510000E0,6.638130507E-1,-9.992014468E-3,3.187299711E-1,7.364349266E-1
9.636481000E0,-1.218577284E-1,-1.367583050E0,1.464756757E0,2.007646647E0
9.646451000E0,2.424648981E0,7.213274333E-1,5.710344028E-1,2.593321468E0
9.656421000E0,-4.864817642E-1,1.883141702E0,-2.679971892E-1,1.963341455E0
9.666391000E0,-1.849240422E-2,-1.669350833E-2,-2.320106174E0,2.320239923E0
9.676362000E0,4.476797873E-1,-1.950112786E0,1.522135484E-1,2.006620551E0
9.686332000E0,-1.443089753E0,2.212805381E0,-9.711780810E-1,2.814640751E0
9.696302000E0,-1.391342041E0,3.759738322E0,5.093158722E-2,4.009246681E0
9.706272000E0,-1.089751867E0,-1.027274514E0,1.047835078E0,1.827788393E0
9.716242000E0,-2.995172630E-1,-2.273884519E0,1.440235873E0,2.708235730E0
9.726213000E0,-4.173317879E-1,1.982737910E0,-6.159538829E-1,2.117738093E0
9.736183000E0,2.385989238E-1,2.817999803E0,-1.095717927E0,3.032927647E0
9.746153000E0,6.000402470E-1,-1.382317448E0,1.381930947E0,2.044647395E0
9.756123000E0,6.229026409E-1,-2.455751929E0,-5.089159226E-1,2.584128606E0
9.766094000E0,6.814938614E-1,-1.320028229E0,-1.103805796E0,1.850755425E0
9.776064000E0,-2.808052958E-1,7.375075561E-1,-2.917433167E-1,8.413579335E-1
9.786034000E0,-1.334773153E-1,1.282458992E0,1.399411783E0,1.902858533E0
9.796004000E0,4.097027063E-2,-1.403359531E0,6.043085682E-1,1.528491211E0
9.805975000E0,1.021987608E0,-2.027756208E0,-1.524158621E-1,2.275848085E0
9.815945000E0,1.077997794E-1,1.223331070E0,-1.200492430E0,1.717364776E0
9.825915000E0,4.078598832E-1,1.886290720E0,-1.143698425E0,2.243320853E0
9.835885000E0,1.366087186E0,-1.183325882E0,1.022268713E-1,1.810222272E0
9.845855000E0,1.371999452E0,-2.744334533E0,-4.919087112E-1,3.107366844E0
9.855826000E0,1.129512056E0,-3.184563214E-1,-1.108326278E0,1.614186809E0
9.865796000E0,6.287444479E-1,8.066488346E-1,-1.431717065E0,1.759493017E0
9.875766000E0,7.674304629E-1,-4.088361490E-1,-3.046796966E-1,9.213719279E-1
9.885736000E0,1.082197557E0,-2.235803357E0,6.934061015E-1,2.578910667E0
9.895707000E0,9.246808029E-1,3.571596265E-2,5.667472243E-2,9.271042236E-1
9.905677000E0,5.131271604E-1,8.374996215E-2,1.914919272E0,1.984245287E0
9.915647000E0,3.564120600E-1,-1.237391869E0,2.740081853E0,3.027576053E0
9.925617000E0,1.149356775E0,1.491124776E-1,3.748205566E-1,1.218091120E0
9.935588000E0,-1.941533605E-1,1.001089220E0,-1.280758914E0,1.637137303E0
9.945558000E0,-2.366670037E-1,1.617129642E0,-2.133262491E0,2.687364583E0
9.955528000E0,1.617922086E0,7.052326798E-3,-1.783938133E0,2.408351485E0
9.965498000E0,1.686843071E0,-2.749817175E0,2.233090834E0,3.923471513E0
9.975468000E0,1.083500170E0,-2.827871364E-1,7.959937459E-1,1.373880354E0
9.985439000E0,2.332144421E-1,1.439414047E0,-1.631536889E-1,1.467283511E0
9.995409000E0,7.547025362E-1,9.789306119E-1,1.168177208E0,1.700740736E0
1.000537900E1,1.988316447E-1,5.913979161E-1,-3.857519263E-1,7.335462267E-1
1.001534900E1,-5.629287732E-1,-1.224611610E-2,-2.249709206E0,2.319101180E0
1.002532000E1,-4.017071506E-1,5.799987692E-1,-2.554918660E0,2.650542693E0
1.003529000E1,-4.061312270E-1,-1.732573852E-1,-1.542105480E0,1.604072943E0
1.004526000E1,-1.280803353E-2,-1.373160709E0,-3.693732905E-1,1.422030592E0
1.005523000E1,7.041487522E-2,1.550516700E0,-4.702786911E-1,1.621796022E0
1.006520100E1,3.039419241E-2,2.033617457E0,-5.097281009E-1,2.096746648E0
1.007517100E1,2.807396608E-1,-7.132261160E-1,-1.718426514E0,1.881620560E0
1.008514100E1,4.553074070E-1,-6.242630687E-1,-2.591988838E0,2.704702451E0
1.009511100E1,6.900801321E-1,-1.652604407E-1,-3.816413337E-1,8.057119272E-1
1.010508100E1,1.316298144E-1,6.937671670E-1,-2.577662575E0,2.672636084E0
1.011505200E1,6.541576897E-1,-1.668690390E0,-1.169905061E-1,1.796144949E0
1.012502200E1,1.064796097E0,-2.584000664E0,4.008247034E0,4.886398924E0
1.013499200E1,5.161954869E-1,-1.107722846E-1,2.708144361E0,2.759125615E0
1.014496200E1,1.158319607E0,2.730502652E0,7.242413932E-1,3.053174519E0
1.015493300E1,1.503594110E0,1.000328790E0,1.890494868E0,2.614464339E0
1.016490300E1,5.704000530E-1,-1.569510795E0,1.274508825E0,2.100736323E0
1.017487300E1,8.125494061E-1,-6.562420759E-1,-5.454692066E-1,1.178315261E0
1.018484400E1,-1.340349058E0,1.096158223E0,-1.804562432E0,2.500908638E0
1.019481500E1,4.598495241E-1,5.013873401E-1,-1.239500375E0,1.413934946E0
1.020478500E1,2.971672670E-1,-1.161624234E0,-1.235688576E0,1.721802980E0
1.021475500E1,-8.258921675E-2,-5.660502362E-1,-1.142766963E0,1.277947644E0
1.022472500E1,8.202035576E-1,-8.450893074E-1,2.018768746E0,2.337164321E0
1.023469500E1,1.042436563E0,9.696373397E-1,1.652339528E0,2.181076907E0
1.024466600E1,1.188074772E0,2.019832939E-1,-7.042386532E-3,1.205142526E0
1.025463600E1,5.989798544E-1,3.544804323E-1,-2.946926522E-1,7.558286857E-1
1.026460600E1,6.011240284E-1,5.255608991E-1,-2.074884474E0,2.223220623E0
1.027457600E1,3.115312446E-1,3.600519517E-1,-3.864273382E0,3.893494304E0
1.028454700E1,1.781679500E-1,-1.435212238E0,-1.183522641E0,1.868770673E0
1.029451700E1,-2.924726837E-1,-1.927081188E0,1.374285713E0,2.384919998E0
1.030448700E1,4.753902539E-1,-5.935245484E-2,1.538811743E-1,5.031878607E-1
1.031445700E1,1.354147902E0,9.881522557E-1,3.307854095E0,3.708377021E0
1.032442800E1,-9.219272029E-1,8.793525293E-1,1.658666800E0,2.091503333E0
1.033439800E1,1.276674487E0,7.323029494E-1,-2.878677821E-1,1.499677704E0
1.034436800E1,1.823472035E0,5.790483043E-1,-1.810233062E0,2.633873752E0
1.035433800E1,1.235277516E0,5.726125664E-1,-1.553375988E0,2.065616773E0
1.036430800E1,1.009880290E0,-1.204880181E-1,-1.316947331E0,1.663948868E0
1.037427900E1,1.469737854E-1,5.827788278E-1,-3.056221508E0,3.114758797E0
1.038424900E1,-9.962309881E-1,1.210374225E0,-2.253357283E0,2.745013842E0
1.039421900E1,-1.388963394E0,-2.218527466E0,7.594527411E-1,2.725408574E0
1.040418900E1,-9.622096217E-1,-8.594804746E-1,-4.331968188E-2,1.290903032E0
1.041416000E1,-4.334811397E-1,1.036290043E0,-3.110478991E-1,1.165570139E0
1.042413000E1,6.465812331E-1,1.448380168E0,1.363698744E0,2.091780740E0
1.043410000E1,7.042724939E-1,7.645170146E-1,1.670068871E0,1.967133967E0
1.044407000E1,1.735659135E0,-1.111655098E-1,5.142099917E-1,1.813637869E0
1.045404000E1,1.059474546E-1,-2.274736458E-1,2.321173291E0,2.334697961E0
1.046401100E1,2.440920174E-1,1.382090869E0,1.521971762E-2,1.403562511E0
1.047398100E1,-3.354136122E-1,1.518982373E0,-2.765268150E0,3.172777597E0
1.048395100E1,6.594834799E-1,1.588352278E-1,7.077832353E-1,9.803592188E-1
1.049392100E1,1.725023635E-2,-1.280198458E0,-8.467838305E-1,1.535007661E0
1.050389200E1,-5.343866864E-1,-3.853472990E-1,-2.142986995E-1,6.928099335E-1
1.051386200E1,-9.718284376E-1,1.045138635E0,1.767604521E0,2.271825482E0
1.052383200E1,-1.285907095E0,9.602291697E-1,2.241551755E0,2.756837207E0
1.053380200E1,6.322521926E-1,9.737572879E-2,1.612656230E-1,6.597207506E-1
1.054377300E1,-3.203630984E-2,1.446574255E0,-1.446861354E0,2.046218751E0
1.055374300E1,-4.209216859E-1,4.500514179E-2,-2.858656370E0,2.889829886E0
1.056371300E1,-8.535903550E-1,-1.378687497E0,-4.924542564E-1,1.694670146E0
1.057368300E1,-2.775796062E-1,-2.367590243E-1,7.503030181E-1,8.343020390E-1
1.058365400E1,-1.018042345E0,6.259137377E-1,-1.123920218E0,1.640541032E0
1.059362400E1,-2.707258654E-1,-1.468094640E0,8.394829971E-1,1.712695556E0
1.060359400E1,-3.478228656E-1,-8.655934462E-1,8.444759345E-1,1.258321248E0
1.061356400E1,-9.556115504E-1,2.880834567E0,-1.064555776E-1,3.037060096E0
1.062353500E1,-5.434438772E-1,5.452680624E-1,8.411009216E-1,1.140218956E0
1.063350500E1,-1.054026403E0,-1.858238702E0,9.706377983E-2,2.138561224E0
1.064347500E1,-1.777044851E-1,-1.546997845E-1,-1.079583705E0,1.104994065E0
1.065344500E1,-1.127068724E0,2.740104657E-1,6.676046777E-1,1.338305514E0
1.066341600E1,-5.729596717E-1,-7.630935100E-1,1.513254148E0,1.789003244E0
1.067338600E1,-3.963878654E-1,7.303672287E-1,-3.675612384E-1,9.086588428E-1
1.068335600E1,-8.879684016E-1,-1.723320633E-1,1.298058486E-1,9.138029222E-1
1.069332600E1,-7.786096083E-1,2.627162763E-1,1.858239287E-1,8.424863777E-1
1.070329600E1,-5.022231996E-1,1.377985539E0,8.518019110E-1,1.696065677E0
1.071326700E1,-1.300176640E0,9.828233957E-1,7.104133129E-1,1.777944936E0
1.072323700E1,-1.272595616E0,2.042069900E-1,1.723648077E-1,1.300349847E0
1.073320700E1,-8.577624895E-1,6.368696657E-1,4.226858640E-1,1.148922451E0
1.074317700E1,-1.440071274E0,1.167190783E0,5.174382395E-1,1.924547202E0
1.075314800E1,-1.891712843E0,-3.659509152E-2,1.395572501E-1,1.897206606E0
1.076311800E1,-9.959445477E-1,6.944065601E-2,-6.553471595E-1,1.194239275E0
1.077308800E1,1.124202492E-1,6.631555313E-1,1.129104944E0,1.314264641E0
1.078305800E1,1.055294517E-1,1.286796749E0,-1.216233135E0,1.773754599E0
1.079302900E1,-9.140813358E-2,2.022891325E0,2.378875369E-1,2.038880879E0
1.080299900E1,1.206683316E-1,1.109405674E0,1.745431879E0,2.071683914E0
1.081296900E1,-7.356780354E-1,-1.961049126E0,2.286541986E0,3.100840225E0
1.082293900E1,1.831195915E-1,-5.870040259E-1,1.455695327E0,1.580239031E0
1.083291000E1,6.106886845E-1,3.374516154E0,1.892962977E0,3.917091877E0
1.084288000E1,1.043597820E0,-6.865952647E-1,2.070814812E0,2.418425822E0
1.085285000E1,1.558875733E-1,-3.382701963E-2,-1.370680904E0,1.379931645E0
1.086282000E1,-1.467738545E0,1.294742822E0,-2.936971638E0,3.529365072E0
1.087279100E1,-1.049394531E0,-1.387142278E0,-5.282134885E-1,1.817801439E0
1.088276100E1,9.081104515E-1,-1.150207838E0,1.235479830E0,1.916781957E0
1.089273100E1,2.595254508E-1,3.660330686E-1,8.372078454E-1,9.498687506E-1
1.090270100E1,6.820252271E-1,9.897435755E-1,1.939896823E0,2.282093434E0
1.091267200E1,1.433480585E0,1.836262527E0,-2.016827470E-1,2.338247760E0
1.092264200E1,-2.735495590E-2,7.420151746E-1,-5.414867265E0,5.465539526E0
1.093261200E1,5.871499870E-1,-1.804570618E-1,-2.941993811E0,3.005434651E0
1.094258200E1,4.958422793E-1,-8.844866771E-1,1.745680386E-1,1.028907308E0
1.095255300E1,1.054270524E-1,-1.017063229E0,8.809502810E-1,1.349668801E0
1.096252300E1,4.239229886E-1,5.262815684E-2,2.339681482E0,2.378358649E0
1.097249300E1,1.477430597E-1,6.303766251E-1,1.805769882E0,1.918334582E0
1.098246300E1,-2.439896180E-1,-1.900830406E-1,-4.451035041E-1,5.420144144E-1
1.099243400E1,-6.943928191E-1,9.468653584E-1,-1.492785385E0,1.899248167E0
1.100240400E1,-1.539145035E-1,1.242541220E0,-5.949009830E-1,1.386183803E0
1.101237400E1,7.657167902E-1,-1.660549311E0,-2.234536850E-1,1.842193738E0
1.102234400E1,6.998505371E-1,-4.395401707E-1,-1.394664429E0,1.621133926E0
1.103231500E1,5.670386349E-1,-3.447915959E-1,-1.009700707E0,1.208267179E0
1.104228500E1,9.898963340E-2,2.275879589E-1,1.356322482E0,1.378842232E0
1.105225500E1,-5.240844771E-2,-1.681407791E-1,3.044446385E0,3.049536318E0
1.106222500E1,3.401541692E-1,-1.676075131E0,3.117849991E0,3.556110413E0
1.107219600E1,-2.556767403E-1,-8.626660377E-2,1.198133079E0,1.228143069E0
1.108216600E1,-2.854028153E-1,1.440759492E0,1.029709294E0,1.793751351E0
1.109213600E1,-3.323599769E-1,1.025521811E0,1.664337430E0,1.982971815E0
1.110210600E1,-6.355367929E-1,-8.456447929E-2,-5.748888874E-1,8.611361095E-1
1.111207700E1,-1.392121182E0,-1.571887688E0,-2.132266710E0,2.992556367E0
1.112204700E1,-1.446648369E0,-9.679524645E-1,-5.481308591E-1,1.824875589E0
1.113201700E1,-1.337006936E0,9.174488935E-1,3.485922861E-1,1.658558591E0
1.114198700E1,-2.367215290E-1,7.840294656E-1,9.374016398E-1,1.244773521E0
1.115195800E1,-7.455338828E-2,-2.603218708E0,-1.914684799E0,3.232386692E0
1.116192800E1,-7.794864714E-2,-2.408731252E0,-7.916252911E-1,2.536677519E0
1.117189800E1,1.233685758E-1,8.670002863E-1,2.611938953E0,2.754838361E0
1.118186817E1,-6.421798146E-1,9.448334509E-1,8.650546253E-1,1.432977554E0
1.119183917E1,-5.729788944E-2,-2.281555189E0,9.355217600E-1,2.466572134E0
1.120180917E1,4.195792383E-1,-1.296904538E0,9.380039030E-1,1.654647830E0
1.121177917E1,5.311479136E-2,1.809846853E0,-1.008802575E0,2.072691354E0
1.122174917E1,-1.387317695E-1,1.736593228E0,-1.705659703E0,2.438088917E0
1.123172017E1,3.988510781E-1,-1.137268826E-1,-4.914701700E-1,6.430854643E-1
1.124169017E1,1.152470856E0,-1.315746021E0,5.881141198E-1,1.845333272E0
1.125166017E1,8.528619381E-1,-8.441066828E-1,4.146646535E-1,1.269581172E0
1.126163017E1,5.312620805E-1,-9.219334155E-2,1.796672784E0,1.875839040E0
1.127160117E1,7.757237881E-1,2.048638370E0,1.506973654E-1,2.195763253E0
1.128157117E1,1.256399121E0,1.139236999E0,-1.971746607E0,2.600804563E0
1.129154117E1,5.211309023E-1,-2.118533939E-1,1.037651567E0,1.180330485E0
1.130151117E1,5.333897361E-1,1.719341603E0,4.672065639E-1,1.859817768E0
1.131148217E1,6.313924326E-1,-1.329349861E-1,-8.154000700E-2,6.503667329E-1
1.132145217E1,-2.896606115E-1,-2.326153949E0,1.072875779E0,2.577975543E0
1.133142217E1,1.519714737E-1,1.960052760E0,-6.599109113E-2,1.967042698E0
1.134139217E1,9.826567501E-2,1.907072309E0,4.632860059E-1,1.964997419E0
1.135136317E1,-5.867282566E-1,-1.100700340E0,-8.533140010E-1,1.511269688E0
1.136133317E1,2.425178008E-1,-1.471021756E0,-4.650290608E-2,1.491603973E0
1.137130317E1,6.799779707E-1,4.329103053E-2,1.628371207E0,1.765173346E0
1.138127317E1,-8.361739846E-1,1.714129980E0,6.074953008E-1,2.001619110E0
1.139124417E1,8.374966979E-1,2.665274915E-1,1.366434656E0,1.624678828E0
1.140121417E1,3.777644835E-1,-1.994123316E0,2.193924429E0,2.988735219E0
1.141118417E1,-3.911475176E-1,-5.914198431E-1,1.503277044E0,1.662111814E0
1.142115417E1,2.013569840E-1,1.490697052E0,-3.158560646E-1,1.537038513E0
1.143112517E1,-6.093765693E-1,8.207096341E-1,-2.667998548E0,2.857117491E0
1.144109517E1,-7.840788015E-1,-2.461433961E0,-4.754107922E-1,2.626680820E0
1.145106517E1,-3.707518447E-1,-2.446229738E0,1.936158113E0,3.141688257E0
1.146103517E1,-6.898441970E-1,1.554703306E0,-2.319619685E0,2.876390598E0
1.147100617E1,-2.660745516E-1,1.116882509E-1,-7.105869752E-1,7.669444450E-1
1.148097617E1,5.558567121E-1,-2.659789057E0,2.487832385E0,3.684123300E0
1.149094617E1,-4.628236373E-1,-9.358313701E-1,-1.255931636E0,1.633202482E0
1.150091617E1,-7.218805068E-1,2.202836463E0,-2.941973931E-1,2.336696826E0
1.151088717E1,1.057403170E-2,4.394606486E-1,2.076554439E0,2.122572922E0
1.152085717E1,-9.749793559E-2,-2.561134250E0,2.122901809E-1,2.571766244E0
1.153082717E1,7.090987127E-1,-8.315661594E-1,-1.153344576E0,1.588876010E0
1.154079717E1,-2.193884084E0,2.961594847E0,-3.304700106E0,4.950274155E0
1.155076817E1,6.949773214E-1,4.196102285E-1,-6.864303732E-1,1.063133519E0
1.156073817E1,9.730869046E-1,-2.931127638E0,-6.336124742E-1,3.152756274E0
1.157070817E1,-1.627904891E0,-1.513562297E0,-2.187000741E0,3.118319644E0
1.158067817E1,9.248579735E-1,8.479184827E-1,6.270717788E-1,1.402692782E0
1.159064917E1,6.754623853E-1,8.591901603E-1,3.365512903E0,3.538521481E0
1.160061917E1,-7.419578719E-1,7.882073012E-1,-8.283873206E-1,1.363083925E0
1.161058917E1,1.867699497E0,-1.144818166E0,1.206344324E0,2.500835195E0
1.162055917E1,1.585349148E0,-4.098740298E-1,1.089735641E0,1.966939859E0
1.163053017E1,-3.622825183E-2,2.415974490E0,7.522074562E-1,2.530624682E0
1.164050017E1,7.938503028E-1,5.052163893E-1,1.667871487E0,1.915003186E0
1.165047017E1,1.284402606E0,-1.718484986E0,3.980983222E-1,2.182054760E0
1.166044017E1,-1.169861572E0,-8.050504982E-1,-1.023905933E-1,1.423785881E0
1.167041117E1,-5.433984151E-1,2.001924964E0,-2.165252607E0,2.998550359E0
1.168038117E1,-4.372418495E-1,1.555840297E0,1.584956215E0,2.263604574E0
1.169035117E1,1.264099758E0,-2.372531140E0,1.805540087E0,3.238337106E0
1.170032117E1,9.250104397E-1,-2.228378855E0,-2.382976021E0,3.391148972E0
1.171029217E1,9.209582461E-1,2.792782223E-1,6.176565921E-1,1.143529660E0
1.172026217E1,8.456528328E-2,4.318209690E-1,2.388757748E0,2.428947141E0
1.173023217E1,-5.442787135E-1,-9.398989856E-1,9.389260089E-1,1.435698949E0
1.174020217E1,6.695661262E-2,-1.753399588E0,-1.213016582E0,2.133143813E0
1.175017317E1,-8.222595848E-2,-8.413845116E-1,-1.764272777E0,1.956360764E0
1.176014317E1,7.085436657E-3,-1.805219952E0,2.362489132E0,2.973251448E0
1.177011317E1,1.502390899E0,-1.469189824E0,4.685849866E0,5.135453837E0
1.178008317E1,8.165222237E-1,-9.398925537E-1,1.484432638E0,1.937433047E0
1.179005417E1,4.599555049E-1,-7.713325292E-2,1.447329131E0,1.520615079E0
1.180002417E1,1.084255703E0,9.538147742E-1,9.046484613E-1,1.704042808E0
1.180999417E1,5.891638412E-1,1.993888843E0,-1.732309558E0,2.706215652E0
1.181996417E1,-7.504674710E-2,5.888055530E-1,-4.231804799E0,4.273230143E0
1.182993517E1,-6.693199584E-1,-1.436399223E0,-7.118958160E0,7.293202123E0
1.183990517E1,-8.091544396E-1,-5.528828913E-1,-5.216222146E0,5.307483761E0
1.184987517E1,-3.135756505E-1,-5.043904701E-1,4.329594219E-1,7.349784322E-1
1.185984517E1,3.822745141E-1,-2.108980173E0,3.118780868E0,3.784273415E0
1.186981617E1,7.888173851E-1,-1.682842113E0,2.866554789E0,3.416332361E0
1.187978617E1,9.808331497E-2,1.696029924E0,-2.633895832E-1,1.719160234E0
1.188975617E1,8.518606024E-1,6.715003851E-1,1.406520828E0,1.776198213E0
1.189972617E1,4.088177302E-1,3.032264003E0,-6.768736839E-2,3.060447435E0
1.190969717E1,2.789851306E-1,-4.879840600E-1,-1.550476938E0,1.649224024E0
1.191966717E1,1.788378947E-1,-4.053291060E0,-1.095799788E0,4.202609735E0
1.192963717E1,-5.152056994E-1,1.390013261E0,-9.999440432E-2,1.485790248E0
1.193960717E1,-4.268942513E-1,3.900366782E0,-1.339452680E0,4.145990017E0
1.194957817E1,-3.627249333E-1,-3.930652436E0,1.554360659E0,4.242361961E0
1.195954817E1,6.592780964E-1,-3.280884397E0,3.907494246E0,5.144643945E0
1.196951817E1,2.363142704E-1,3.061889214E0,-1.239721985E0,3.311785107E0
1.197948817E1,1.796265379E-1,1.716380865E0,4.219994009E-2,1.726270489E0
1.198945917E1,1.632406370E0,-1.848740193E0,4.917462755E0,5.501275380E0
1.199942917E1,1.414686318E-1,-9.347432032E-1,9.600619394E-1,1.347396437E0
1.200939917E1,-8.729814032E-1,-3.694440418E-1,-2.584235430E-2,9.482896486E-1
1.201936917E1,1.114875452E-1,-1.375748101E0,2.936366451E0,3.244589380E0
1.202934017E1,7.919929348E-2,1.523997822E0,3.101931531E0,3.456995967E0
1.203931017E1,-4.778147288E-2,1.863434538E0,1.093638657E0,2.161184134E0
1.204928017E1,1.180280945E-1,-5.110679904E-1,2.033170438E-1,5.625468355E-1
1.205925017E1,4.094163390E-1,-1.341010963E0,8.335673690E-1,1.631185673E0
1.206922117E1,-6.663277920E-1,1.445130578E-1,4.080157846E-1,7.945776430E-1
1.207919117E1,-9.306982456E-1,1.893613188E0,-1.871626487E0,2.820453126E0
1.208916117E1,4.177720832E-1,-6.943992510E-1,-3.767437059E-1,8.936776003E-1
1.209913117E1,3.215044018E-1,-1.626093716E0,1.206865311E-3,1.657572716E0
1.210910217E1,8.099080727E-2,1.977550845E0,-1.369451235E0,2.406795285E0
1.211907217E1,6.080333908E-1,5.164567843E-1,4.955029947E-1,9.391248224E-1
1.212904217E1,1.370287679E-1,-2.382626358E-1,8.839072180E-1,9.256554093E-1
1.213901217E1,4.419652303E-1,-2.631662196E-1,1.704236491E0,1.780171829E0
1.214898317E1,-3.623621866E-2,-2.112023357E0,-1.924097062E0,2.857289839E0
1.215895317E1,9.038845226E-3,-1.687906679E0,-1.021186978E0,1.972798394E0
1.216892317E1,-3.215318106E-2,7.240422955E-1,5.338741779E-2,7.267195395E-1
1.217889317E1,-2.035414307E-1,-8.623140353E-1,-3.292613912E-1,9.452130306E-1
1.218886417E1,1.468462430E-2,1.286138937E-1,-1.302588909E0,1.309005362E0
1.219883417E1,9.012631427E-1,1.080815713E0,6.952988452E-1,1.569674598E0
1.220880417E1,6.778282419E-1,2.398551250E-1,-3.436718541E-1,7.969265649E-1
1.221877517E1,6.114358125E-1,4.454590148E-1,1.150250815E0,1.376722348E0
1.222874517E1,3.519985816E-1,-3.263231653E-1,1.226033068E0,1.316642280E0
1.223871517E1,-1.881401570E-1,-5.175341338E-1,8.409477246E-1,1.005202156E0
1.224868517E1,-6.087233622E-1,7.351967365E-2,7.551193696E-1,9.727047530E-1
1.225865617E1,-2.696454462E-1,4.619946483E-1,4.170742911E-1,6.783057467E-1
1.226862617E1,1.978202956E-1,1.786467639E-1,1.407302016E-1,3.014175264E-1
1.227859617E1,2.224016979E-1,6.025848091E-2,-1.266208702E-1,2.629190836E-1
1.228856617E1,1.480819058E-1,3.317078662E-1,-1.403107224E0,1.449368221E0
1.229853717E1,3.446796948E-1,-5.269738787E-1,1.259576206E0,1.408203742E0
1.230850717E1,-3.687380636E-1,-4.966700989E-1,1.294888710E0,1.435055999E0
1.231847717E1,-5.827451333E-1,-3.030091470E-1,1.533832839E0,1.668547156E0
1.232844717E1,-6.383015757E-1,-3.147141033E-1,8.018392074E-1,1.072110061E0
1.233841817E1,-1.282387948E0,4.655845463E-1,-2.849172771E-1,1.393723672E0
1.234838817E1,-2.722337162E-1,2.812949270E-1,2.028998449E0,2.066415433E0
1.235835817E1,-9.818856485E-2,-2.711154508E0,1.721778138E0,3.213179067E0
1.236832817E1,4.308032611E-1,-3.041194748E0,4.974806399E0,5.846636269E0
1.237829917E1,2.867064520E-1,2.762411785E-1,5.861734289E0,5.875239455E0
1.238826917E1,-9.501698392E-1,-2.674118829E-1,2.305413290E0,2.507840162E0
1.239823917E1,6.450161527E-1,-1.001614008E0,4.150067157E0,4.317676906E0
1.240820917E1,-3.167939579E-1,-7.918767214E-1,2.762831030E0,2.891481014E0
1.241818017E1,-6.528879668E-1,-6.375479427E-1,-2.003312801E0,2.201361454E0
1.242815017E1,-8.808850115E-1,-2.005314302E-1,-1.256454962E0,1.547530397E0
1.243812017E1,-1.157632267E0,-7.805313689E-1,1.724494169E0,2.218833437E0
1.244809017E1,-9.451807755E-1,2.533744723E-2,-1.737666192E0,1.978254908E0
1.245806117E1,-1.556912092E0,-1.272250630E0,5.616648245E-1,2.087597735E0
1.246803117E1,1.122598893E-1,-1.308062780E0,1.917948714E0,2.324254244E0
1.247800117E1,-5.607626722E-1,4.982149333E-1,-1.174337250E-1,7.592519832E-1
1.248797217E1,1.788020805E-1,-1.248975788E0,2.143010384E-1,1.279779527E0
1.249794217E1,-1.634668804E-1,-1.102790719E0,1.917635304E0,2.218151020E0
1.250791217E1,-8.387822083E-1,-4.343434578E-1,1.533449847E-1,9.569349594E-1
1.251788217E1,-1.565282235E0,-1.047231061E0,-3.116999806E0,3.641770059E0
1.252785317E1,-1.554952690E0,-1.786339292E0,-6.315636098E-2,2.369150620E0
1.253782317E1,-1.925072816E0,5.077227983E-1,1.927897167E-1,2.000213904E0
1.254779317E1,-2.220934765E0,4.200098857E-1,-3.011126027E0,3.765081604E0
1.255776317E1,-1.991196200E-3,-2.559179234E0,2.090847373E-2,2.559265418E0
1.256773417E1,4.201957541E-1,-2.400410079E0,4.309328354E0,4.950640755E0
1.257770417E1,2.377566323E-1,-8.357875568E-1,2.008137338E0,2.188077838E0
1.258767417E1,1.284772150E0,-1.319213712E-1,2.358423563E0,2.688903945E0
1.259764417E1,-1.397128592E-1,-4.266613859E-1,1.011840203E0,1.106968933E0
1.260761517E1,-5.574640386E-1,-8.985340279E-1,-1.826098897E0,2.110157988E0
1.261758517E1,-3.834352595E-1,-1.820659232E-1,-3.701476373E0,3.725734550E0
1.262755517E1,-1.466723176E0,-7.046953207E-1,-1.761447988E0,2.398034900E0
1.263752617E1,-5.018344329E-1,-6.052318436E-1,-2.779433030E0,2.888492920E0
1.264749617E1,-1.069850942E0,-8.070262724E-1,-2.640376301E0,2.960989607E0
1.265746617E1,-6.785288114E-1,-1.760928755E0,-1.165763478E0,2.218169496E0
1.266743617E1,-7.540138073E-2,-2.480615752E0,5.117722875E-1,2.533979232E0
1.267740717E1,9.560788891E-1,-1.389614773E0,1.968165772E0,2.592063380E0
1.268737717E1,2.638813925E0,-1.326397601E0,4.290497396E0,5.208746244E0
1.269734717E1,1.888173523E0,1.858504166E0,3.588621018E0,4.460654414E0
1.270731717E1,1.196137497E0,1.630988420E0,1.029911608E0,2.269710567E0
1.271728817E1,2.774832733E-2,-1.887451977E-1,2.430545459E0,2.438020908E0
1.272725817E1,-1.455305171E0,1.871243495E-1,2.468340107E0,2.871520773E0
1.273722817E1,-2.886178337E0,-3.391133648E-1,-4.045325983E-1,2.934053491E0
1.274719817E1,-2.308945739E0,-2.532110426E0,-1.331615657E-1,3.429365195E0
1.275716917E1,-1.333263987E0,-1.425948202E0,-7.428390473E-1,2.088715151E0
1.276713917E1,-7.596979588E-1,-8.468095583E-1,-6.587859070E-1,1.314620207E0
1.277710917E1,2.243245547E-1,-2.763290329E0,5.736866999E-1,2.831114865E0
1.278708017E1,3.697465622E-1,-4.241086377E0,1.689293346E0,4.580091504E0
1.279705017E1,9.789506386E-1,-2.036080597E0,9.289453965E-1,2.442725547E0
1.280702017E1,-4.603235871E-1,9.209130764E-2,5.960400206E-1,7.587109594E-1
1.281699017E1,2.817159265E-2,-1.581893443E0,1.250376781E0,2.016586869E0
1.282696117E1,8.291256047E-1,-2.487432143E0,1.137722570E0,2.858177843E0
1.283693117E1,-9.172792511E-1,-1.439080464E0,-5.137129784E-2,1.707335004E0
1.284690117E1,-8.954852897E-1,9.109114140E-2,-7.622067797E-1,1.179470506E0
1.285687117E1,-8.090021197E-1,3.016666263E-1,-6.003763157E-1,1.051636298E0
1.286684217E1,-6.043603892E-1,-1.376799431E0,-1.490406153E0,2.117106198E0
1.287681217E1,-6.609908921E-1,-5.566666245E-1,-2.000510815E0,2.179181087E0
1.288678217E1,-6.287554114E-1,-7.980104506E-2,-3.702765099E0,3.756616956E0
1.289675217E1,-7.198285726E-1,-5.802121925E-1,-4.218909935E0,4.319027715E0
1.290672317E1,1.720125861E-1,-2.302030384E0,-4.635731041E-2,2.308913428E0
1.291669317E1,5.787639834E-1,-1.590216663E0,2.620902150E0,3.119757180E0
1.292666317E1,1.122149608E0,-1.217787910E-1,6.253340448E0,6.354393486E0
1.293663417E1,7.505583221E-1,1.073956052E0,4.308382859E0,4.503207996E0
1.294660417E1,-2.208250692E-1,1.733229032E0,-1.176967912E0,2.106679866E0
1.295657417E1,-5.144356942E-1,5.454168740E-1,-1.096468125E0,1.328294395E0
1.296654417E1,-3.553624117E-1,-2.001668563E-1,-1.658492553E-1,4.402898926E-1
1.297651517E1,-1.697033744E-1,9.172825402E-1,-1.397587452E0,1.680314607E0
1.298648517E1,-2.722366398E-1,5.924697107E-1,-2.061410735E0,2.162070157E0
1.299645517E1,-1.246298056E0,-1.559338394E-1,-8.085705221E-2,1.258615140E0
1.300642517E1,-1.315286430E0,-1.641925929E0,7.642024344E-1,2.238281598E0
1.301639617E1,-1.545403017E0,-3.608989209E-1,6.314992905E-3,1.586996659E0
1.302636617E1,-1.156635097E0,1.110889113E-1,-2.163434708E-1,1.181926390E0
1.303633617E1,-4.045396880E-1,-1.203644372E0,-6.056253612E-2,1.271251334E0
1.304630717E1,-6.514086943E-1,1.376321421E0,-2.406397043E0,2.847690410E0
1.305627717E1,1.542700142E-1,2.920204747E-1,-1.111580254E0,1.159605905E0
1.306624717E1,7.106323642E-1,-1.476662273E0,2.959550661E-1,1.665268515E0
1.307621717E1,3.158133799E-1,-4.664981738E-1,-7.217691904E-1,9.155923773E-1
1.308618817E1,-1.705300245E-1,1.403124765E0,-1.932622302E0,2.394340945E0
1.309615817E1,-6.156825721E-2,8.299710390E-1,-2.766028288E0,2.888521259E0
1.310612817E1,1.697775756E0,-1.757092689E0,-1.189844066E-1,2.446216369E0
1.311609817E1,1.918719524E0,-1.466665581E0,9.663821948E-1,2.601247217E0
1.312606917E1,2.081823657E0,-5.661209875E-1,2.807625380E0,3.540796943E0
1.313603917E1,2.081993519E0,2.303235787E-1,1.991190353E0,2.890083906E0
1.314600917E1,1.017537146E0,-9.570108622E-1,-3.021303105E-1,1.429172613E0
1.315597917E1,4.875116050E-5,-2.446489939E0,5.857062364E-1,2.515624141E0
1.316595017E1,-9.883870945E-1,-1.566558243E0,7.691801691E-1,2.005654983E0
1.317592017E1,-1.593808900E0,-1.309757595E0,-8.795516270E-1,2.242610718E0
1.318588917E1,-7.990666039E-1,-2.029487861E0,9.771445799E-1,2.390008357E0
1.319586017E1,3.770601864E-1,1.507520661E0,1.996648729E-1,1.566735137E0
1.320583017E1,-6.114741848E-1,1.307733289E0,-7.353657210E-1,1.620132642E0
1.321580017E1,5.967361316E-2,9.396735755E-1,-5.510661614E-1,1.090972632E0
1.322577017E1,3.393167017E-1,1.473649787E0,-2.925613421E0,3.293325585E0
1.323574117E1,-8.024125269E-1,4.506998742E-1,-4.124107858E0,4.225548706E0
1.324571117E1,-6.309661706E-1,1.278007214E0,-2.764652438E0,3.110421812E0
1.325568117E1,-1.099229253E0,4.882077160E-1,-1.807757351E0,2.171321801E0
1.326565117E1,-7.250636579E-1,-5.347419047E-1,3.068104219E-1,9.517346519E-1
1.327562217E1,1.817558746E-1,4.271683395E-3,2.346774740E0,2.353806518E0
1.328559217E1,-2.226853609E-2,7.660048386E-1,1.189247065E0,1.414767784E0
1.329556217E1,-3.998975835E-1,1.194206674E0,-1.858462651E0,2.244979082E0
1.330553217E1,-8.984980676E-1,-2.194857645E-1,-4.307920344E0,4.406092427E0
1.331550317E1,-4.748143762E-1,-1.805633934E0,-6.192920583E-1,1.967049885E0
1.332547317E1,3.932842364E-1,-1.634666319E0,2.751950532E0,3.224909021E0
1.333544317E1,-3.598592860E-1,1.635334656E0,1.459134659E0,2.221011503E0
1.334541417E1,7.790765085E-1,2.425447857E0,4.577099256E0,5.238281694E0
1.335538417E1,4.008310184E-1,6.806363672E-1,3.926186625E0,4.004856150E0
1.336535417E1,-6.652823098E-2,-2.353638786E-1,-6.567884982E-1,7.008518333E-1
1.337532417E1,-1.651275627E-2,-1.517507121E0,-1.658721179E0,2.248211841E0
1.338529517E1,-1.209892268E0,5.538775027E-3,-2.843793333E-1,1.242876335E0
1.339526517E1,-5.952503541E-1,1.573186355E0,1.755737012E0,2.431429774E0
1.340523517E1,-5.783406450E-1,2.484370834E-1,7.376309323E-1,9.696897846E-1
1.341520517E1,3.103055951E-1,-9.674148130E-1,-2.891301960E-1,1.056303580E0
1.342517617E1,1.165832475E-1,-5.926875195E-1,-6.929196131E-1,9.192430253E-1
1.343514617E1,1.295825873E0,9.140303189E-1,-7.174182773E-2,1.587376139E0
1.344511617E1,1.348893594E0,1.634825948E0,1.070011228E0,2.374256481E0
1.345508617E1,5.129762657E-1,1.292250739E0,1.781921428E-1,1.401716470E0
1.346505717E1,5.169711566E-1,-1.063058889E-1,-6.774630833E-1,8.587877199E-1
1.347502717E1,4.719611908E-1,-4.571382433E-2,4.674404526E-1,6.658360880E-1
1.348499717E1,4.710583807E-1,-1.360299173E-1,-5.353839290E-1,7.259725118E-1
1.349496817E1,-1.176296067E-1,-1.616205490E-1,-2.581905314E0,2.589631823E0
1.350493817E1,-9.259894828E-1,7.308543018E-1,-1.525094175E0,1.928086299E0
1.351490817E1,-5.443560429E-1,1.831400567E-1,9.826661056E-1,1.138198777E0
1.352487817E1,-4.771650666E-1,1.405082121E0,-1.906669436E0,2.416056829E0
1.353484917E1,-2.976161139E-1,6.094383305E-1,-1.516808086E0,1.661534592E0
1.354481917E1,5.668021882E-1,-1.265633044E0,-4.166948068E-1,1.448007695E0
1.355478917E1,-7.657429565E-2,-1.435690248E-1,-1.496627591E0,1.505446722E0
1.356475917E1,1.897588490E-1,1.939885713E0,-1.458023688E0,2.434131894E0
1.357473017E1,8.319098295E-1,1.240408448E0,-4.620911273E0,4.856285420E0
1.358470017E1,1.229108996E0,-3.441516182E-1,-2.740574774E0,3.023226645E0
1.359467017E1,1.438586812E0,-1.840076374E0,1.712954689E0,2.896485257E0
1.360464017E1,1.018804310E0,3.851236430E-1,1.001665463E0,1.479735160E0
1.361461117E1,1.047689190E0,-9.132473767E-2,4.443809052E0,4.566555785E0
1.362458117E1,3.107078104E-1,2.106523758E-1,1.245979675E0,1.301299012E0
1.363455117E1,9.981932406E-1,-7.944035956E-1,2.289877823E0,2.621260625E0
1.364452217E1,4.192523059E-1,1.057459595E0,3.122410820E0,3.323167558E0
1.365449217E1,1.674944425E0,2.329914878E0,7.364942336E-1,2.962493194E0
1.366446217E1,3.248315991E0,-5.385849872E-1,1.125227070E0,3.479621606E0
1.367443217E1,1.880218386E0,-1.794306708E0,8.142405671E-1,2.723553826E0
1.368440317E1,1.378930010E0,5.695544726E-1,-2.151274838E0,2.617980844E0
1.369437317E1,1.768191581E0,2.839107666E0,-1.771570103E0,3.784903491E0
1.370434317E1,1.452585485E0,2.461093068E-1,1.638629562E-1,1.482371563E0
1.371431317E1,7.874214354E-1,-3.455300700E0,-2.599204302E-1,3.553405983E0
1.372428417E1,1.331395070E0,-6.916498902E-1,-8.762093586E-1,1.737450789E0
1.373425417E1,1.591214051E0,3.224499989E0,1.520276070E-2,3.595774389E0
1.374422417E1,1.471926174E0,-5.108028191E-1,1.235992631E0,1.988759404E0
1.375419417E1,2.137650680E0,-2.111006234E0,1.379714268E0,3.305980824E0
1.376416517E1,1.773523657E0,-6.329029146E-1,-6.303795487E-1,1.985782122E0
1.377413517E1,2.360921639E0,1.721727267E-1,-1.630301957E0,2.874278850E0
1.378410517E1,3.036837111E0,-7.762091070E-2,3.411959091E0,4.568355228E0
1.379407617E1,1.148774904E0,-5.074582118E-1,2.963629678E0,3.218741755E0
1.380404617E1,4.252152598E-1,-3.185373053E-1,-7.285829508E-1,9.017245413E-1
1.381401617E1,5.561670896E-1,-5.319124371E-1,1.018623558E0,1.276654466E0
1.382398617E1,2.138153906E-1,5.360569435E-1,1.018472700E0,1.170624068E0
1.383395717E1,9.788170297E-1,1.248579639E0,-8.578122640E-1,1.803573058E0
1.384392717E1,1.296493040E0,-1.657217860E-2,-1.050613675E0,1.668819324E0
1.385389717E1,8.274026495E-1,1.925926656E-1,-1.178595777E0,1.452850675E0
1.386386717E1,1.110333262E0,1.605793353E0,-1.639019571E0,2.549077754E0
1.387383817E1,1.650725697E0,1.565584390E0,-1.767354260E0,2.880883699E0
1.388380817E1,2.442124116E0,-5.642741445E-1,1.633206269E0,2.991611309E0
1.389377817E1,1.685210090E0,-2.055280514E0,8.347145927E-1,2.785831921E0
1.390374817E1,1.156959910E0,1.976881632E0,-1.649710620E0,2.822793359E0
1.391371917E1,8.931026224E-1,3.044445215E0,-2.517543257E0,4.050222589E0
1.392368917E1,1.771439856E0,5.566265711E-1,-5.921761805E-1,1.948975354E0
1.393365917E1,1.332928503E0,-1.761468453E0,-1.297404183E0,2.561782020E0
1.394362917E1,8.682086865E-1,-9.530099049E-1,1.683682358E-1,1.300139248E0
1.395360017E1,1.367579395E0,1.093349805E0,1.602247016E0,2.373369482E0
1.396357017E1,1.742716140E0,1.213089087E0,1.052545595E0,2.369914958E0
1.397354017E1,1.173055613E0,-2.309986398E-1,1.398127735E-2,1.195665221E0
1.398351117E1,2.068384709E0,-5.454423094E-1,-6.318618178E-1,2.230464520E0
1.399348117E1,1.563495618E0,5.521364942E-1,-1.522126713E0,2.250831621E0
1.400345117E1,1.717837772E-1,-1.377896369E-2,-9.490060240E-1,9.645268060E-1
1.401342117E1,1.515500996E-2,-9.354089087E-1,-6.251866364E-1,1.125201240E0
1.402339217E1,2.296701889E-1,-1.686036155E0,-5.162588561E-1,1.778198391E0
1.403336217E1,3.141813489E-1,-1.009986928E0,1.773693227E0,2.065132242E0
1.404333217E1,4.298053607E-1,-1.466869648E0,1.084077875E0,1.873943450E0
1.405330317E1,2.859891010E0,-2.259377869E0,4.429844731E0,5.736487539E0
1.406327317E1,1.805931704E0,-1.365701123E0,3.855808952E0,4.471441776E0
1.407324317E1,7.019776080E-1,1.612716456E0,1.419579415E0,2.260272692E0
1.408321317E1,2.596652285E0,3.056450719E-1,4.285682799E0,5.020268822E0
1.409318417E1,-2.861976529E-1,-5.822087243E-1,2.290420445E0,2.380525553E0
1.410315417E1,2.486375844E0,6.107872832E-1,-8.689108640E-1,2.703725584E0
1.411312417E1,1.211131147E0,1.651334977E0,-1.883848338E0,2.782558251E0
1.412309417E1,2.195296552E-1,5.626149970E-1,-3.129757261E-1,6.802078429E-1
1.413306517E1,8.855384450E-1,-2.232499096E-1,-1.700951525E0,1.930609994E0
1.414303517E1,1.180116565E0,1.675480469E0,-3.896175206E0,4.402282492E0
1.415300517E1,3.798590293E-1,7.496437445E-1,-3.388384872E0,3.491047216E0
1.416297517E1,2.928500667E-1,-9.550017589E-1,-2.993998362E0,3.156234420E0
1.417294617E1,1.061163222E0,-1.896455519E0,-2.196208352E-1,2.184226232E0
1.418291642E1,4.579429664E-1,-9.114300621E-1,6.565867692E-1,1.213063355E0
1.419288642E1,5.245514869E-1,3.978384134E-1,-2.196590175E0,2.293128444E0
1.420285742E1,1.452107914E0,-5.349374941E-1,1.017281038E0,1.851927705E0
1.421282742E1,1.801211978E0,-3.133821076E-1,2.170210462E0,2.837672705E0
1.422279742E1,1.225962829E0,5.247937444E-1,-1.485275221E0,1.996105161E0
1.423276742E1,2.316293935E0,-3.109520048E-1,-1.607145814E0,2.836340320E0
1.424273842E1,-5.640558241E-1,5.100596380E-1,-1.423613994E0,1.614000189E0
1.425270842E1,1.259850001E0,1.363833815E-2,-1.553839672E0,2.000456387E0
1.426267842E1,2.043621605E0,-2.790877200E0,1.800281686E0,3.899538301E0
1.427264942E1,4.455291448E-1,-2.556045126E0,5.700799034E0,6.263463301E0
1.428261942E1,6.660447136E-1,1.550231355E-1,3.229218400E0,3.300833108E0
1.429258942E1,1.530607661E0,2.394121984E-1,2.298649816E0,2.771979255E0
1.430255942E1,-4.308352746E-2,2.192124072E0,9.238606578E-1,2.379239931E0
1.431253042E1,-5.249633867E-1,1.475333785E0,-1.863432199E0,2.434045172E0
1.432250042E1,1.464091636E0,-1.819417868E0,1.895070899E-1,2.343023396E0
1.433247042E1,2.896772761E-1,-3.595789120E-1,-1.096166993E0,1.189450291E0
1.434244042E1,-2.659812885E-1,1.440701897E0,-2.629399323E0,3.010001462E0
1.435241142E1,-5.310947771E-1,-3.450325012E-1,-1.949153550E0,2.049465455E0
1.436238142E1,-1.146253950E0,-5.709794390E-1,-8.267056614E-1,1.524256504E0
1.437235142E1,4.753377386E-1,-7.508701980E-2,-7.197969246E-1,8.658473531E-1
1.438232242E1,1.803002103E-1,-2.260617771E0,-5.345875382E-2,2.268426484E0
1.439229242E1,-8.066297581E-1,-1.471765522E0,-6.387884295E-1,1.795771694E0
1.440226242E1,-3.792906068E-2,9.605557367E-1,3.412136847E-1,1.020065055E0
1.441223242E1,-1.490293010E0,6.695936081E-1,-2.007163192E0,2.588055821E0
1.442220342E1,-1.130858670E0,-3.547900423E-1,-1.518777428E0,1.926499982E0
1.443217342E1,-6.542805543E-1,-1.188030552E0,-1.513233683E0,2.032086567E0
1.444214342E1,-1.174365170E0,-1.752510226E0,-8.600798142E-1,2.278192909E0
1.445211442E1,-3.376207899E-1,-5.853980881E-1,-9.727024502E-1,1.184410729E0
1.446208442E1,1.729298388E0,-2.529979408E0,6.260626663E0,6.970417128E0
1.447205442E1,1.071727240E0,-8.093242282E-1,5.812439922E0,5.965573135E0
1.448202442E1,5.754025653E-3,1.332883041E0,1.063498015E0,1.705179855E0
1.449199542E1,2.243478705E-1,-1.093615853E0,4.646112188E0,4.778356000E0
1.450196542E1,-1.493906881E0,-1.005222325E0,2.572391310E0,3.139972411E0
1.451193542E1,-2.388119378E0,2.329846466E0,-5.609215849E0,6.526453950E0
1.452190642E1,-1.331773239E0,1.006979121E0,-1.246310627E0,2.083486763E0
1.453187642E1,-1.786978247E0,-2.081303548E0,1.797193771E0,3.279484893E0
1.454184642E1,-9.571774348E-1,5.178718105E-1,-2.892305927E0,3.090277241E0
1.455181642E1,-1.349144732E0,1.541458778E0,-3.523587116E0,4.075776348E0
1.456178742E1,-1.045979611E0,-1.404191590E0,1.079212407E0,2.056824442E0
1.457175742E1,-1.101529913E0,-1.889489731E0,2.375217351E0,3.228807374E0
1.458172742E1,-4.315286813E-1,1.654221455E0,-7.725341320E-3,1.709597995E0
1.459169842E1,1.889293849E-2,7.412904122E-1,2.300637285E0,2.417188518E0
1.460166842E1,3.520048673E-1,-6.141102558E-1,3.139526204E0,3.218332429E0
1.461163842E1,-2.885986841E-1,1.221231627E0,-1.438017440E-1,1.263081482E0
1.462160842E1,-7.031741676E-1,2.084685870E0,-1.824609611E0,2.858245846E0
1.463157942E1,-2.120382829E0,8.498808083E-1,-2.621216730E0,3.476938003E0
1.464154942E1,-2.623430486E0,9.279443532E-2,-3.305312895E0,4.220911235E0
1.465151942E1,-1.894447293E0,-4.520491192E-1,-9.608747023E-1,2.171764063E0
1.466149042E1,-1.193042054E0,-1.020132725E0,8.143341225E-1,1.768377839E0
1.467146042E1,-1.015748921E0,-1.598300146E0,1.517820824E0,2.426950613E0
1.468143042E1,-1.237980246E0,2.808976087E-1,-6.537713349E-2,1.271130491E0
1.469140042E1,-3.009870922E0,1.157485282E0,-2.466542673E0,4.059917228E0
1.470137142E1,-1.259246276E0,-2.442058627E0,1.004494931E0,2.925467756E0
1.471134142E1,4.699249345E-1,-3.417928222E0,3.183317757E-1,3.464736338E0
1.472131142E1,-6.746422403E-1,7.899006549E-1,-1.416567514E0,1.756629932E0
1.473128142E1,-1.196019603E0,1.219130430E0,1.167250425E-1,1.711831368E0
1.474125242E1,-1.304074101E0,-1.266261620E0,4.176635150E0,4.555031167E0
1.475122242E1,2.303031135E-1,-1.833112924E0,2.655707116E0,3.235138761E0
1.476119242E1,-4.973268874E-1,1.236911813E0,7.208190179E-1,1.515541132E0
1.477116342E1,-1.080851966E0,2.307437596E0,2.218451745E0,3.378466720E0
1.478113342E1,-5.560168527E-1,1.044792480E0,2.232972720E0,2.527234306E0
1.479110342E1,8.302973136E-2,8.425013298E-1,1.429369408E0,1.661264377E0
1.480107342E1,-1.490900243E0,-2.813358575E-1,-8.891574329E-1,1.758560303E0
1.481104442E1,-2.459516074E0,1.191692078E0,-3.497859367E0,4.438960405E0
1.482101442E1,-2.867856087E0,1.393554627E0,-2.645853388E0,4.143323930E0
1.483098442E1,-2.925155584E0,1.088330847E0,-1.431656839E0,3.433750214E0
1.484095542E1,-2.627814728E0,-3.445772955E-1,-1.633032022E0,3.113027039E0
1.485092542E1,-2.828171911E0,-1.386936164E0,1.570822325E0,3.519890774E0
1.486089542E1,-1.465934240E0,-1.107509715E0,2.946113759E0,3.472049430E0
1.487086542E1,-9.789113161E-1,-1.307290362E0,2.351591676E0,2.863085550E0
1.488083642E1,-3.762570713E-1,-1.513666669E0,1.243351352E0,1.994662566E0
1.489080642E1,-9.249106716E-1,1.969355680E0,-3.872209808E0,4.441602227E0
1.490077642E1,-1.660533670E0,-8.562092498E-1,1.956127524E-2,1.868381383E0
1.491074742E1,-1.256264781E0,-1.900257086E0,2.691276898E0,3.525925345E0
1.492071742E1,-2.113119710E0,-3.631869364E-1,1.630712432E-1,2.150295768E0
1.493068742E1,-2.909278347E0,9.411385953E-1,1.529842114E-1,3.061543161E0
1.494065742E1,-2.088710800E0,8.610615617E-1,1.402855209E0,2.659350025E0
1.495062842E1,-1.220097852E0,2.206800583E-1,1.291813660E0,1.790564433E0
1.496059842E1,-9.600530224E-1,-9.116177577E-1,1.753204583E0,2.196923998E0
1.497056842E1,-1.230519637E0,-4.945528221E-1,3.619251072E-1,1.374682092E0
1.498053842E1,-2.966388980E0,-1.050798739E0,4.601758718E-4,3.147005208E0
1.499050942E1,-2.487245910E0,-6.178589058E-1,2.729053420E0,3.743778093E0
1.500047942E1,-4.596309114E-1,-9.327294222E-1,1.232707665E0,1.612703611E0
1.501044942E1,-1.999429518E0,-2.584191576E-1,-4.856235391E-1,2.073723483E0
1.502042042E1,-2.211254846E0,5.679809868E-2,1.777654715E0,2.837768543E0
1.503039042E1,-1.965538179E0,-1.126468727E0,1.826232798E0,2.909879441E0
1.504036042E1,-1.564441844E0,-6.846007794E-2,2.319743646E0,2.798816830E0
1.505033042E1,-2.027482851E0,1.592987950E0,-5.848151207E-2,2.579092362E0
1.506030142E1,-3.044698108E0,-3.689221779E-1,8.025701094E-1,3.170237991E0
1.507027142E1,-2.868470922E0,-9.884650818E-1,2.293072157E0,3.803073568E0
1.508024142E1,-2.094536089E0,7.556140441E-1,-9.220866126E-1,2.410036874E0
1.509021142E1,-2.513544347E0,-3.101307634E-1,-9.867036080E-1,2.718026910E0
1.510018242E1,-1.982427569E0,-1.370217220E0,7.402879071E-1,2.521019731E0
1.511015242E1,-1.158375082E0,1.549400758E0,-1.035916114E-1,1.937319479E0
1.512012242E1,-1.054334551E0,-3.784756511E-1,-2.114911589E0,2.393264756E0
1.513009342E1,-1.584851111E0,-1.465083324E0,-1.142104474E0,2.441848648E0
1.514006342E1,-1.239428162E0,-1.934455404E0,3.175059149E0,3.919094345E0
1.515003342E1,1.711787000E-2,-1.985569132E0,1.568862923E0,2.530634046E0
1.516000342E1,6.829065487E-2,-1.568357139E0,2.528268220E0,2.975995283E0
1.516997442E1,2.314892212E-1,-3.932541963E-1,5.647049088E0,5.665456692E0
1.517994442E1,2.067617116E0,1.205323400E0,2.588927820E0,3.525676147E0
1.518991488E1,-4.924587880E-1,-2.927221406E-1,9.915585512E-1,1.145159495E0
1.519988587E1,-1.521372423E0,4.384829941E-1,1.286871008E0,2.040313303E0
1.520985588E1,-1.102367673E0,-4.291107845E-1,-2.328361273E-3,1.182943774E0
1.521982588E1,-2.053499599E0,-1.542496366E0,-1.699060535E0,3.079441888E0
1.522979588E1,-3.841915968E0,-1.144166202E0,8.616632402E-1,4.100231474E0
1.523976687E1,-6.335553177E-1,-5.993863821E-1,7.343681860E-1,1.140154818E0
1.524973688E1,7.815144320E-1,1.096104428E-1,-1.553688229E0,1.742620547E0
1.525970688E1,-1.134185736E0,6.214964586E-1,-2.786439164E0,3.071950251E0
1.526967688E1,1.013960111E0,-4.233173633E-1,-1.575511208E0,1.920819685E0
1.527964787E1,1.014673179E0,-2.460997174E0,7.625523502E-1,2.769035001E0
1.528961788E1,-1.176866171E-1,8.414704657E-1,-2.637414687E0,2.770898575E0
1.529958788E1,-4.684419344E-1,2.960082757E-1,-1.243992791E0,1.361828480E0
1.530955887E1,-8.111096755E-2,-1.442709830E0,1.790253711E0,2.300651863E0
1.531952887E1,-4.230828899E-1,9.289032966E-2,-1.386874768E0,1.452945067E0
1.532949888E1,-1.036603600E0,3.914506227E-1,-2.027001041E0,2.310089572E0
1.533946888E1,1.069648555E0,-2.013286104E0,1.635149884E0,2.805563064E0
1.534943987E1,1.093762472E0,-2.968699214E0,7.508252914E0,8.147598001E0
1.535940988E1,2.563822800E-1,1.548998470E0,2.400928143E0,2.868725166E0
1.536937988E1,-6.855401346E-1,3.590588021E-1,2.142419230E0,2.277904444E0
1.537934988E1,-4.926995471E-2,-7.960425702E-1,1.907126103E0,2.067181965E0
1.538932087E1,1.693380112E0,2.661322197E-1,-1.645338657E0,2.376026485E0
1.539929088E1,-9.812138034E-1,1.180159615E0,-3.004336824E0,3.373662253E0
1.540926088E1,1.122577989E0,-1.742902958E-1,-2.654307877E0,2.887197388E0
1.541923187E1,2.304458148E0,-2.527189701E0,-1.703583357E0,3.820917612E0
1.542920187E1,-2.980417912E-1,-5.219388413E-1,-2.381413060E-1,6.464985267E-1
1.543917188E1,1.971802448E-1,5.297197312E-1,1.154454963E0,1.285398500E0
1.544914188E1,1.568636928E-1,1.773972139E-1,-1.959869742E-2,2.376133384E-1
1.545911287E1,-9.879221678E-2,-7.418903366E-1,-1.883898039E0,2.027124316E0
1.546908288E1,1.768171262E0,-5.135410702E-1,-6.742471147E-1,1.960806777E0
1.547905288E1,1.174459822E0,3.341505405E-1,1.673084865E0,2.071285934E0
1.548902288E1,1.638424909E-1,5.744848448E-1,-4.595209837E-2,5.991567358E-1
1.549899387E1,3.006104730E-1,-3.355290216E-1,1.663210087E0,1.723140788E0
1.550896388E1,1.053443727E0,-1.531348942E0,-5.448102254E-1,1.936902540E0
1.551893388E1,-4.603634213E-1,1.440013679E0,-2.309643166E0,2.760439355E0
1.552890487E1,-2.702746797E-1,1.007556533E0,9.183274376E-1,1.389799933E0
1.553887487E1,1.491639039E0,-2.532513007E0,2.684305263E0,3.980465286E0
1.554884488E1,-4.125528585E-1,-1.344194187E0,-1.020278905E0,1.737246936E0
1.555881488E1,-8.010129958E-2,1.196071351E0,8.821811199E-2,1.201992233E0
1.556878587E1,2.481609486E0,3.660260519E-1,6.724473417E-1,2.597026403E0
1.557875588E1,8.240886670E-1,-1.200851449E-1,-2.222551813E0,2.373452998E0
1.558872588E1,1.147580464E0,-3.792767197E-1,-4.491564431E0,4.651337742E0
1.559869588E1,1.429912322E0,-7.749639425E-1,-1.749203918E0,2.388500096E0
1.560866687E1,1.674946326E0,-2.854370946E-1,-1.553171335E0,2.302012321E0
1.561863688E1,1.364289605E0,-8.071420473E-1,2.238232291E-1,1.600893891E0
1.562860688E1,1.490339495E0,-1.818451616E0,1.624785109E0,2.857937148E0
1.563857688E1,2.202989075E0,-1.170118192E0,4.493924367E-1,2.534618514E0
1.564854787E1,2.029823199E0,-1.127781719E-2,1.953761741E0,2.817355915E0
1.565851788E1,1.955560637E0,7.158328047E-1,8.044055504E-1,2.232420726E0
1.566848788E1,1.568818046E0,1.841624132E0,-3.145888560E0,3.968549399E0
1.567845887E1,1.034626803E0,8.407185137E-1,-1.465753123E0,1.981336028E0
1.568842888E1,1.265125506E0,-6.938908356E-1,-1.967124383E0,2.439591231E0
1.569839888E1,1.254306549E0,-2.218582723E-1,-2.896259814E0,3.163989084E0
1.570836888E1,6.151165617E-1,2.222859376E0,-7.268340486E-1,2.418214202E0
1.571833987E1,2.105405186E0,-9.679685444E-2,3.057795578E0,3.713787073E0
1.572830988E1,2.907494946E0,-2.170763023E0,2.769638359E0,4.564716377E0
1.573827988E1,-1.488505589E-1,1.777515259E0,-1.573894452E0,2.378836004E0
1.574824988E1,2.752402229E0,4.339174882E-1,7.575272530E-1,2.887533542E0
1.575822087E1,1.717260871E0,-2.020698619E0,9.899055433E-1,2.830568988E0
1.576819088E1,1.686290947E-1,1.345549864E0,-3.836281006E0,4.068905525E0
1.577816088E1,1.204743283E0,8.535236236E-1,-6.408197522E-1,1.609521329E0
1.578813088E1,7.524517237E-1,-1.949384808E0,1.040357074E0,2.334229545E0
1.579810187E1,7.483624734E-1,-5.216435570E-1,-5.642627424E-1,1.072637327E0
1.580807188E1,3.493740223E-1,-7.585703963E-1,9.631422526E-1,1.274807535E0
1.581804188E1,1.054253128E0,-5.687501881E-1,8.504512042E-1,1.469079197E0
1.582801287E1,2.017037970E0,-1.109615297E0,9.982138520E-1,2.509206881E0
1.583798288E1,4.634885388E-1,3.204534379E-1,8.020304114E-1,9.801861110E-1
1.584795288E1,4.051187451E-1,5.764366454E-1,2.797179329E-1,7.580517962E-1
1.585792288E1,1.436059207E0,-6.473002213E-1,7.148911107E-1,1.729836097E0
1.586789387E1,1.519440795E0,-8.094540364E-1,1.821051580E0,2.506021753E0
1.587786388E1,9.888789915E-1,4.638686809E-1,-2.901733392E-1,1.130157679E0
1.588783388E1,1.261735875E0,9.169045177E-1,-1.996380342E0,2.533421753E0
1.589780388E1,1.326781179E0,7.591138950E-1,-2.714908420E0,3.115658828E0
1.590777487E1,1.244759215E0,-5.490477026E-1,-1.644291421E0,2.134144596E0
1.591774488E1,8.844285703E-1,-1.316845590E0,-1.719783068E-2,1.586376995E0
1.592771488E1,8.048682844E-1,-1.241153383E-1,-1.321866009E0,1.552593739E0
1.593768487E1,9.476740283E-1,-6.317653388E-1,3.940063237E0,4.101379258E0
1.594765588E1,1.453454966E0,-3.133762604E-1,2.068227419E0,2.547214297E0
1.595762588E1,8.443468572E-1,1.187625048E0,-1.712545384E0,2.248596576E0
1.596759588E1,1.988847081E0,6.981897086E-1,9.456526458E-1,2.310246850E0
1.597756587E1,8.003544532E-2,5.948366636E-1,-1.107729278E0,1.259881138E0
1.598753688E1,-4.100205025E-1,-4.554367036E-1,-1.973458672E0,2.066416834E0
1.599750688E1,-1.176344672E-1,7.049607843E-1,-3.896242449E0,3.961251418E0
1.600747688E1,-8.617311410E-1,-2.681039008E-1,-4.255618755E0,4.350258756E0
1.601744787E1,-7.832796698E-2,-2.569142597E0,-4.111381978E-1,2.603010482E0
1.602741788E1,-1.109970077E0,-1.730834013E0,-7.527863306E-1,2.189636319E0
1.603738788E1,6.048078474E-1,-1.304459433E0,6.070965207E-1,1.560760433E0
1.604735787E1,3.112255814E-1,-7.288525075E-1,1.017696775E0,1.289881415E0
1.605732888E1,-9.978675507E-1,-5.681558186E-1,-6.855901283E-1,1.337375978E0
1.606729888E1,7.420433874E-1,2.483920598E-1,-1.948485214E0,2.099743230E0
1.607726888E1,-9.911716117E-1,-2.940336710E-1,-3.745854986E-1,1.099632329E0
1.608723887E1,2.614328125E-1,-5.166245994E-1,7.416193181E-1,9.408758182E-1
1.609720988E1,1.279908875E0,-1.389370652E0,1.230025547E0,2.254213917E0
1.610717988E1,7.937138434E-1,-5.235947728E-1,1.774097269E0,2.012847305E0
1.611714988E1,-1.311854260E-1,2.424465525E0,-1.056449196E0,2.647891161E0
1.612711987E1,1.179137083E0,1.160476425E-1,3.610287291E-1,1.238617398E0
1.613709088E1,2.203948311E0,-2.302642295E0,1.107584267E0,3.374358102E0
1.614706088E1,-7.376170452E-1,2.989404205E0,-4.217241139E0,5.221660582E0
1.615703087E1,9.110964053E-1,2.318481525E0,-2.256305450E0,3.361006921E0
1.616700087E1,1.022157250E0,-1.510744816E0,1.495474520E0,2.358728340E0
1.617697188E1,-6.759159100E-1,-2.147585830E-1,1.376645064E-1,7.224507476E-1
1.618694217E1,1.264461262E0,2.365243755E0,-1.571542702E0,3.108534505E0
1.619691217E1,-9.079829092E-1,-1.235507897E-1,1.278442247E0,1.572931130E0
1.620688317E1,2.513472060E-1,-3.182829514E-1,1.736581534E0,1.783310090E0
1.621685317E1,9.905200857E-1,-4.285979837E-2,1.290952365E0,1.627736161E0
1.622682317E1,-6.037701128E-1,1.057748740E0,1.039219791E0,1.601046070E0
1.623679317E1,4.914504357E-1,-1.150498152E-1,1.414503447E0,1.501858845E0
1.624676417E1,1.327734567E-1,-1.910861304E-1,5.008455956E-1,5.522581015E-1
1.625673417E1,-7.353195280E-2,4.600788081E-1,4.699933469E-1,6.617954396E-1
1.626670417E1,5.172610688E-1,8.097791415E-1,-5.396722770E-1,1.102065079E0
1.627667417E1,1.114330638E0,-1.962381122E-1,6.434673715E-1,1.301649886E0
1.628664517E1,9.035962549E-1,-8.282496187E-1,1.533375002E0,1.963090044E0
1.629661517E1,6.770898116E-1,-1.377378890E-1,2.036951832E0,2.150952139E0
