"Time (s)","Linear Acceleration x (m/s^2)","Linear Acceleration y (m/s^2)","Linear Acceleration z (m/s^2)","Absolute acceleration (m/s^2)"
3.120749956E-3,-1.815463981E0,-1.379692926E0,2.480346780E0,3.369210914E0
1.309074997E-2,-1.860588260E0,-2.147709206E0,2.501028382E0,3.785444026E0
2.305974998E-2,-1.750054980E0,-1.751166828E0,1.577002832E0,2.935339099E0
3.302974999E-2,-1.908734672E0,-4.225665808E-1,1.378434312E-1,1.959803912E0
4.299975000E-2,-1.223587470E0,8.711947864E-1,-1.413502403E0,2.062555623E0
5.296874995E-2,-7.459620452E-1,1.199268608E0,-2.201381384E0,2.615489354E0
6.293874996E-2,3.471446617E-1,1.325891232E0,-2.125703210E0,2.529251098E0
7.290874998E-2,1.013423922E0,1.406519659E0,-1.583378052E0,2.347852561E0
8.287774998E-2,1.406220427E0,1.233842025E0,-1.810963964E0,2.603730499E0
9.284775000E-2,1.556350759E0,1.194188547E0,-2.001429997E0,2.802505309E0
1.028177500E-1,1.845942739E0,1.229409251E0,-1.594660839E0,2.731646919E0
1.127877500E-1,2.247553922E0,1.417912374E0,-8.267202795E-1,2.783063160E0
1.227567500E-1,2.097515392E0,1.775593572E0,-3.345712477E-1,2.768436611E0
1.327267500E-1,1.392464122E0,2.372382328E0,-1.225569969E0,3.011507262E0
1.426967500E-1,6.356780031E-1,2.242348146E0,-7.774750292E-1,2.456965436E0
1.526657500E-1,6.183520453E-1,1.775177542E0,4.255311191E-2,1.880272673E0
1.626357500E-1,3.407631567E-1,1.559990066E0,-7.890870148E-1,1.781108321E0
1.726057500E-1,5.546448401E-1,2.180181718E0,-3.032085371E-1,2.269968863E0
1.825747500E-1,1.033413652E0,3.208339454E0,-6.540461540E-1,3.433534942E0
1.925447500E-1,9.189938740E-1,3.673620238E0,-5.293887788E-1,3.823648502E0
2.025147500E-1,1.983580933E0,3.034841456E0,3.216407150E-1,3.639822623E0
2.124837500E-1,1.801126024E0,1.576540610E0,-2.533487445E-1,2.407014922E0
2.224537500E-1,1.270698341E0,8.175307953E-1,-1.712652973E0,2.283902599E0
2.324237500E-1,1.028865541E0,1.015568388E0,-1.669452574E0,2.208396556E0
2.423937500E-1,4.245116936E-1,1.628631992E0,-1.694872175E0,2.388565267E0
2.523627500E-1,-3.329824861E-1,3.655753193E0,-2.492531208E0,4.437129767E0
2.623327500E-1,-4.873886673E-1,5.274648110E0,-1.901190594E0,5.627964647E0
2.723027500E-1,-4.189747824E-1,4.704596039E0,-2.041782802E0,5.145642892E0
2.822717500E-1,9.309626129E-2,3.159848787E0,-2.186116642E0,3.843490243E0
2.922417500E-1,7.473637690E-1,1.645502964E0,-1.702833159E0,2.483117672E0
3.022117499E-1,5.177100984E-1,1.551137089E0,-2.444182920E0,2.940761834E0
3.121807500E-1,6.391949572E-2,2.850689539E0,-2.343697350E0,3.690993608E0
3.221507500E-1,-6.893577086E-1,3.914732514E0,-2.455445243E0,4.672211045E0
3.321207500E-1,-1.601318625E0,3.522584611E0,-2.172476842E0,4.437620906E0
3.420907500E-1,-2.496668405E0,2.127841537E0,-1.832370036E0,3.757478234E0
3.520597500E-1,-2.438760505E0,8.078630090E-1,-1.641437979E0,3.048690552E0
3.620297500E-1,-3.000098178E0,4.735961089E-1,-1.256727442E0,3.286981323E0
3.719997500E-1,-2.745004039E0,1.275247328E0,-1.327292225E0,3.304997364E0
3.819687500E-1,-1.767618700E0,2.885379023E0,-2.261191968E0,4.069751478E0
3.919387500E-1,-3.355326761E0,2.912401637E0,-2.095092452E0,4.912200459E0
4.019087500E-1,-3.073543592E0,2.088955214E0,-1.014424673E0,3.852202164E0
4.118777500E-1,-3.806284498E0,1.179106239E0,-1.893275803E-1,3.989227761E0
4.218477500E-1,-4.791930929E0,4.012242436E-2,6.828010064E-1,4.840498843E0
4.318183333E-1,-5.274175070E0,-9.517662022E-1,1.629685661E0,5.601665549E0
4.417883333E-1,-5.509965211E0,-1.138064925E0,1.440669737E0,5.807791119E0
4.517573333E-1,-5.645280890E0,-1.979905519E0,5.829913741E-1,6.010748800E0
4.617273333E-1,-4.733245642E0,-2.342460372E0,3.680307698E-1,5.293975967E0
4.716973333E-1,-4.201357470E0,-1.354019848E0,1.372042136E0,4.622474875E0
4.816663333E-1,-3.314534538E0,-1.054823670E0,2.878322895E0,4.514812828E0
4.916363333E-1,-3.121695413E0,-2.123418411E0,3.434084371E0,5.103608866E0
5.016063333E-1,-2.388304296E0,-3.560721613E0,4.008156987E0,5.869246821E0
5.115753333E-1,-1.489310093E0,-3.749676726E0,3.681353180E0,5.461728787E0
5.215453333E-1,-4.114718911E-1,-2.665100960E0,3.046794042E0,4.068786819E0
5.315153333E-1,-5.271789698E-1,-3.179901813E0,3.362220921E0,4.657705737E0
5.414853333E-1,-3.141313187E-1,-4.189043527E0,2.248136889E0,4.764544430E0
5.514543333E-1,3.551518023E-1,-3.861428711E0,4.656827796E-1,3.905588937E0
5.614243333E-1,6.401738542E-1,-3.607595817E0,7.050753897E-1,3.731179633E0
5.713943333E-1,8.225868096E-1,-4.258584170E0,1.975782355E0,4.766120446E0
5.813633333E-1,1.506744297E0,-3.777020060E0,1.524981909E0,4.343009180E0
5.913333333E-1,2.784411057E0,-3.490988596E0,5.362007850E-1,4.497494591E0
6.013033333E-1,2.200662761E0,-2.797779838E0,6.194177735E-1,3.613055077E0
6.112723333E-1,3.073271696E0,-7.365927592E-1,-2.293628812E-1,3.168623541E0
6.212423333E-1,4.301283462E0,-1.388137767E-1,-4.601074594E-1,4.328048933E0
6.312123333E-1,3.279173502E0,2.402655995E-1,1.429256557E0,3.585175131E0
6.411823333E-1,2.497971165E0,-6.915004939E-2,2.229428138E0,3.348879140E0
6.511513333E-1,2.189388306E0,4.736390859E-2,1.813189414E0,2.843118067E0
6.611213333E-1,7.766593426E-1,3.372717842E-1,-4.685572708E-1,9.677282196E-1
6.710913333E-1,1.005213335E0,1.388862237E0,-2.444981650E0,2.986189450E0
6.810603333E-1,-3.703084065E-1,2.801639585E0,-3.062485045E0,4.167148586E0
6.910303333E-1,-1.400930159E0,3.111900449E0,-2.992286882E0,4.538756493E0
7.010003333E-1,-1.193469632E0,1.739424157E0,-2.327601719E0,3.141288896E0
7.109693333E-1,-1.060440579E0,1.617393936E0,-2.687113096E0,3.310751298E0
7.209393333E-1,-9.993715277E-1,2.390399061E0,-2.071032913E0,3.316915503E0
7.309093333E-1,-1.496247668E0,2.856297896E0,-1.842510277E0,3.713763438E0
7.408793333E-1,-2.279627946E0,2.179156409E0,-1.045996129E0,3.322579439E0
7.508483333E-1,-2.691329816E0,1.496127946E0,-1.864551941E0,3.599751234E0
7.608183333E-1,-3.132322727E0,2.011628126E0,-3.104993134E0,4.847584527E0
7.707883333E-1,-3.447856025E0,3.244847715E0,-2.526171994E0,5.366404085E0
7.807573333E-1,-3.085666916E0,3.468418344E0,-2.788553517E0,5.415468294E0
7.907273333E-1,-2.086396765E0,2.524549391E0,-1.377435023E0,3.552988648E0
8.006973333E-1,-1.334977952E0,2.451472644E0,-1.019274353E0,2.971666950E0
8.106663333E-1,-1.072094957E0,2.575488288E0,-1.117078391E0,3.005061005E0
8.206363333E-1,-1.119300186E0,2.437282037E0,-8.470604038E-1,2.812594525E0
8.306063333E-1,-1.194612763E0,2.331775170E0,-1.956872460E0,3.270110842E0
8.405763333E-1,-5.618441513E-1,3.092165219E0,-2.238791285E0,3.858670887E0
8.505453333E-1,-4.566559942E-1,5.141177226E0,-1.763994450E0,5.454531546E0
8.605153333E-1,-7.141960960E-2,4.698741222E0,-7.265463656E-1,4.755117186E0
8.704853333E-1,8.172287866E-1,2.879197346E0,-4.505361521E-1,3.026652123E0
8.804543333E-1,1.099505461E0,1.898786512E0,-1.618298793E0,2.726388354E0
8.904243333E-1,2.003907609E0,2.418963295E0,-2.063008195E0,3.758062258E0
9.003943333E-1,2.435603301E0,4.550574532E0,-1.525657847E0,5.382148630E0
9.103643333E-1,2.739835685E0,5.783436563E0,-1.250803043E0,6.520686031E0
9.203333333E-1,2.846855519E0,5.008625525E0,-1.250053430E0,5.895214125E0
9.303033333E-1,2.957069395E0,2.970624995E0,-7.880146354E-1,4.264954787E0
9.402733333E-1,4.363279736E0,1.355564682E0,-1.753777025E0,4.894026922E0
9.502423333E-1,4.656287805E0,1.023272972E0,-2.544820518E0,5.404092447E0
9.602123333E-1,5.208796767E0,1.706699046E0,-1.715016418E0,5.743314958E0
9.701823333E-1,5.088151166E0,2.206922790E0,-2.785689551E-1,5.553142458E0
9.801513333E-1,4.577069435E0,1.123907062E0,1.035651235E0,4.825484968E0
9.901213333E-1,4.820636665E0,-3.592482519E-1,1.991654622E0,5.228220089E0
1.000091333E0,4.079544181E0,-1.661549185E0,2.670559044E0,5.151243736E0
1.010061333E0,3.725371605E0,-2.140870011E0,3.505875900E0,5.545528272E0
1.020030333E0,2.326326442E0,-2.760834499E0,3.108742953E0,4.764271675E0
1.030000333E0,1.735868904E0,-3.048527741E0,2.005123683E0,4.040703309E0
1.039970333E0,8.811821962E-1,-2.769074687E0,1.632926772E0,3.333272646E0
1.049939333E0,3.966973293E-1,-2.962338321E0,7.148653829E-1,3.073084707E0
1.059909333E0,5.904683915E-1,-2.830492086E0,8.532116747E-1,3.014682161E0
1.069879333E0,9.401825025E-1,-3.357924972E0,1.046236449E0,3.640633731E0
1.079848333E0,9.029792275E-1,-3.825313969E0,6.910444111E-1,3.990731865E0
1.089818333E0,1.282347895E0,-3.552959727E0,1.365241240E0,4.016444022E0
1.099788333E0,8.179548647E-1,-2.873361240E0,1.226934709E0,3.229647621E0
1.109758333E0,-1.494548028E0,-4.565458911E0,1.088160752E1,1.189480858E1
1.119727333E0,1.294353105E0,-5.199620147E0,1.387163270E1,1.487056130E1
1.129697333E0,-6.684362979E-1,-4.219397885E0,7.967536501E0,9.040562122E0
1.139667333E0,-3.113981766E0,-6.806910387E-1,6.721760309E-1,3.257613136E0
1.149636333E0,-3.093520896E0,2.959216492E0,-1.013005787E1,1.099749546E1
1.159606333E0,-2.868854207E0,-1.590911312E0,-9.978800930E0,1.050417970E1
1.169576333E0,5.592270106E-1,-5.976917421E0,-8.456164339E0,1.037029373E1
1.179546333E0,-1.173107434E0,-3.978774143E0,7.785754752E-1,4.220545523E0
1.189515333E0,1.612753878E0,2.451365640E0,3.446999701E0,4.526806326E0
1.199485333E0,1.681234568E-1,2.177351666E0,-7.299997312E-1,2.302612730E0
1.209455333E0,-6.797106068E-1,-1.523784399E-1,-4.776636075E0,4.827160437E0
1.219424333E0,-1.165681836E0,9.931934327E-1,-4.012568711E0,4.294875435E0
1.229394333E0,-7.228242474E-1,3.930926670E0,-4.979184794E-1,4.027726678E0
1.239364333E0,-6.026677664E-1,3.642952469E0,1.930516720E0,4.166678045E0
1.249333333E0,-3.020728982E-1,5.611792132E-1,-1.015937932E0,1.199291469E0
1.259303333E0,-1.180253390E0,-6.363466322E-1,-2.615129194E0,2.938849401E0
1.269273333E0,-6.048428576E-1,1.124525989E0,1.160921398E0,1.725726536E0
1.279243333E0,-2.765765346E-1,2.879737337E0,2.536924438E0,3.847774333E0
1.289212333E0,8.714094523E-2,2.303754435E0,1.226880330E-1,2.308664202E0
1.299182333E0,2.820805918E-1,1.838759288E0,-4.079467290E0,4.483598839E0
1.309152333E0,-3.945736571E-1,2.878087545E0,-5.656505790E0,6.358862637E0
1.319121333E0,-1.547006616E-1,4.888862270E0,-6.913369473E0,8.468741586E0
1.329091333E0,-4.198239443E-1,4.215989543E0,-8.357801308E0,9.370360861E0
1.339061333E0,-8.020595744E-1,3.151417687E0,-8.209844533E0,8.830417898E0
1.349031333E0,-8.841719507E-1,4.606181260E0,-4.416551671E0,6.442405956E0
1.359000333E0,-1.730451020E0,1.090343751E1,1.837125576E0,1.119171304E1
1.368970333E0,-2.635355882E0,9.258803446E0,5.787244270E0,1.123221875E1
1.378940333E0,-1.973745916E-1,3.578487501E0,5.633633822E0,6.677002288E0
1.388909333E0,-8.459731506E-2,-1.494614979E0,4.315981901E-1,1.557981912E0
1.398879333E0,-4.065450345E0,-6.913759482E0,-2.522104086E0,8.407673025E0
1.408849333E0,-3.701369369E0,-4.118769935E0,-6.833501769E0,8.795518598E0
1.418819333E0,-4.387312377E0,4.279544392E0,-1.332314984E1,1.466524230E1
1.428787625E0,-4.483234780E0,9.181510856E0,-6.728126172E0,1.223385538E1
1.438757625E0,-1.945106254E0,4.913122952E0,7.039808494E0,8.802336003E0
1.448727625E0,-1.152690711E0,-6.739851594E-2,1.209045153E1,1.214546239E1
1.458696625E0,-1.842057703E0,-7.140534970E-1,1.135820471E1,1.152874075E1
1.468666625E0,1.035331027E0,1.554246346E0,4.627927932E0,4.990521915E0
1.478636625E0,1.228608474E0,2.086134517E-1,7.929993868E-3,1.246218777E0
1.488605625E0,-7.128283592E-1,-3.404151597E0,-1.338221256E0,3.726554507E0
1.498575625E0,-1.471903078E0,-2.012074268E0,-6.023643690E-1,2.564719159E0
1.508545625E0,-3.407590637E0,1.335281861E0,-5.194069970E-1,3.696543686E0
1.518515625E0,-3.285061356E0,2.035745844E0,-4.950521743E-1,3.896275902E0
1.528484625E0,-3.915455815E0,-1.909361201E0,-1.616256360E0,4.646368373E0
1.538454625E0,-2.193761292E0,-5.971423377E0,-1.217114895E0,6.477025121E0
1.548424625E0,-5.233324521E-1,-6.807908506E0,-4.169830745E-1,6.840714142E0
1.558393625E0,1.277075753E0,-4.933321574E0,5.009221941E-1,5.120498733E0
1.568363625E0,4.649907031E0,-3.076447027E0,-1.285333775E0,5.721734407E0
1.578333625E0,4.093923361E0,8.577096453E-1,-1.838425997E0,4.568991625E0
1.588302625E0,1.655295880E0,2.667548897E0,1.646665975E0,3.545043075E0
1.598272625E0,1.529113551E0,1.965357647E0,2.852396926E0,3.786421418E0
1.608242625E0,2.018001481E-1,4.689285690E-1,1.361321266E0,1.453895764E0
1.618212625E0,2.610349826E-1,-2.902252918E0,4.867350948E-1,2.954339573E0
1.628181625E0,1.083076101E0,-4.964886013E0,1.160333169E0,5.212438971E0
1.638151625E0,6.868135120E-1,-5.186531739E0,8.001096010E-1,5.292636362E0
1.648121625E0,4.439831775E-1,-4.722882914E0,-1.304246594E0,4.919736096E0
1.658090625E0,9.953198458E-1,1.798147452E-1,-2.685322679E0,2.869486509E0
1.668060625E0,1.624672696E0,6.532120487E0,-2.480971847E0,7.173798208E0
1.678030625E0,2.279948666E0,6.610179647E0,-5.092480445E-1,7.010846914E0
1.687999625E0,-1.253639199E-1,4.517680435E0,1.504956365E0,4.763407004E0
1.697969625E0,-1.079694656E0,8.612586129E-1,2.206060910E0,2.602731582E0
1.707939625E0,-1.811082224E-1,-1.997337238E0,1.523023676E0,2.518284605E0
1.717909625E0,-4.165243970E-2,-1.110865432E0,3.733768791E-1,1.172675244E0
1.727878625E0,7.215712622E-1,4.847558123E-1,-9.664921224E-2,8.746395567E-1
1.737848625E0,7.414172968E-1,9.153281084E-1,-3.556136227E-1,1.230441467E0
1.747818625E0,9.658723906E-1,8.613793579E-1,-3.489144677E-1,1.340382475E0
1.757787625E0,1.462264966E0,1.731224022E0,-1.400630928E0,2.664042500E0
1.767757625E0,1.426591103E0,2.161879349E0,-1.285371782E0,2.891550642E0
1.777727625E0,1.471962427E0,1.258048913E0,-1.284580069E0,2.323683801E0
1.787697625E0,1.095469128E0,4.741261590E-1,-1.932068571E0,2.271065210E0
1.797666625E0,1.139223477E0,-4.879486844E-1,-3.998390383E-1,1.302227057E0
1.807636625E0,1.292916445E0,4.900028113E-1,2.155026412E-1,1.399348804E0
1.817606625E0,1.873333728E0,8.838469917E-1,9.576546407E-1,2.282031370E0
1.827575625E0,2.684750529E0,4.094062525E-1,-1.091078746E0,2.926764717E0
1.837545625E0,3.056579942E0,-1.018873234E0,5.269323635E-1,3.264726838E0
1.847515625E0,3.389535896E0,-1.250684929E0,2.893805737E0,4.628960794E0
1.857485625E0,2.835255228E0,2.719218403E-1,2.465675531E0,3.767249596E0
1.867454625E0,3.463138601E0,2.126548718E0,-6.982569516E-1,4.123481682E0
1.877424625E0,2.820931304E0,1.487421734E0,-2.624922110E0,4.130410745E0
1.887394625E0,3.490788037E0,-1.055182689E0,-2.199298605E0,4.258629590E0
1.897363625E0,2.993109878E0,-1.226769525E0,-7.774340987E-1,3.326871501E0
1.907333625E0,1.740388656E0,-6.084793872E-1,3.452488482E-1,1.875738949E0
1.917303625E0,1.348309019E0,-1.331031812E0,1.548890004E0,2.447170435E0
1.927272625E0,6.954102346E-1,-1.251474596E0,1.600172424E0,2.147169264E0
1.937242625E0,-2.885130589E-1,-1.346850285E0,8.036939442E-1,1.594731774E0
1.947212625E0,-1.828962717E0,-1.148298722E0,1.520437453E0,2.641102918E0
1.957182625E0,-2.888873903E0,-1.101866567E0,2.084235342E0,3.728771825E0
1.967151625E0,-4.119991418E0,-9.696282765E-1,1.729856066E0,4.572407494E0
1.977121625E0,-4.311988837E0,1.459263298E-1,-1.932265037E-1,4.318782086E0
1.987091625E0,-4.304481012E0,4.970311645E-1,1.306811768E-1,4.335051826E0
1.997060625E0,-4.514127959E0,-7.474030915E-1,6.425856113E-1,4.620484702E0
2.007030625E0,-4.653518856E0,-8.994052631E-1,8.025367802E-1,4.807102335E0
2.017000625E0,-4.599115192E0,-6.561292246E-1,1.254542922E0,4.812093521E0
2.026970625E0,-4.449578499E0,2.847193488E-1,2.092490441E-1,4.463585900E0
2.036939625E0,-4.032922869E0,4.221955749E-1,-4.444918853E-1,4.079251035E0
2.046909625E0,-3.244190488E0,2.891790202E-1,-2.131418864E0,3.892472581E0
2.056879625E0,-2.145367689E0,7.491332826E-1,-3.104131839E0,3.847003726E0
2.066848625E0,-1.269723464E0,1.506157967E0,-1.876134106E0,2.720402301E0
2.076818625E0,-1.176003560E0,1.493575052E0,9.354960322E-1,2.118703291E0
2.086788625E0,2.399887338E-1,-6.616466573E-1,2.686214379E0,2.776890092E0
2.096757625E0,1.288460574E0,-1.829655758E0,3.057796748E0,3.789180887E0
2.106727625E0,9.617585090E-1,4.686885408E-1,1.183444873E0,1.595365208E0
2.116697625E0,2.702724139E-1,2.195669239E0,-2.199131960E-1,2.223144709E0
2.126666625E0,-5.907784767E-1,1.894920333E0,-6.785670376E-1,2.097664296E0
2.136636625E0,-2.046043083E-1,4.712738872E-1,3.090271014E-1,5.995496219E-1
2.146606625E0,-8.615170598E-2,-6.965913722E-1,1.244047170E0,1.428395960E0
2.156576625E0,-6.789333656E-2,-6.598065385E-1,2.048335192E0,2.153051609E0
2.166545625E0,-1.193562018E0,6.058101332E-1,3.002584999E0,3.287417357E0
2.176515625E0,-1.455655858E0,-6.860552743E-1,1.424529083E0,2.149160051E0
2.186485625E0,-1.667930544E0,-1.821658229E0,-3.668554795E-1,2.497000990E0
2.196454625E0,-2.007905350E0,-1.816360944E0,-1.603004816E0,3.146502091E0
2.206424625E0,-1.198670072E0,-1.943294933E0,-1.655315176E0,2.820154866E0
2.216394625E0,-1.654948556E0,-1.348745952E0,-1.425196835E0,2.566935212E0
2.226364625E0,-2.041652701E0,-1.426312776E0,-2.267503452E-1,2.500825785E0
2.236333625E0,-1.931418653E0,-1.896836173E0,4.821368444E-1,2.749694786E0
2.246303625E0,-1.438862655E0,-8.852935928E-1,5.379198664E-1,1.772971592E0
2.256273625E0,-1.708730222E0,4.418047974E-1,1.285491065E0,2.183446297E0
2.266242625E0,-2.172965377E0,8.125694329E-1,2.914135337E-1,2.338155141E0
2.276212625E0,-2.205279137E0,8.654001957E-1,-9.214024884E-1,2.541880430E0
2.286182625E0,-1.840207351E0,7.160780954E-1,-1.161640021E0,2.290968894E0
2.296151625E0,-1.388290818E0,1.776877328E0,-6.601728666E-1,2.349568609E0
2.306121625E0,-1.722361397E0,1.915803371E0,3.599247748E-1,2.601226092E0
2.316091625E0,-1.432019074E0,2.042161994E0,2.917094028E-1,2.511214569E0
2.326061625E0,-1.368662592E0,1.556988105E0,-6.441438943E-1,2.170799532E0
2.336030625E0,-9.957231575E-1,1.419103159E0,-9.655758637E-1,1.984352572E0
2.346000625E0,-6.139151050E-1,1.389414506E0,-9.462461382E-1,1.789621798E0
2.355970625E0,-1.037828738E0,1.485954668E0,-1.018070412E0,2.078849953E0
2.365939625E0,-1.660202718E0,9.795808223E-1,-8.004686201E-1,2.087247389E0
2.375909625E0,-2.076078914E0,4.788255662E-1,-1.097870872E0,2.396809970E0
2.385879625E0,-1.849400051E0,2.798445252E-1,-5.913254106E-1,1.961698052E0
2.395848625E0,-1.742711462E0,-4.441574246E-2,-4.393165147E-1,1.797780576E0
2.405818625E0,-1.020148951E0,4.664376551E-1,-5.497558004E-1,1.249199507E0
2.415788625E0,-7.237837024E-1,2.134154776E-1,1.081682271E-1,7.623053058E-1
2.425758625E0,-1.136850020E-1,7.714102972E-1,-5.387215197E-2,7.816011355E-1
2.435727958E0,4.098982957E-1,1.043974454E0,8.645511800E-1,1.416103109E0
2.445697958E0,2.405100314E-1,7.455153179E-1,8.318529654E-1,1.142636215E0
2.455667958E0,2.812616344E-1,-5.368597662E-1,1.823002796E0,1.921110541E0
2.465636958E0,8.244132605E-1,-1.864384711E0,2.484690676E0,3.213918999E0
2.475606958E0,6.430446178E-1,-1.483241560E0,1.228405868E0,2.030392298E0
2.485576958E0,1.864677949E0,-1.589389866E0,1.306139338E-1,2.453618552E0
2.495546958E0,2.236751191E0,-9.915056339E-1,5.047491968E-2,2.447179403E0
2.505515958E0,1.601957141E0,-1.382122151E0,-3.679068089E-3,2.115783982E0
2.515485958E0,1.240028379E0,-1.605522042E0,1.229544321E0,2.372161598E0
2.525455958E0,1.073447783E0,-7.972289702E-1,1.198910758E0,1.795898433E0
2.535424958E0,9.151255023E-1,-1.049629881E0,9.675978309E-1,1.695707267E0
2.545394958E0,-3.126460163E-1,-9.026425740E-1,-2.296762919E-1,9.824776572E-1
2.555364958E0,-1.256499839E0,-9.955264717E-1,-1.006304060E0,1.892752668E0
2.565333958E0,-1.825873341E0,-5.282222593E-1,-1.165966376E0,2.229867664E0
2.575303958E0,-1.877594740E0,-3.770357743E-1,-3.564345717E-2,1.915408165E0
2.585273958E0,-7.947930202E-1,4.760601255E-1,6.314408183E-2,9.286099090E-1
2.595243958E0,3.281281642E-1,9.126837051E-1,-6.819274324E-1,1.185615731E0
2.605212958E0,1.313139478E0,-1.190785468E-3,-8.793820578E-1,1.580395366E0
2.615182958E0,1.723617379E0,-4.927644512E-1,3.012602448E-2,1.792925334E0
2.625152958E0,1.388002111E0,-1.683229199E-1,1.468019503E-1,1.405856778E0
2.635121958E0,1.466056885E0,1.142256501E0,-5.170973468E-1,1.929109217E0
2.645091958E0,1.616027296E0,-7.151524812E-2,-7.984080613E-2,1.619578095E0
2.655061958E0,1.524833682E0,-5.320080391E-1,2.190542400E-2,1.615125431E0
2.665030958E0,1.729068446E0,1.114087540E-1,3.122699672E-1,1.760568696E0
2.675000958E0,2.127721815E0,1.540474691E0,9.386073357E-1,2.789488507E0
2.684970958E0,2.029691344E0,1.630641096E0,7.188286257E-1,2.700990916E0
2.694940958E0,2.076616420E0,1.029612231E0,-6.556342578E-1,2.408795006E0
2.704909958E0,2.094240074E0,1.462490084E0,-2.428573778E0,3.524583568E0
2.714879958E0,2.020240490E0,1.639605754E0,-3.635174210E0,4.470365780E0
2.724849958E0,1.785915954E0,1.134845448E0,-1.189400847E0,2.427353365E0
2.734818958E0,2.396443913E0,1.549565358E0,7.580780607E-1,2.952757791E0
2.744788958E0,2.454595934E0,2.740424792E0,9.416712767E-1,3.797593190E0
2.754758958E0,2.942450479E0,2.474523830E0,-1.536946481E-1,3.847714263E0
2.764727958E0,2.762362376E0,1.175737951E0,-1.336216246E0,3.286103997E0
2.774697958E0,2.989698320E0,3.062774482E-1,-1.276713810E0,3.265287135E0
2.784667958E0,2.831921146E0,4.276074654E-1,8.788446987E-1,2.995829355E0
2.794637958E0,2.809805807E0,5.919265044E-1,1.577837815E0,3.276424549E0
2.804606958E0,2.239928568E0,-2.724565682E-1,1.280540813E0,2.594474387E0
2.814576958E0,2.254019334E0,-1.668210626E0,-4.799651885E-1,2.844977405E0
2.824546958E0,6.065410352E-1,-2.416263928E0,-2.078492206E-1,2.499884936E0
2.834515958E0,-4.465790124E-1,-2.491661142E0,1.310987849E0,2.850701177E0
2.844485958E0,-1.151448909E0,-1.881568216E0,1.341239004E0,2.581676898E0
2.854455958E0,-1.643128994E0,-1.771638807E0,2.182175034E-1,2.426148354E0
2.864424958E0,-1.860834574E0,-2.107287697E0,5.311581463E-1,2.861030535E0
2.874394958E0,-2.165581952E0,-1.876115395E0,1.794054401E0,3.380559918E0
2.884364958E0,-2.095954477E0,-5.714928246E-1,2.745844284E0,3.501326899E0
2.894334958E0,-1.753996588E0,-9.871649534E-2,2.409115414E0,2.981624734E0
2.904303958E0,-1.174964291E0,1.569480389E-1,1.710571364E0,2.081160293E0
2.914273958E0,-4.940030011E-1,-5.405107677E-2,5.779750478E-1,7.622438192E-1
2.924243958E0,-7.643334121E-3,-1.590045047E-1,-1.806877345E-1,2.408088671E-1
2.934212958E0,2.527480162E-1,-7.338881296E-1,-7.089497548E-1,1.051229329E0
2.944182958E0,9.545254301E-1,6.788403949E-1,-1.660978205E0,2.032434913E0
2.954152958E0,1.230918709E0,7.345026720E-1,-9.709792757E-1,1.731316204E0
2.964121958E0,1.913863850E0,1.773369876E-1,-5.994559640E-1,2.013372965E0
2.974091958E0,1.333710275E0,5.482913652E-1,-5.281152552E-1,1.535679733E0
2.984061958E0,1.897502463E0,1.258738007E0,-8.939392859E-1,2.446234743E0
2.994031958E0,1.680027410E0,1.530270715E0,-4.061914533E-1,2.308508622E0
3.004000958E0,1.647379628E0,9.822749269E-1,5.243198276E-1,1.988374952E0
3.013970958E0,1.574473034E0,5.437758529E-1,2.076913458E-1,1.678628371E0
3.023940958E0,1.878885221E0,-1.124331862E-2,-4.759855735E-1,1.938272001E0
3.033909958E0,9.782790128E-1,8.649730566E-1,-1.075817513E-1,1.310260298E0
3.043879958E0,1.155387886E-1,3.798456538E-1,-6.110808134E-2,4.017040328E-1
3.053849958E0,-3.067573585E-2,5.257640898E-2,1.156257659E-1,1.306698025E-1
3.063819958E0,-2.204712762E-1,-4.031666887E-1,-5.140702432E-1,6.895064738E-1
3.073788958E0,-2.229772466E-1,1.509104964E-1,-1.470288223E0,1.494737532E0
3.083758958E0,-5.368547596E-1,1.479330942E-1,-1.965702340E0,2.043057249E0
3.093728958E0,-1.108293315E-1,1.008728608E0,-1.446584780E0,1.767038220E0
3.103697958E0,5.953616705E-2,4.274732718E-1,8.426065797E-1,9.467121006E-1
3.113667958E0,3.744594180E-1,-1.552716422E-1,1.438937792E0,1.494948530E0
3.123637958E0,5.435239476E-1,1.759219614E-1,-1.674154320E0,1.768943048E0
3.133606958E0,6.565905699E-1,2.318394694E-1,-4.132125560E0,4.190384512E0
3.143576958E0,2.941099772E-1,-1.341638369E0,-2.060826598E0,2.476590491E0
3.153546958E0,5.121564496E-1,-7.363857678E-1,-1.559516734E-1,9.104334969E-1
3.163516958E0,4.340779211E-1,5.145631635E-1,-1.915968847E-1,6.999344663E-1
3.173485958E0,3.519918207E-1,-1.793633401E-3,4.824520093E-1,5.972113531E-1
3.183455958E0,-3.632660565E-1,-1.423743217E0,4.007772825E0,4.268635612E0
3.193425958E0,-1.077992678E0,-9.900125474E-2,3.426206417E0,3.593154585E0
3.203394958E0,-4.812719681E-1,1.774930497E0,1.102106595E0,2.143977594E0
3.213364958E0,-6.844358148E-1,1.765190206E0,-1.461353093E0,2.391631600E0
3.223334958E0,-7.575594127E-1,-1.131693214E0,6.703090149E-1,1.517873503E0
3.233303958E0,-1.658330439E0,-9.583788183E-1,6.127542865E-1,2.010974296E0
3.243273958E0,-1.515492316E0,9.406506452E-1,4.256562495E-1,1.833773116E0
3.253243958E0,-1.396322992E0,1.849405021E0,5.192999929E-1,2.374803005E0
3.263213958E0,-1.141656138E0,3.529429069E-1,3.517860353E-1,1.245672850E0
3.273182958E0,-9.937618551E-1,-1.095261844E0,-2.408058822E-2,1.479101419E0
3.283152958E0,-1.869030689E-1,-1.366919391E0,2.977010447E-1,1.411391969E0
3.293122958E0,8.848953243E-2,8.518913734E-1,-9.624926269E-2,8.618661323E-1
3.303091958E0,-1.931136159E-1,9.790291375E-1,-2.716031671E-1,1.034194953E0
3.313061958E0,1.048483973E-1,-6.919624239E-1,-6.542964149E-1,9.580756656E-1
3.323031958E0,-3.482625762E-1,-1.325077885E0,6.578626317E-1,1.519835999E0
3.333000958E0,1.426245533E-3,-7.010718012E-1,1.024753779E-1,7.085230467E-1
3.342970958E0,2.397102967E-1,2.283410802E-1,-1.027291471E-1,3.466323022E-1
3.352940958E0,-2.296211637E-1,-2.715175053E-1,-2.576224744E-2,3.565267562E-1
3.362910958E0,3.953371938E-1,-2.281758964E-2,-5.574355334E-1,6.837737295E-1
3.372879958E0,7.026638518E-1,3.347168434E-1,-8.591694027E-1,1.159285951E0
3.382849958E0,4.450758029E-1,1.016964703E0,-9.816364110E-2,1.114426210E0
3.392819958E0,-1.816543889E-1,-6.060639024E-2,5.213184518E-1,5.553776910E-1
3.402788958E0,-9.433039655E-1,-4.281825390E-1,6.824279541E-1,1.240512221E0
3.412758958E0,-6.926705217E-1,-2.366706728E0,1.050040648E0,2.680238525E0
3.422728958E0,-8.430591542E-1,-1.354278003E0,-8.648435408E-1,1.814599679E0
3.432699083E0,-9.385564649E-1,1.001195055E0,-6.697704864E-1,1.527046915E0
3.442668083E0,-8.919787145E-1,1.187502548E0,1.381734481E0,2.028540979E0
3.452638083E0,-1.177410400E0,-3.904525030E-1,1.936741666E0,2.299938409E0
3.462608083E0,-5.786413015E-1,-5.096237281E-1,-2.729907113E-1,8.179645643E-1
3.472577083E0,-1.267611943E-1,-7.214762449E-1,-1.313855909E0,1.504265176E0
3.482547083E0,-1.647706268E-1,-4.656085199E-1,4.467991966E-1,6.660106421E-1
3.492517083E0,-5.731358556E-2,-3.555487186E-1,4.485288030E-1,5.752198062E-1
3.502486083E0,-1.077446420E-1,-1.626967290E-1,-9.132269114E-1,9.338428804E-1
3.512456083E0,8.389734853E-2,-4.810442922E-1,-7.516946554E-2,4.940575115E-1
3.522426083E0,4.488782289E-2,2.379404542E-1,-1.895392495E-1,3.074991114E-1
3.532396083E0,2.093953341E-1,8.975826859E-2,2.052185583E-1,3.066229107E-1
3.542365083E0,3.289767049E-1,4.813886932E-1,-1.099147904E-1,5.933312796E-1
3.552335083E0,2.168973300E-1,7.205962390E-1,-1.635891311E0,1.800678697E0
3.562305083E0,6.381824387E-1,1.577549547E-1,-1.752136881E0,1.871402442E0
3.572274083E0,6.756321739E-1,4.299103913E-1,-7.951055539E-1,1.128492189E0
3.582244083E0,8.334206404E-2,6.244633359E-1,5.129779834E-1,8.124326242E-1
3.592214083E0,4.124594492E-1,-7.725429028E-2,2.832572526E-1,5.062861777E-1
3.602183083E0,7.281121038E-1,1.285927268E0,-2.793577445E-1,1.503927167E0
3.612153083E0,6.183956071E-1,1.172867260E0,7.231777847E-2,1.327878231E0
3.622123083E0,1.341466168E0,1.611961873E0,8.346549511E-1,2.257122382E0
3.632093083E0,1.190527167E0,2.341416351E0,2.661067843E-2,2.626840991E0
3.642062083E0,1.057124550E0,2.185504731E0,-1.000047539E0,2.625650076E0
3.652032083E0,1.265619449E0,1.424477043E0,-1.409113483E0,2.369921569E0
3.662002083E0,1.425892800E0,-2.247342253E-1,-1.297064459E0,1.940631845E0
3.671971083E0,1.404836245E0,-1.278048437E0,-9.862124419E-1,2.139997118E0
3.681941083E0,1.655963779E0,-1.466023264E0,1.101445860E-1,2.214401065E0
3.691911083E0,1.043493009E0,-1.265124629E0,6.778068995E-1,1.774497162E0
3.701880083E0,6.042504250E-1,-1.454997169E0,2.262771885E0,2.757221780E0
3.711850083E0,4.134674727E-1,-1.483434810E0,2.446382643E0,2.890730396E0
3.721820083E0,8.396788971E-2,-1.098534531E0,1.908729994E-1,1.118150806E0
3.731790083E0,-1.268895863E-1,-3.787931550E-1,-1.568916133E0,1.618975928E0
3.741759083E0,-1.513544371E-1,-2.299022868E-1,-7.586446559E-1,8.070346592E-1
3.751729083E0,-8.500360519E-1,-5.174084187E-1,7.415058821E-1,1.241009160E0
3.761699083E0,-9.392155192E-1,2.624239156E-1,1.991779752E0,2.217696707E0
3.771668083E0,-2.880378630E-1,8.002236217E-2,2.429081317E0,2.447407901E0
3.781638083E0,-8.437671789E-1,-9.309609318E-1,1.617135197E0,2.047866586E0
3.791608083E0,-1.324346690E0,-1.070639219E0,2.332968879E-1,1.718892065E0
3.801578083E0,-8.439782634E-1,-1.779632244E-1,-4.010254383E-1,9.512053513E-1
3.811547083E0,-1.046160253E-1,1.058405382E0,-2.504315686E-1,1.092649274E0
3.821517083E0,-1.615527761E-1,7.900254929E-1,2.970373857E-1,8.593432303E-1
3.831487083E0,-5.481382412E-1,-2.249219209E-2,-4.921227193E-1,7.369845324E-1
3.841456083E0,-4.615475190E-1,-5.778464091E-1,-1.230328433E0,1.435493169E0
3.851426083E0,-6.613299575E-1,-1.035801216E0,-7.483383536E-2,1.231195181E0
3.861396083E0,-6.043445286E-1,-6.833377808E-2,1.468787243E0,1.589728838E0
3.871365083E0,-8.526477473E-2,4.776599237E-1,2.143912024E0,2.198132811E0
3.881335083E0,-5.132559088E-1,1.863615510E0,7.255429834E-1,2.064680851E0
3.891305083E0,-4.230798567E-1,1.835938299E0,-2.543172188E0,3.165026190E0
3.901275083E0,-5.872052797E-1,8.683530396E-1,-3.938088632E0,4.075216450E0
3.911244083E0,-9.299709251E-1,-9.165373126E-1,-2.512248019E0,2.831303000E0
3.921214083E0,-8.398979301E-1,-1.065534015E0,-3.542699325E-1,1.402247644E0
3.931184083E0,-8.775645970E-1,-3.473456597E-1,-5.499972904E-1,1.092366994E0
3.941153083E0,-1.146905696E0,7.657294348E-1,-3.246075338E0,3.526859699E0
3.951123083E0,-1.350601858E0,-4.756581295E-1,-1.827340261E0,2.321540106E0
3.961093083E0,-6.009259540E-1,-9.223626012E-1,1.598488426E0,1.940883824E0
3.971063083E0,-8.481074940E-1,6.724675146E-1,1.048340278E0,1.506823220E0
3.981032083E0,-1.464901841E-1,1.590152928E0,-5.954383421E-1,1.704286516E0
3.991002083E0,-6.310991216E-1,1.855415082E-1,6.902702397E-1,9.535118019E-1
4.000972083E0,-1.018437032E0,-1.790730259E-1,2.017800447E0,2.267333187E0
4.010941083E0,-1.059504440E0,1.178371829E0,1.264699536E0,2.027455238E0
4.020911083E0,-7.063626543E-1,2.528391012E0,5.333005661E-1,2.678827878E0
4.030881083E0,-8.771974649E-1,1.552724901E0,-1.289758948E0,2.200888037E0
4.040850083E0,-9.198334611E-1,7.189063936E-2,-1.728766730E0,1.959565326E0
4.050820083E0,-1.044499242E0,-5.473634121E-1,-2.604086727E0,2.858645318E0
4.060790083E0,-7.741820236E-1,1.378118563E-1,-2.100498202E0,2.242864822E0
4.070760083E0,-4.218619182E-1,-1.404553825E0,-5.968136072E-1,1.583327321E0
4.080729083E0,-2.673799790E-1,-3.864380678E0,1.905109983E0,4.316755046E0
4.090699083E0,-1.831248540E-1,-3.435300299E0,1.983587219E0,3.971075561E0
4.100669083E0,5.511583647E-2,-5.592689279E-1,8.215162575E-2,5.679510355E-1
4.110638083E0,9.170967449E-1,-6.347538507E-1,3.619068055E0,3.787034786E0
4.120608083E0,1.275041799E0,-1.125150180E0,6.013350252E0,6.249166006E0
4.130578083E0,1.097240981E0,-1.258830686E0,3.711869214E0,4.070204605E0
4.140547083E0,1.087036858E0,1.309156794E0,-1.953078786E0,2.590377846E0
4.150517083E0,9.135026807E-1,1.935728051E0,-6.054215273E0,6.421452546E0
4.160487083E0,5.021486476E-1,2.052369186E0,-1.186735920E1,1.205398635E1
4.170457083E0,1.050447541E0,-1.691292802E0,-1.598427966E1,1.610779649E1
4.180426083E0,1.095751841E0,-5.242313007E0,-1.196944223E1,1.311297316E1
4.190396083E0,7.675346164E-1,-5.868166811E0,-3.727797030E0,6.994352136E0
4.200366083E0,-5.600826776E-1,-1.658427649E0,1.372229481E1,1.383349015E1
4.210335083E0,-3.087800858E0,2.620189374E0,2.076865511E1,2.115979540E1
4.220305083E0,-8.107730951E-1,1.495389150E0,1.814781728E1,1.822736442E1
4.230275083E0,1.388790316E0,5.971638554E-1,1.927144631E0,2.449332488E0
4.240245083E0,1.591844162E-2,1.221766940E0,-3.676992327E0,3.874692301E0
4.250214083E0,2.298136138E0,2.518345495E0,-1.451678056E1,1.491175414E1
4.260184083E0,1.177909533E0,-1.906668266E0,-1.015590724E1,1.040025513E1
4.270154083E0,-2.817361871E0,-2.066928168E0,-5.185337738E0,6.252795169E0
4.280123083E0,-3.449038917E0,1.493323037E0,1.734689375E0,4.139448076E0
4.290093083E0,-1.437239029E0,2.782633796E0,9.190464697E0,9.709446340E0
4.300063083E0,-1.856124788E-1,1.590872428E0,1.023266248E1,1.035725390E1
4.310033083E0,1.731456449E0,2.575575703E-1,3.404610311E0,3.828269675E0
4.320002083E0,2.657704525E0,2.765557295E0,-2.674367920E0,4.675889676E0
4.329972083E0,2.133537894E0,2.397558100E0,-2.359670189E0,3.983505013E0
4.339942083E0,1.939106864E0,-1.226806363E0,-1.923550347E0,2.994200264E0
4.349911083E0,1.197188827E0,-4.289165985E0,-3.814356871E0,5.863405519E0
4.359881083E0,-1.223791611E0,-4.281481282E0,-5.177886046E0,6.829293652E0
4.369851083E0,-1.707603902E0,-3.745439833E-1,-4.581391697E0,4.903605221E0
4.379820083E0,-1.031473326E0,4.235813358E0,-2.373512303E0,4.963830444E0
4.389790083E0,-4.363254447E-1,8.333858129E0,-3.207914654E0,8.940597723E0
4.399760083E0,-8.741264342E-1,7.869505007E0,-6.875665457E0,1.048656195E1
4.409730083E0,-1.186531691E0,7.833628246E0,-9.368480254E0,1.226955628E1
4.419699083E0,-5.622492537E-1,6.409536535E-1,-7.211697924E0,7.261923488E0
4.429669083E0,1.162599403E0,-5.287861648E0,5.302165107E0,7.577999274E0
4.439638583E0,1.911346623E0,-1.343349147E1,3.379376769E1,3.641607713E1
4.449607583E0,-1.407255823E0,-3.502212912E0,2.424969671E1,2.454167181E1
4.459577583E0,1.021348799E0,1.221216015E1,3.117983308E0,1.264522949E1
4.469547583E0,5.874971800E0,6.768105340E0,5.780580198E0,1.066478556E1
4.479517583E0,1.433573848E0,-1.734401107E-1,2.028840575E0,2.490262944E0
4.489486583E0,2.145442533E0,1.226769233E0,-1.531323799E0,2.907376651E0
4.499456583E0,2.272546676E-1,2.455180071E0,-5.911028071E0,6.404670696E0
4.509426583E0,-2.225652152E0,-8.532754093E-1,-8.776768928E0,9.094684120E0
4.519395583E0,-8.881782436E-1,-6.500065466E0,-7.351300782E0,9.852986088E0
4.529365583E0,-1.535971458E0,-7.835428019E0,-5.722652417E-1,8.005037668E0
4.539335583E0,-2.075510273E0,-4.035959035E0,7.648265662E0,8.893406314E0
4.549304583E0,-1.240261975E0,6.080542946E-1,8.325099000E0,8.438913032E0
4.559274583E0,3.048493024E-1,1.275244112E0,4.209421073E0,4.408900817E0
4.569244583E0,4.696904977E-1,-1.511688556E0,2.802564615E-1,1.607592964E0
4.579214583E0,8.692668132E-1,-3.524996880E0,-3.237582842E0,4.864480491E0
4.589183583E0,1.360471666E0,-5.369844874E0,-7.060258546E0,8.974038548E0
4.599153583E0,1.541303534E0,-5.985742623E0,-7.546008385E0,9.754331032E0
4.609123583E0,-8.260363014E-1,-2.396534545E0,-1.170513171E1,1.197646952E1
4.619092583E0,-1.297966539E0,6.998188598E0,-5.529135307E0,9.012807445E0
4.629062583E0,2.088994098E0,1.557150015E1,2.873671903E1,3.275109973E1
4.639032583E0,4.642813116E-1,1.902988613E1,1.917730263E1,2.702075238E1
4.649002583E0,-4.639843827E-1,-1.661685425E0,-1.615024352E-1,1.732790523E0
4.658971583E0,-1.087049869E0,-2.171173615E1,-1.011490891E1,2.397691695E1
4.668941583E0,-4.499571316E-1,-1.632072260E1,-1.034747957E1,1.932973826E1
4.678911583E0,9.572603922E-1,-1.530435607E0,-4.859687587E0,5.184124232E0
4.688880583E0,3.876768005E0,3.498681193E0,4.228059658E0,6.719121127E0
4.698850583E0,1.103275819E0,6.909157723E-1,7.178156540E0,7.295239095E0
4.708820583E0,-9.661786386E-1,-2.947578487E-1,2.684536228E0,2.868295332E0
4.718789583E0,-4.024442652E0,1.875234219E0,-1.616576788E0,4.725035719E0
4.728759583E0,-5.421231959E0,4.285354770E0,-2.471188286E0,7.338991279E0
4.738729583E0,-3.038531049E0,2.786804615E0,-2.182612991E0,4.665056309E0
4.748699583E0,5.240812794E-2,1.121333117E0,-2.231098688E0,2.497586020E0
4.758668583E0,7.748233900E-1,2.639903846E-1,-2.449216204E0,2.582383051E0
4.768638583E0,1.346315264E0,1.037271206E0,-2.129855903E0,2.724845411E0
4.778608583E0,1.055013266E0,-1.057166065E0,-3.009932025E0,3.360110694E0
4.788577583E0,7.214719326E-1,-4.996907705E0,-4.138717711E0,6.528291710E0
4.798547583E0,1.813841196E-1,-2.947146962E0,-5.154002509E0,5.939892026E0
4.808517583E0,9.084581416E-2,9.561723715E0,-3.937291657E0,1.034103858E1
4.818487583E0,-1.084573061E0,1.814083103E1,1.454123011E0,1.823130612E1
4.828456583E0,-6.271788559E-1,8.565684443E0,5.372994184E0,1.013081289E1
4.838426583E0,-4.985049552E-1,-4.429075530E0,1.597073985E0,4.734539318E0
4.848396583E0,-2.451692938E-1,-8.810701489E0,-4.432866572E0,9.866046562E0
4.858365583E0,-4.923680100E-1,-4.747792345E0,-5.613256860E0,7.368351985E0
4.868335583E0,-1.835161058E0,1.134769142E-2,-2.384354795E0,3.008835766E0
4.878305583E0,-2.190563450E0,2.607221419E0,-5.538131833E-2,3.405765530E0
4.888274583E0,-3.123151954E0,3.313484963E0,1.963888534E0,4.958842496E0
4.898244583E0,-4.615235381E0,3.659506521E0,1.623264833E0,6.109613271E0
4.908214583E0,-4.992555622E0,4.328687900E-1,-2.288477415E-1,5.016508579E0
4.918184583E0,-4.830212942E0,-2.578397277E0,-4.313827786E0,6.970523636E0
4.928153583E0,-3.679284436E0,-2.705411958E0,-4.800248886E0,6.625615230E0
4.938123583E0,-1.877862104E0,6.307002684E-1,1.706515735E-1,1.988283398E0
4.948093583E0,-1.975191055E0,3.163621995E0,1.814845930E0,4.147716189E0
4.958062583E0,-1.004130065E0,1.993708749E0,3.297154859E0,3.981756136E0
4.968032583E0,-1.605288738E0,-4.880521801E-1,3.194023424E0,3.607898626E0
4.978002583E0,-3.087568869E-1,-2.011302728E0,1.737498962E0,2.675737678E0
4.987972583E0,-3.176418042E-1,-2.477677234E0,5.831106573E-1,2.565111855E0
4.997941583E0,1.222820316E0,-2.602134342E0,2.427718915E0,3.763005685E0
5.007911583E0,1.510490608E0,-1.313278788E0,1.900840931E0,2.760340431E0
5.017881583E0,2.172565574E0,-2.944608101E-1,3.114332891E0,3.808650378E0
5.027850583E0,1.944630875E0,4.270300528E-1,2.257459105E0,3.009994272E0
5.037820583E0,2.795254426E0,5.151753670E-1,1.216819611E0,3.091844584E0
5.047790583E0,1.842220401E0,2.599923509E-1,-8.597991478E-1,2.049543023E0
5.057759583E0,1.030660198E0,-1.563004598E-1,-3.345395558E0,3.504049331E0
5.067729583E0,6.206622072E-1,-8.029215270E-1,-2.710665096E0,2.894410098E0
5.077699583E0,4.511850103E-1,3.616119888E-1,-2.952909393E0,3.008987376E0
5.087669583E0,9.765765229E-1,1.090605122E-1,-1.843186215E0,2.088763109E0
5.097638583E0,1.567161822E0,-1.890211862E-1,7.846770447E-1,1.762794160E0
5.107608583E0,2.110079742E0,-7.369953400E-1,1.787404363E0,2.861889761E0
5.117578583E0,2.394721762E0,3.143404663E-2,1.156416119E0,2.659507220E0
5.127547583E0,2.243294225E0,-6.392322332E-1,-1.830646276E-2,2.332664133E0
5.137517583E0,2.056129384E0,-1.010416114E0,3.617087603E-3,2.290987091E0
5.147487583E0,1.503590309E0,-9.406602931E-1,-3.272920489E-1,1.803536994E0
5.157457583E0,8.167820594E-1,1.473931038E-1,-4.890646255E-1,9.633492967E-1
5.167426583E0,5.106307283E-1,2.105193517E-1,4.531428409E-1,7.144232445E-1
5.177396583E0,5.243808579E-1,4.140299383E-1,9.755500442E-1,1.182410234E0
5.187366583E0,4.617344106E-1,8.531619734E-1,3.674331844E-1,1.037348140E0
5.197335583E0,1.116493596E0,1.134112792E0,5.806682754E-1,1.694091326E0
5.207305583E0,1.722387125E0,7.709740949E-1,-2.623704135E-2,1.887248486E0
5.217275583E0,2.018994156E0,4.116474903E-1,-3.443179715E-1,2.089101702E0
5.227244583E0,1.551895912E0,7.935253438E-1,-3.685271984E-1,1.781537451E0
5.237214583E0,1.731583187E0,-7.868422687E-2,2.716598850E-1,1.754528608E0
5.247184583E0,1.280713598E0,-7.806070903E-1,-3.919277555E-1,1.550220021E0
5.257154583E0,1.338713153E0,-1.392085222E0,-1.288968405E0,2.321959026E0
5.267123583E0,1.478302417E0,-6.080966869E-1,-1.150450205E0,1.969440349E0
5.277093583E0,1.018421537E0,1.141084135E-3,1.160192835E-1,1.025009367E0
5.287063583E0,-2.753576642E-1,-9.130365846E-1,9.550660783E-1,1.349669909E0
5.297032583E0,-1.333645225E0,-1.795165664E0,8.242469072E-1,2.383403514E0
5.307002583E0,-2.154797494E0,-1.642691038E0,1.008755797E-1,2.711413278E0
5.316972583E0,-2.857834544E0,-1.006658986E0,-5.230217457E-2,3.030398672E0
5.326942583E0,-2.794507737E0,-5.492707738E-1,3.561246693E-2,2.848199452E0
5.336911583E0,-2.620753630E0,-2.609013006E-1,8.095399904E-1,2.755317418E0
5.346881583E0,-1.896449526E0,-2.456035227E-2,2.508215779E0,3.144562038E0
5.356851583E0,-6.138064930E-1,1.058166816E0,2.325689680E0,2.627795256E0
5.366820583E0,-6.690207271E-1,1.384147042E0,1.857381501E0,2.411082289E0
5.376790583E0,-4.014746141E-1,-2.085277900E-1,-5.290455472E-1,6.960997745E-1
5.386760583E0,4.691989479E-2,-6.017828634E-1,-3.151397806E0,3.208683877E0
5.396729583E0,6.587332090E-1,-6.217961285E-1,-2.728269308E0,2.874719688E0
5.406699583E0,1.507530309E0,7.057408029E-1,-7.700204140E-1,1.834025395E0
5.416669583E0,2.267331837E0,1.103033086E0,5.862067580E-1,2.588651002E0
5.426639583E0,2.157094426E0,1.633388118E0,-1.071457829E0,2.910160646E0
5.436609083E0,1.581903968E0,1.396016597E0,-8.914619375E0,9.160879931E0
5.446579083E0,3.413731309E-1,-2.040791406E0,-9.396934560E0,9.622044705E0
5.456549083E0,7.020114579E-3,-7.349822021E0,-5.688869544E0,9.294254662E0
5.466518083E0,-1.444823051E-1,-6.745318741E0,2.123501266E1,2.228106736E1
5.476488083E0,1.640797417E0,9.316672754E0,1.551118612E1,1.816836542E1
5.486458083E0,1.454401630E0,1.133469189E1,-1.312756047E0,1.150277587E1
5.496428083E0,3.436238704E-1,-1.474352038E0,-2.579840078E0,2.991214824E0
5.506397083E0,-2.285800267E0,-2.768646086E0,-7.435504196E0,8.256936881E0
5.516367083E0,-1.666325447E-1,3.283484946E0,-9.493251650E0,1.004643552E1
5.526337083E0,-7.164710283E-1,4.344267514E0,-4.706692266E0,6.445071222E0
5.536306083E0,-8.309043277E-1,2.976919815E-1,-2.495179996E0,2.646685802E0
5.546276083E0,-1.273106955E0,-3.720016432E0,3.946344316E-1,3.951589542E0
5.556246083E0,-1.514475047E0,-4.735970736E0,1.473842862E1,1.555455984E1
5.566215083E0,-2.608425361E-1,2.878674313E0,1.324347685E1,1.355523823E1
5.576185083E0,3.528359760E-1,7.701454275E0,3.810109454E0,8.599640994E0
5.586155083E0,1.370531800E-1,3.836859881E0,-5.294774811E0,6.540253635E0
5.596125083E0,-3.952662963E-1,-3.696163593E0,-5.692317647E0,6.798554328E0
5.606094083E0,-9.760831641E-1,-6.644458948E0,-5.774977396E0,8.857309805E0
5.616064083E0,-4.652030886E-1,-8.401634960E0,-6.990315907E0,1.093930530E1
5.626034083E0,-4.754359718E-1,-3.148834972E0,-9.776177951E0,1.028177302E1
5.636003083E0,-9.437256228E-1,9.809642150E0,-3.503240560E0,1.045908178E1
5.645973083E0,-1.217548905E0,1.228866512E1,8.364095251E0,1.491481831E1
5.655943083E0,-1.326340591E0,6.102642497E-1,1.050914456E1,1.061007640E1
5.665912083E0,-1.897438582E0,-1.098176331E1,1.207199187E0,1.120967120E1
5.675882083E0,-1.267584406E0,-1.388370954E1,-4.682870709E0,1.470691806E1
5.685852083E0,-1.381694720E0,-4.688016844E0,1.797580272E-1,4.890694754E0
5.695822083E0,-2.906370965E-1,4.495288815E0,3.019250733E0,5.422911251E0
5.705791083E0,-1.998413492E-1,3.692974229E0,3.283274739E0,4.945491708E0
5.715761083E0,-9.592327311E-1,1.466826379E0,-1.749720812E0,2.476535883E0
5.725731083E0,-1.165444147E0,4.863253804E0,-2.625440758E0,5.648224216E0
5.735700083E0,-9.904298924E-1,4.093149190E0,3.724122055E0,5.621735207E0
5.745670083E0,-8.181108391E-1,-2.578218937E0,4.976564072E0,5.664159973E0
5.755640083E0,1.576745116E0,-1.172753122E1,1.227172691E-1,1.183368807E1
5.765610083E0,1.328122384E0,-1.097056472E1,-2.189981067E0,1.126557661E1
5.775579083E0,-4.370712570E-1,-7.583835778E-1,1.077935375E0,1.388568186E0
5.785549083E0,-9.893819983E-1,3.926943547E0,5.562321180E0,6.880347321E0
5.795519083E0,-1.199399220E0,2.276702292E0,3.500884717E0,4.344896502E0
5.805488083E0,-5.667132739E-1,-1.862729949E-1,-1.665838995E0,1.769429603E0
5.815458083E0,-1.218688673E0,2.801760623E-1,-3.119191343E0,3.360514148E0
5.825428083E0,-1.608325343E0,1.302870160E0,-1.431214204E0,2.516456867E0
5.835398083E0,-1.893457067E0,1.066951965E0,1.694967484E-1,2.179975988E0
5.845367083E0,-1.415868479E0,1.387458613E0,-2.403651776E0,3.115648698E0
5.855337083E0,-1.119142896E0,2.020095771E0,-4.857587852E0,5.378608322E0
5.865307083E0,-6.421492629E-1,-2.498863158E-1,-1.800474644E0,1.927824626E0
5.875276083E0,-4.248025560E-1,-1.743574803E0,3.353208607E-1,1.825636981E0
5.885246083E0,-3.076290321E-1,-3.653790575E-1,1.812356186E-1,5.108657618E-1
5.895216083E0,4.217153358E-1,1.634925935E0,-1.083956838E-1,1.691914969E0
5.905185083E0,5.880712158E-1,2.463249521E0,2.791133308E-1,2.547808904E0
5.915155083E0,6.527009290E-1,2.025941233E0,3.898356217E-1,2.163891909E0
5.925125083E0,9.603396090E-1,1.762528553E0,-1.943240846E0,2.793732995E0
5.935095083E0,1.317925278E0,1.017732150E0,-1.005755006E0,1.945314602E0
5.945064083E0,1.243320361E0,1.769802197E0,-3.515774066E0,4.127797551E0
5.955034083E0,5.651599246E-1,2.473836490E0,-3.763738110E0,4.539272770E0
5.965004083E0,5.847521900E-1,1.470642857E0,-9.579259515E-2,1.585528857E0
5.974974083E0,3.092012753E-1,8.264840519E-1,2.525113648E0,2.674860791E0
5.984943083E0,1.373883571E0,7.606672078E-2,4.525113416E0,4.729692763E0
5.994913083E0,9.699778669E-1,6.629166725E-1,4.809357678E0,4.950781439E0
6.004883083E0,4.569319828E-1,2.455192350E0,2.114715707E0,3.272427056E0
6.014852083E0,-5.130608311E-2,6.139225602E-2,6.945474780E-1,6.991405598E-1
6.024822083E0,-8.673328467E-1,-2.482086326E0,-2.156523884E0,3.400531438E0
6.034792083E0,-3.887941595E-1,-3.808530706E0,-4.239750581E0,5.712403349E0
6.044762083E0,-8.582980214E-1,-2.048268533E0,-1.938819766E0,2.948067429E0
6.054731083E0,-9.320924411E-1,6.740044552E-1,1.121593611E0,1.606564830E0
6.064701083E0,-1.103681689E0,-1.091557926E0,3.080350628E0,3.449372692E0
6.074671083E0,4.540743754E-1,-3.294398189E0,6.678235974E0,7.460434216E0
6.084640083E0,2.664979631E0,-3.476983345E0,6.385979272E0,7.744175933E0
6.094610083E0,-8.229594234E-2,9.806798065E-1,7.353025711E-1,1.228484992E0
6.104580083E0,-1.840479978E0,1.778230081E0,-2.205189675E0,3.378214066E0
6.114550083E0,-2.350533915E0,-5.736425534E-1,-1.262840706E0,2.729256696E0
6.124519083E0,-2.410115873E0,-1.639878235E0,-1.850527394E0,3.452869934E0
6.134489083E0,-4.879169815E-2,7.461544186E-2,-3.233006226E0,3.234235203E0
6.144459083E0,-4.848523644E-1,2.225964248E0,-1.681722372E0,2.831640652E0
6.154428083E0,-6.308425751E-2,2.202779745E0,-1.243879940E0,2.530504996E0
6.164398083E0,9.868574629E-1,2.507207134E-1,-2.204925966E0,2.428671868E0
6.174368083E0,6.755544059E-1,-1.998362255E0,-2.572356811E0,3.326686794E0
6.184338083E0,9.172139816E-1,-2.585018957E0,-2.148106817E0,3.483958581E0
6.194307083E0,1.266718872E0,-2.850097216E0,-1.243993961E0,3.357849284E0
6.204277083E0,6.772212278E-1,-1.891442994E0,-4.740016133E-1,2.064185728E0
6.214247083E0,1.005189178E-1,-6.383016488E-1,2.789315994E0,2.863182977E0
6.224217083E0,5.830897901E-1,-1.213838115E-1,7.326941866E0,7.351109089E0
6.234186083E0,1.615267012E0,2.486846252E0,4.848037595E0,5.683041467E0
6.244156083E0,1.932135521E0,3.522750379E0,-2.911932691E0,4.962083222E0
6.254126083E0,1.055478339E0,3.655021999E0,-5.553680749E0,6.731759814E0
6.264095083E0,7.943446849E-1,9.417297488E-1,-1.038716930E0,1.611450049E0
6.274065083E0,1.588673875E0,-3.961111459E-1,3.748402618E0,4.090392512E0
6.284035083E0,2.355123394E0,-1.330373123E-1,4.146127303E0,4.770186237E0
6.294005083E0,1.425805968E0,3.228232559E0,-2.390804858E0,4.262670053E0
6.303974083E0,1.596791637E-1,5.383252539E0,-1.001762995E1,1.137355772E1
6.313944083E0,-4.566512799E-1,2.095894982E0,-1.137149660E1,1.157204568E1
6.323914083E0,-3.764139960E-1,-4.622045341E0,-3.353113298E0,5.722618231E0
6.333883083E0,-2.224083125E-1,-7.709552668E0,8.033501864E0,1.113659822E1
6.343853083E0,6.896538701E-1,-2.943756454E0,1.118916171E1,1.159045574E1
6.353823083E0,5.801088065E-1,2.612675702E0,5.123084772E0,5.780017139E0
6.363793083E0,3.112681199E-2,2.622459848E0,9.931180036E-1,2.804380128E0
6.373762083E0,-1.594184875E-1,-9.859075096E-1,2.574178804E0,2.761127376E0
6.383732083E0,-9.792032383E-2,9.248099533E-1,2.952079089E0,3.095098187E0
6.393702083E0,5.734264988E-1,5.402339605E0,4.651629621E-1,5.452565244E0
6.403672083E0,7.425347728E-1,4.631893514E0,-3.118354606E0,5.632932705E0
6.413641083E0,1.511203749E-1,-2.496594146E0,-5.790822181E0,6.307887224E0
6.423611083E0,-2.570338060E-1,-5.629410962E0,-6.991381270E0,8.979740877E0
6.433581333E0,8.901779913E-1,-1.582496584E0,-1.864595211E0,2.602580948E0
6.443550333E0,1.955778299E0,3.002016649E0,3.122518993E0,4.752609555E0
6.453520333E0,2.338666990E0,2.378094766E-1,4.793901733E0,5.339233135E0
6.463490333E0,1.231295709E0,-5.949187585E0,3.332026484E0,6.929020316E0
6.473460333E0,7.625564432E-1,-7.540022006E0,1.016665910E0,7.646373896E0
6.483429333E0,-1.266710284E-1,-2.226081484E0,-1.495007912E0,2.684498646E0
6.493399333E0,-1.854758001E0,1.619357724E0,7.529225707E-2,2.463354543E0
6.503369333E0,-9.924699128E-1,2.614564060E0,2.572573158E0,3.799878210E0
6.513338333E0,-2.483470070E0,8.389672726E-1,2.947841612E0,3.944776272E0
6.523308333E0,-2.512593005E0,-1.055261334E0,7.231263292E-1,2.819505591E0
6.533278333E0,-2.641745427E0,-1.973462180E0,-5.298027617E-1,3.339769879E0
6.543248333E0,-2.966225550E0,-1.957190256E0,-2.123790586E0,4.139996880E0
6.553217333E0,-2.794207190E0,-1.680708464E0,-1.975104078E0,3.812271092E0
6.563187333E0,-3.310180702E0,-3.223593086E0,-4.131396997E-1,4.638915075E0
6.573157333E0,-3.089544205E0,-3.576375779E0,1.309705555E0,4.904189612E0
6.583127333E0,-3.238818066E0,-2.053365259E0,1.154214642E0,4.004804963E0
6.593096333E0,-3.365788015E0,-4.499584472E-1,1.542828780E-1,3.399234439E0
6.603066333E0,-2.746965488E0,1.834558941E0,-1.470112807E-1,3.306514512E0
6.613036333E0,-3.322662461E0,1.767263628E0,-4.109323758E-1,3.785785516E0
6.623005333E0,-2.627979035E0,1.338900410E0,-1.995318487E0,3.560930213E0
6.632975333E0,-1.997189742E0,4.199347490E-1,-3.171811021E0,3.771670348E0
6.642945333E0,-1.708315801E0,2.576198432E-1,-2.734089042E0,3.234185175E0
6.652915333E0,-1.347584695E0,1.008197388E0,-1.744896859E-1,1.692008609E0
6.662884333E0,3.446778676E-1,2.242162789E0,6.883774960E-1,2.370645562E0
6.672854333E0,7.892088562E-1,2.648272381E0,5.518368244E-2,2.763917955E0
6.682824333E0,1.276382419E0,2.467720595E0,-1.452503917E0,3.135054169E0
6.692794333E0,1.498036770E0,1.091996174E0,-2.093801386E0,2.796528930E0
6.702763333E0,1.165261202E0,-4.150467691E-1,-2.472280546E0,2.764465335E0
6.712733333E0,1.514996034E0,-1.323117313E0,-3.045430471E0,3.649725902E0
6.722703333E0,1.016244765E0,-1.956029291E0,-2.080473828E0,3.031035361E0
6.732672333E0,9.967732443E-1,-1.722495299E0,1.477106076E0,2.478384416E0
6.742642333E0,5.319183574E-1,-5.554971814E-1,4.608070203E0,4.671811774E0
6.752612333E0,-9.076349633E-2,5.740389946E-1,4.362302958E0,4.400846041E0
6.762582333E0,-9.132205160E-2,5.029093704E-1,2.515105553E0,2.566517776E0
6.772551333E0,6.418234999E-1,-8.637322775E-1,8.016696382E-1,1.341881165E0
6.782521333E0,6.906003150E-1,-6.154843515E-1,-1.990023834E0,2.194526063E0
6.792491333E0,3.570122766E-1,4.862793043E-1,-1.185945143E1,1.187478477E1
6.802461333E0,5.125181729E-1,-1.328390625E0,-1.765650498E1,1.771382129E1
6.812430333E0,-2.602668412E-1,-7.627877006E0,-1.204908481E1,1.426298325E1
6.822400333E0,-1.105811318E0,-1.122851581E1,1.450783549E1,1.837878332E1
6.832370333E0,1.696115878E0,1.933466932E0,2.452475442E1,2.465925146E1
6.842339333E0,2.659532949E0,1.471256873E1,1.374991238E1,2.031238254E1
6.852309333E0,2.603907510E0,3.926105641E0,8.607500805E0,9.812426302E0
6.862279333E0,1.878979215E0,-7.040794335E0,1.817168444E0,7.510356111E0
6.872249333E0,1.085365870E0,-4.466489524E0,-2.341110542E0,5.158327860E0
6.882218333E0,2.493491613E0,2.909457857E0,-8.387178304E0,9.221019757E0
6.892188333E0,1.990926351E0,3.593738209E0,-4.353559032E0,5.986001862E0
6.902158333E0,8.422020254E-1,1.464699747E0,-5.468332450E0,5.723400160E0
6.912127333E0,1.364680784E0,7.543358427E-1,-8.305851721E0,8.450949592E0
6.922097333E0,9.083335959E-1,-1.071183595E-1,-4.263865668E0,4.360859399E0
6.932067333E0,-7.568232483E-1,-1.418461427E0,-1.557382500E-1,1.615261171E0
6.942037333E0,-3.176296712E-1,-2.592391419E0,5.070974386E-1,2.660550636E0
6.952006333E0,-4.369847182E-1,-3.630247054E0,-1.318514385E0,3.886917738E0
6.961976333E0,-5.793987717E-1,-5.678663814E0,2.101957667E0,6.082857198E0
6.971946333E0,-9.898926064E-1,-9.022502843E0,4.944361117E0,1.033596400E1
6.981916333E0,-6.106605082E-1,-5.864664329E0,2.904178113E0,6.572780573E0
6.991885333E0,1.273781577E-1,1.645340060E1,5.219500095E0,1.726191756E1
7.001855333E0,6.515510009E-1,2.850205857E1,1.239217136E1,3.108629557E1
7.011825333E0,-5.981784204E-1,1.673544456E1,1.012543857E1,1.956929810E1
7.021794333E0,-9.824442038E-1,-2.933275905E0,-2.690974013E0,4.100078693E0
7.031764333E0,-3.359527693E0,-6.953790105E0,-1.108893107E1,1.351317933E1
7.041734333E0,-1.791442742E0,-1.414377732E0,-9.116665819E0,9.398049113E0
7.051704333E0,1.752242862E0,2.065899058E0,-7.907729425E0,8.358856299E0
7.061673333E0,4.264842153E0,-1.752865737E0,-3.358549454E0,5.704495711E0
7.071643333E0,1.943053881E0,-8.287492633E0,1.356050469E1,1.601078636E1
7.081613333E0,-1.074868072E-1,-2.695910524E0,1.136057751E1,1.167656663E1
7.091582333E0,-3.098719144E-1,3.514820678E0,7.827709694E0,8.586211275E0
7.101552333E0,5.331872397E-1,1.045002687E-1,4.279788221E0,4.314139097E0
7.111522333E0,-1.113164265E0,-5.209468027E0,-3.013547359E0,6.120388835E0
7.121492333E0,-1.200274183E0,-4.434188335E0,-8.401647239E0,9.575508375E0
7.131461333E0,-1.074221589E0,7.280800903E-1,-7.552387113E0,7.663067515E0
7.141431333E0,-4.584747706E-1,3.311063339E0,-3.239555107E0,4.654896008E0
7.151401333E0,-2.720298311E-1,-1.391157561E0,2.207585279E0,2.623500020E0
7.161371333E0,-1.545908217E0,-5.651882982E0,3.390914962E0,6.769927454E0
7.171340333E0,-5.467361886E-1,-5.003999793E0,2.307779074E0,5.537578771E0
7.181310333E0,-4.769333706E-1,-3.833769920E0,3.720798497E0,5.363729924E0
7.191280333E0,-7.317699757E-1,-3.697346192E0,1.993808736E0,4.263933564E0
7.201249333E0,-3.295066819E-2,-2.942425628E0,-1.067430852E0,3.130233689E0
7.211219333E0,-5.284725932E-1,-3.313195234E0,-1.655067254E0,3.741095235E0
7.221189333E0,6.677520275E-3,-3.434022975E0,-2.089904217E0,4.019982341E0
7.231159333E0,5.201410053E-1,-1.126440952E0,-7.235245830E0,7.340858132E0
7.241128333E0,1.127888869E0,5.791643715E0,-7.707278101E0,9.706565096E0
7.251098333E0,1.810645583E0,2.601772691E0,-1.489377043E0,3.502271055E0
7.261068333E0,1.620108506E0,-7.725913178E0,1.326882219E1,1.543943419E1
7.271037333E0,1.165893213E0,-5.143886241E0,1.095417614E1,1.215783071E1
7.281007333E0,2.770882208E-1,7.536476254E-1,5.676652372E-1,9.833648595E-1
7.290977333E0,-1.070802503E0,1.696622831E0,6.815789384E-1,2.118890483E0
7.300947333E0,9.796615139E-1,2.150548030E0,1.862697789E0,3.009025849E0
7.310916333E0,1.671723340E0,1.985497504E0,-2.978150654E-1,2.612575947E0
7.320886333E0,-8.519058453E-1,2.009573707E0,-1.059889113E0,2.426416078E0
7.330856333E0,8.573740882E-1,3.392946870E0,-5.072757787E-1,3.536171306E0
7.340825333E0,6.928484964E-1,3.224706688E0,-1.631055663E0,3.679553619E0
7.350795333E0,1.337054664E-1,2.719669223E0,-4.445973106E0,5.213554900E0
7.360765333E0,1.915080363E0,1.308512723E0,-3.794624273E0,4.447348841E0
7.370735333E0,1.670659147E0,2.884933757E0,-5.013796803E0,6.020971944E0
7.380704333E0,1.686531122E0,2.727869651E0,-7.064824637E0,7.758698809E0
7.390674333E0,1.104069505E0,-1.353296548E0,-5.459878546E0,5.732421369E0
7.400644333E0,6.080107694E-1,-3.698194331E0,-5.868242240E-1,3.793505117E0
7.410614333E0,1.119253847E0,-3.005680807E0,-2.756974459E0,4.229391736E0
7.420583333E0,6.534846751E-1,1.022666323E0,-3.446869308E0,3.654284698E0
7.430553333E0,8.513320872E-1,6.327986587E0,-4.659307015E-1,6.401974070E0
7.440523083E0,1.662840835E0,7.125808758E0,1.002445716E1,1.241096013E1
7.450492083E0,1.296384721E0,4.197814058E0,2.228578070E1,2.271471500E1
7.460462083E0,1.208963730E-1,2.554690034E0,1.430349635E1,1.453034979E1
7.470432083E0,1.105163885E0,1.574012274E0,4.850920272E-1,1.983485852E0
7.480402083E0,3.889856997E0,-3.262894561E0,-1.037409493E1,1.154986207E1
7.490371083E0,-1.457416674E-1,-5.056053461E0,-8.890928212E0,1.022905283E1
7.500341083E0,-1.376070575E0,-2.806675792E0,-1.001998989E1,1.049624678E1
7.510311083E0,-1.239828112E0,-2.146134259E0,-1.132887274E1,1.159682817E1
7.520280083E0,-1.507598137E0,-9.053577286E0,-4.946935646E0,1.042651841E1
7.530250083E0,-1.388167149E0,-9.698969561E0,5.224268500E0,1.110360302E1
7.540220083E0,-6.078813632E-1,-4.050789621E0,9.544948053E0,1.038674394E1
7.550190083E0,5.221167794E-1,1.514485572E0,9.131204336E0,9.270661525E0
7.560159083E0,3.888967782E-1,-4.344586480E-1,8.729124060E0,8.748577135E0
7.570129083E0,5.304580884E-1,-1.181969328E0,-6.629573107E-3,1.295562128E0
7.580099083E0,8.898992984E-1,-2.269257909E0,-7.740376266E0,8.115101783E0
7.590068083E0,9.963354340E-1,-4.940737013E0,-7.047243814E0,8.664133650E0
7.600038083E0,1.310259140E0,-6.594424324E0,-7.780959451E0,1.028331372E1
7.610008083E0,7.561799084E-1,9.461672008E-3,2.489337692E1,2.490486122E1
7.619978083E0,9.636826815E-1,1.948494452E1,1.117122245E1,2.248083536E1
7.629947083E0,5.632959638E0,1.109410469E1,-6.555899944E0,1.406375545E1
7.639917083E0,-2.893865233E-1,-1.628129833E1,-7.240090249E0,1.782086773E1
7.649887083E0,-1.474849928E0,-2.423252461E1,-1.252747009E1,2.731900324E1
7.659856083E0,1.935141429E0,-9.005963409E-1,-1.139003929E1,1.158830623E1
7.669826083E0,8.035989270E-1,6.193893560E0,5.404157504E0,8.259237677E0
7.679796083E0,1.320278783E0,2.323680577E0,1.246175791E1,1.274511819E1
7.689766083E0,7.954150908E-1,4.860971636E-1,-1.520868393E0,1.783820699E0
7.699735083E0,-1.305159783E0,3.024461187E0,2.036777000E0,3.872888854E0
7.709705083E0,8.244993608E-1,8.763133805E0,-2.675861299E0,9.199594936E0
7.719675083E0,-1.730945987E0,7.846203268E0,-6.150459273E0,1.011865747E1
7.729645083E0,-1.391127010E0,1.816634594E0,-2.793303795E0,3.610809008E0
7.739614083E0,-8.652502146E-1,-1.200411154E0,4.140578295E0,4.397048270E0
7.749584083E0,-5.391920744E-1,-1.824647618E0,4.362202386E0,4.759083597E0
7.759554083E0,-3.238894080E-1,-2.437180003E0,-4.138851612E0,4.814025694E0
7.769523083E0,-2.995357913E-1,8.807052827E0,-1.138951538E1,1.440051950E1
7.779493083E0,2.252735213E-1,1.917705236E1,-3.867339662E0,1.956441672E1
7.789463083E0,-5.635389302E-2,1.065306909E1,9.953142178E0,1.457930369E1
7.799433083E0,1.180139150E-1,-9.933784386E0,1.229707225E1,1.580860479E1
7.809402083E0,-1.081101788E0,-1.313535130E1,-7.016955822E0,1.493130617E1
7.819372083E0,-8.215565302E-1,-6.918296921E0,-1.306993032E-1,6.968132442E0
7.829342083E0,8.685564496E-1,4.581082087E0,6.174034077E0,7.736885690E0
7.839311083E0,8.526629135E-1,1.081094743E1,7.765131623E-1,1.087228545E1
7.849281083E0,1.538546609E-1,6.052511394E0,-2.058980048E0,6.394995252E0
7.859251083E0,-9.551868964E-1,-3.931819832E0,-2.680020424E0,4.853256502E0
7.869221083E0,-2.420945939E0,-8.160744293E0,-4.034058983E0,9.419785483E0
7.879190083E0,-2.563899398E0,-6.867949471E0,-6.033084605E0,9.494230875E0
7.889160083E0,-4.310165383E-3,-4.620652534E0,-3.702960396E0,5.921348167E0
7.899130083E0,-3.054392499E-1,-4.790076485E0,9.976566124E0,1.107113352E1
7.909099083E0,-1.005074463E0,-1.799156974E0,2.127115781E1,2.137075794E1
7.919069083E0,-2.916653148E0,3.611827740E0,1.071010401E1,1.167298132E1
7.929039083E0,-2.296252165E0,-2.325721255E-1,1.831050904E0,2.946117990E0
7.939009083E0,-4.824026917E-2,-6.825560666E0,-1.047148615E0,6.905586561E0
7.948978083E0,3.073310434E-1,-2.689643771E0,-2.944255514E0,3.999659550E0
7.958948083E0,-1.958020560E0,4.874879238E0,-4.539652517E0,6.943107163E0
7.968918083E0,-1.681692843E0,4.928856640E0,-3.852049193E0,6.477654018E0
7.978887083E0,2.002941612E-1,-3.987955441E0,-4.050945157E0,5.688063204E0
7.988857083E0,7.673298908E-1,-9.945613303E0,-3.579371307E0,1.059792046E1
7.998827083E0,-4.332715901E-1,-5.529044091E0,-6.660756308E-1,5.585849047E0
8.008797083E0,-1.736829017E0,4.281024322E-1,5.127502343E0,5.430573359E0
8.018766083E0,-2.199175960E0,1.241472641E0,8.258857064E0,8.636338878E0
8.028736083E0,-1.903412975E0,1.346652941E0,3.281670263E0,4.025644645E0
8.038706083E0,-1.066618455E0,1.540332604E0,-2.453361295E0,3.086953369E0
8.048676083E0,-3.633797849E-3,8.101343599E-1,-4.794716250E0,4.862677740E0
8.058645083E0,7.685459655E-1,7.240572059E-1,-2.621890914E0,2.826523254E0
8.068615083E0,1.038499633E0,6.462152120E0,4.171087897E-1,6.558343636E0
8.078585083E0,-4.051789714E-1,1.093142813E1,3.566216826E-2,1.093899277E1
8.088554083E0,-6.332635416E-1,3.679611587E0,-5.019852179E-1,3.767300533E0
8.098524083E0,1.470069245E0,-7.611394290E0,-5.255275699E0,9.365487136E0
8.108494083E0,2.666431787E0,-7.452820140E0,-7.735403209E0,1.106755842E1
8.118464083E0,1.906876281E0,1.203000009E0,-1.636674253E0,2.786052545E0
8.128433083E0,8.451278260E-1,4.389194596E0,5.181120141E0,6.842753551E0
8.138403083E0,8.418475380E-1,8.106667489E-2,5.326112378E0,5.392842678E0
8.148373083E0,2.258078618E0,-3.781735255E0,-6.188418227E-1,4.447854065E0
8.158342083E0,2.081977585E0,-2.229335752E0,-2.846744422E0,4.172352139E0
8.168312083E0,1.537222909E0,1.867790714E0,5.498844391E-1,2.480739672E0
8.178282083E0,7.255093619E-1,3.418085219E0,2.771885444E0,4.460159113E0
8.188252083E0,5.818300075E-1,1.061302385E0,2.377770245E-2,1.210559495E0
8.198221083E0,1.025579771E0,-1.935130758E0,-2.826355766E0,3.575588320E0
8.208191083E0,9.898821545E-1,-3.784522038E0,-8.324797869E-2,3.912723343E0
8.218161083E0,3.303675382E-1,-1.704592586E0,2.263908584E0,2.853079156E0
8.228130083E0,-8.469371189E-2,6.517660323E-1,3.185122207E0,3.252226232E0
8.238100083E0,-2.265348388E-1,1.272559656E0,4.222346928E0,4.415760375E0
8.248070083E0,-3.072002850E-1,-1.138833541E0,3.342789454E0,3.544792685E0
8.258040083E0,-1.060143138E-1,-3.685053298E0,-4.376898193E-1,3.712469424E0
8.268009083E0,-2.277580032E-1,-4.078246391E0,-2.816075191E0,4.961274717E0
8.277979083E0,-1.136748790E-1,-2.391073538E0,-8.284908164E-1,2.533091328E0
8.287949083E0,3.657950869E-1,4.259778464E-1,4.393109599E0,4.428845800E0
8.297918083E0,1.603318373E0,1.687611102E0,4.875299068E0,5.402518120E0
8.307888083E0,1.443200412E0,6.594823104E-1,1.528618292E0,2.203274434E0
8.317858083E0,1.456088260E0,-2.849514833E-1,-2.391193113E0,2.814106408E0
8.327828083E0,1.461569732E0,-9.095911127E-1,-4.696600556E0,5.002159420E0
8.337797083E0,1.074022711E0,-2.181793211E0,-6.282594652E0,6.736819870E0
8.347767083E0,1.098192761E0,-1.209324650E0,-6.045035144E0,6.261864207E0
8.357737083E0,9.028280769E-1,-1.892006080E0,-1.583016694E0,2.626923561E0
8.367706083E0,4.158442197E-1,-1.344705526E0,2.462340279E0,2.836243822E0
8.377676083E0,1.104353388E0,8.188712695E-1,4.005807576E0,4.235167162E0
8.387646083E0,1.404531459E0,1.906682592E0,4.056977144E0,4.697574978E0
8.397616083E0,1.461120081E0,2.012281845E0,4.448948754E0,5.096792632E0
8.407585083E0,1.747647974E0,2.030807286E0,3.181082951E0,4.159055231E0
8.417555083E0,1.223657929E0,2.028574819E0,1.290848284E0,2.697914716E0
8.427525083E0,1.061596135E0,2.718659994E0,-1.003481024E0,3.086271647E0
8.437495458E0,2.915532091E-1,3.412784426E0,-4.120301905E0,5.358076950E0
8.447464458E0,-3.272383276E-2,3.352336495E0,-6.285142869E0,7.123359580E0
8.457434458E0,-7.135238124E-1,1.759142138E0,-6.694804060E0,6.958742609E0
8.467404458E0,-5.482185308E-1,-3.043929199E0,-2.965623579E0,4.284970448E0
8.477373458E0,-5.108402048E-1,-5.477547662E0,2.739274938E0,6.145576726E0
8.487343458E0,-9.544842073E-1,-3.605013687E0,5.991351272E0,7.057156216E0
8.497313458E0,-7.626125034E-2,-9.530160445E-1,6.226160250E0,6.299136990E0
8.507283458E0,-7.998069345E-1,1.844957337E-1,3.104283282E0,3.210966288E0
8.517252458E0,-1.965481023E0,5.622676724E-1,-1.470766525E0,2.518415128E0
8.527222458E0,-2.731833186E0,-4.723380804E-1,-5.539156850E0,6.194212979E0
8.537192458E0,-3.123571492E0,-9.913372341E-1,-6.688404282E0,7.448100444E0
8.547161458E0,-2.652975589E0,-2.425962996E0,-4.054622471E0,5.418813460E0
8.557131458E0,-2.668620400E0,-2.810664178E0,-1.932428175E0,4.330778984E0
8.567101458E0,-2.677050915E0,-2.046833627E0,1.614468867E-1,3.373750820E0
8.577071458E0,-1.597313428E0,-8.557926357E-1,4.686666137E-1,1.871747744E0
8.587040458E0,-7.280542164E-1,-3.073916644E0,5.931489818E0,6.720237937E0
8.597010458E0,8.289305270E-1,-3.952265207E0,1.035205443E1,1.111182060E1
8.606980458E0,1.129081409E0,-7.496972466E-1,5.003044358E0,5.183369911E0
8.616949458E0,2.041705326E0,-2.457707530E-1,2.526288938E0,3.257468296E0
8.626919458E0,2.480354381E0,-1.509216938E0,7.368017972E-1,2.995458314E0
8.636889458E0,2.282173385E0,-1.140941170E0,-2.489559653E0,3.564823892E0
8.646859458E0,7.205387170E-1,1.283219422E0,-3.608586336E0,3.897142988E0
8.656828458E0,5.944253851E-1,3.224529810E0,-3.918792236E-1,3.302196747E0
8.666798458E0,4.266779043E-2,1.593065718E0,1.486184464E0,2.179087695E0
8.676768458E0,2.582973893E-1,-1.960636897E0,6.668416160E-1,2.086981630E0
8.686737458E0,1.898852585E-1,-4.155660018E0,-4.393094981E-1,4.183127949E0
8.696707458E0,-1.660092498E-1,-2.967786172E0,-2.615254909E-1,2.983908413E0
8.706677458E0,3.014627047E-2,-7.038378266E-1,-3.598236179E-1,7.910559523E-1
8.716647458E0,9.126063757E-2,1.040689196E0,-6.441766387E-1,1.227324753E0
8.726616458E0,9.214017574E-1,1.898350602E0,-9.349189121E-1,2.307983877E0
8.736586458E0,2.247101640E0,2.625017128E0,-2.240001073E0,4.117983185E0
8.746556458E0,1.874632833E0,2.133934628E0,-1.791582783E0,3.358227825E0
8.756526458E0,1.993612854E0,3.952011145E0,-2.291081765E0,4.984168933E0
8.766495458E0,1.960014461E0,5.728047059E0,-1.081337285E-1,6.055069999E0
8.776465458E0,1.532240642E0,3.120226884E0,1.529177286E0,3.797625623E0
8.786435458E0,1.730188773E0,-7.410638326E-1,9.352013326E-1,2.101744591E0
8.796404458E0,1.862611543E0,-1.566971934E0,-1.058550686E0,2.654289425E0
8.806374458E0,1.545088583E0,-1.623169523E-1,-1.901350808E0,2.455357493E0
8.816344458E0,1.147675847E0,1.673233384E0,6.707668519E-1,2.137006780E0
8.826314458E0,3.513774611E-2,7.072011450E-1,2.182752154E0,2.294727672E0
8.836283458E0,-2.843221402E-1,-1.576462257E0,1.982501975E0,2.548800975E0
8.846253458E0,-1.647271381E-1,-2.397889929E0,1.050572160E0,2.623111322E0
8.856223458E0,-6.414608994E-1,-1.659950849E0,9.012863123E-1,1.994799720E0
8.866192458E0,-5.442087661E-2,-2.356607417E0,1.531578737E0,2.811101845E0
8.876162458E0,-3.877388102E-1,-2.489973051E0,1.111538739E0,2.754237743E0
8.886132458E0,8.304361119E-1,-1.882171941E0,-7.839572525E-1,2.201541352E0
8.896102458E0,1.072746044E0,-1.706728282E0,-6.022515178E-1,2.103904084E0
8.906071458E0,5.073956100E-1,-2.991737829E0,1.504078698E0,3.386768116E0
8.916041458E0,3.851301480E-1,-2.531538276E0,2.062115909E0,3.287755054E0
8.926011458E0,3.323857412E-1,-6.905944678E-1,2.908093409E0,3.007392272E0
8.935980458E0,2.423351118E-1,-8.550038463E-1,2.727968177E0,2.869070974E0
8.945950458E0,2.441127385E-1,-5.803118876E-1,1.317081817E0,1.459814176E0
8.955920458E0,7.270039102E-1,-6.908201703E-1,-1.637741954E0,1.920407744E0
8.965890458E0,7.363278072E-1,-9.780652240E-1,-3.957141784E0,4.142192816E0
8.975859458E0,8.255088095E-1,-1.258683921E0,-2.823235107E0,3.199438463E0
8.985829458E0,6.516172937E-1,-1.709974363E0,2.296593350E-1,1.844277862E0
8.995799458E0,2.629698262E-1,-7.016775727E-1,9.271286666E-1,1.192087291E0
9.005768458E0,8.886802270E-1,9.816030818E-1,4.292207122E-1,1.391950996E0
9.015738458E0,1.598512400E0,4.754148853E-1,1.716515059E0,2.393258271E0
9.025708458E0,1.900924985E0,-4.995741186E-1,1.707094610E-1,1.972873999E0
9.035678458E0,2.402029758E0,-8.949143091E-1,-1.556154000E0,2.998705363E0
9.045647458E0,2.011174382E0,-1.989827952E-1,-3.347574230E0,3.910328602E0
9.055617458E0,1.947391199E0,1.001088051E0,-2.616087552E0,3.411513425E0
9.065587458E0,1.786377884E0,6.134992218E-1,-8.114613855E-1,2.055722943E0
9.075557458E0,9.957282738E-1,1.558908623E-1,7.490470362E-1,1.255726172E0
9.085526458E0,8.389286810E-1,1.439572507E0,1.763230804E0,2.425933470E0
9.095496458E0,8.832033594E-1,2.637808204E0,2.719942873E0,3.890523041E0
9.105466458E0,9.960187342E-1,2.456328172E0,2.033451104E0,3.340737164E0
9.115435458E0,5.737555508E-1,8.405091834E-1,-3.374352139E-1,1.072153740E0
9.125405458E0,2.475040139E-1,7.105659252E-1,-1.144424649E0,1.369624017E0
9.135375458E0,4.870353493E-1,1.133428667E0,-7.103180033E-1,1.423522266E0
9.145345458E0,9.019844699E-1,2.142758661E0,-1.278123574E0,2.653034213E0
9.155314458E0,1.155616000E0,1.292106898E0,-1.277816595E0,2.153556088E0
9.165284458E0,1.444650521E0,4.508194497E-1,-6.186810243E-1,1.634937159E0
9.175254458E0,1.518613122E0,-1.738829203E0,1.815133029E0,2.936736407E0
9.185223458E0,7.628531163E-1,-1.829534136E0,2.012329792E0,2.824643557E0
9.195193458E0,1.581463381E0,-3.062178066E-1,1.846029131E0,2.450024352E0
9.205163458E0,4.606079080E-1,-1.503420009E0,1.748040907E0,2.351186590E0
9.215133458E0,2.030715338E-1,-1.148636398E0,3.181113356E-1,1.209048570E0
9.225102458E0,-2.812974852E-1,-8.556768608E-1,-9.369461417E-2,9.055881216E-1
9.235072458E0,-1.112149480E0,-1.440713883E0,8.489636725E-1,2.008300843E0
9.245042458E0,-1.456821208E0,-8.828383470E-1,1.250459812E0,2.113144889E0
9.255011458E0,-1.520302528E0,-7.430773214E-1,-6.228465807E-1,1.803169861E0
9.264981458E0,-1.853194017E0,-1.474083943E0,-8.979095453E-1,2.532487530E0
9.274951458E0,-1.128706456E0,-2.276681534E0,1.523281538E0,2.962708848E0
9.284921458E0,-1.074850676E0,-1.755016635E0,1.812696494E0,2.742490829E0
9.294890458E0,-4.360854530E-1,-4.578182745E-1,9.279747587E-1,1.122900373E0
9.304860458E0,-1.209211506E-1,-7.767759946E-1,1.292661506E-1,7.966885264E-1
9.314830458E0,-6.687880079E-1,-2.028645570E0,1.470035039E0,2.593006607E0
9.324800458E0,-7.359321700E-1,-2.057810312E0,3.774845481E-2,2.185773178E0
9.334769458E0,-2.749818710E-1,-5.213175747E-1,-7.314451629E-1,9.393609899E-1
9.344739458E0,-1.620268574E-1,4.281556419E-1,-4.837588620E-1,6.660274715E-1
9.354709458E0,-8.905495088E-1,6.996091202E-1,9.337243259E-2,1.136331712E0
9.364678458E0,-1.200296329E-2,-4.431572583E-1,8.841586483E-1,9.890747909E-1
9.374648458E0,-9.476599219E-1,-4.444819450E-2,-1.277464592E-1,9.572638755E-1
9.384618458E0,-7.627442850E-1,3.538632587E-1,-1.280019241E0,1.531485327E0
9.394588458E0,5.653008424E-1,-2.596508735E-1,-1.383606759E0,1.517020528E0
9.404557458E0,-9.664909530E-1,-1.436397469E0,2.008109272E-2,1.731399925E0
9.414527458E0,-1.720980651E-1,-1.099817702E0,1.963699669E0,2.257284455E0
9.424497458E0,5.371184690E-1,1.002373561E0,2.324919602E0,2.588146086E0
9.434466458E0,-7.401666870E-2,1.537732932E0,1.308081198E0,2.020192431E0
9.444436333E0,1.266463787E0,9.387555626E-1,9.238045245E-1,1.827185631E0
9.454406333E0,1.734266475E0,1.839592516E-2,6.956941170E-1,1.868691767E0
9.464376333E0,8.999615525E-1,1.532847876E0,-6.150171590E-1,1.880903908E0
9.474345333E0,1.363321599E0,1.540268577E0,-2.965362793E-1,2.078222037E0
9.484315333E0,9.482398195E-1,1.853805344E0,-1.087187424E0,2.348984781E0
9.494285333E0,8.494868521E-1,1.908716546E0,-3.078240952E0,3.720268018E0
9.504254333E0,8.155736592E-1,1.140426615E0,-2.480899342E0,2.849665735E0
9.514224333E0,8.074019012E-2,-6.176530838E-1,2.073598087E-1,6.565153467E-1
9.524194333E0,-3.518138096E-1,-6.520376354E-2,1.305730033E-1,3.808855426E-1
9.534164333E0,-2.904612415E-1,1.372590020E-1,-9.182204336E-1,9.727982993E-1
9.544133333E0,1.555077053E-2,-1.260263253E0,4.091302639E-1,1.325101078E0
9.554103333E0,-6.187625930E-2,-2.566144729E0,3.311593974E-1,2.588164212E0
9.564073333E0,-3.598652793E-1,-1.935390374E0,2.911135715E-1,1.989971364E0
9.574043333E0,-4.483470642E-1,-1.065315037E0,2.175171824E0,2.463185678E0
9.584012333E0,-8.304072413E-1,-2.700428376E-1,1.362549766E0,1.618345200E0
9.593982333E0,-1.431936482E0,-1.262622020E0,2.897897619E-1,1.930967260E0
9.603952333E0,-1.966474319E0,-2.379733448E0,6.947568083E-1,3.164307120E0
9.613921333E0,-1.632764658E0,-1.894496117E0,-5.104946709E-1,2.552575322E0
9.623891333E0,-1.699798308E0,-1.114802654E0,3.302010387E-1,2.059400877E0
9.633861333E0,-1.018999023E0,-6.369968426E-1,-8.268606126E-2,1.204558413E0
9.643831333E0,-8.991518594E-1,-1.931049109E0,-1.433636706E0,2.567632943E0
9.653800333E0,-7.918121827E-1,-2.737671339E0,-6.031753778E-1,2.913010715E0
9.663770333E0,-4.790075608E-2,-2.333031152E0,5.126616490E-1,2.389173665E0
9.673740333E0,-2.313739214E-1,-1.793946520E0,2.810426781E0,3.342196389E0
9.683709333E0,9.488803089E-2,-2.863290873E-1,3.832472130E0,3.844324481E0
9.693679333E0,-5.115192127E-1,1.100846520E-1,2.599888426E0,2.652016283E0
9.703649333E0,-8.875463057E-2,5.183585912E-1,-2.502415341E-1,5.824035018E-1
9.713619333E0,1.897421845E-1,-2.593854100E-1,-4.331926673E0,4.343831441E0
9.723588333E0,-6.270975065E-1,-1.495165202E0,-4.698387465E0,4.970273135E0
9.733558333E0,-3.708957228E-1,-1.493741697E0,-4.329409447E0,4.594846467E0
9.743528333E0,-1.027238846E0,-1.565496681E0,-8.352922976E-1,2.050295766E0
9.753497333E0,-4.638768670E-1,-1.010312034E0,6.897128246E0,6.986149884E0
9.763467333E0,4.056538384E-1,8.647713277E-1,5.605177762E0,5.685982961E0
9.773437333E0,-3.499383152E-2,2.349824940E0,5.898016262E-1,2.422966730E0
9.783407333E0,-7.134683369E-1,6.525530675E-1,1.425966328E0,1.722858829E0
9.793376333E0,-1.159420711E0,4.358230957E-1,1.225191069E0,1.742208745E0
9.803346333E0,-1.222857445E0,1.574057005E0,-1.581342636E0,2.544342807E0
9.813316333E0,-1.747091319E0,1.526185558E0,2.916317518E0,3.726456534E0
9.823285333E0,-1.491685670E0,2.882175626E0,1.906136754E0,3.763697623E0
9.833255333E0,-1.111240823E0,5.130617155E0,-2.690977521E0,5.899105744E0
9.843225333E0,-1.751415481E0,4.605828673E0,-4.503181095E0,6.675309275E0
9.853195333E0,-2.498879822E0,1.454796025E0,-2.676707391E0,3.940253075E0
9.863164333E0,-1.333250246E0,-1.362020301E0,-1.128581033E0,2.215028367E0
9.873134333E0,-1.420399194E0,-1.673393305E0,-2.306758735E0,3.184166278E0
9.883104333E0,-1.728027642E-1,-8.568129748E-1,-1.476016155E0,1.715404605E0
9.893073333E0,1.500235834E-1,-2.035218133E0,6.332973093E-1,2.136746453E0
9.903043333E0,-1.276767458E0,-1.136761580E0,9.335173345E-1,1.947772227E0
9.913013333E0,-5.943715176E-1,4.608389461E-1,1.186850291E0,1.405084926E0
9.922983333E0,-1.281647983E0,1.377902216E0,1.856351221E0,2.643345593E0
9.932952333E0,-1.559499777E0,-1.463340269E0,1.351107935E0,2.529604109E0
9.942922333E0,-1.192091151E0,-4.716257434E0,-3.266135965E0,5.859335255E0
9.952892333E0,-1.398098499E0,-5.314079393E0,-1.775325184E0,5.774590784E0
9.962862333E0,-4.543838027E-1,-2.655351313E0,2.368199522E0,3.586882241E0
9.972831333E0,-4.660966528E-1,-5.409797144E-1,5.761534063E0,5.805616237E0
9.982801333E0,1.941429451E-1,3.436516812E-1,5.062518142E0,5.077881242E0
9.992771333E0,-2.323881209E-1,-2.182976395E0,2.539664444E0,3.356975673E0
1.000274033E1,-4.779584606E-1,-1.752731251E0,1.550997341E0,2.388745252E0
1.001271033E1,-7.917557571E-1,-3.292203145E0,1.826923939E0,3.847483568E0
1.002268033E1,-1.366582445E0,-2.510488299E0,-7.529097068E-1,2.955836955E0
1.003265033E1,-1.238718895E0,-6.143397591E-1,-7.610092700E-1,1.578281645E0
1.004261933E1,-1.638090010E0,-1.421023677E0,2.237615994E0,3.116018695E0
1.005258933E1,-3.014819274E-1,-8.092663407E-1,1.103328663E0,1.401120088E0
1.006255933E1,-1.046452066E0,4.679661173E-1,-9.592211097E-1,1.494710457E0
1.007252833E1,-1.516984526E0,8.146106958E-1,3.168647093E-1,1.750781506E0
1.008249833E1,-1.507090598E0,1.030204554E0,-1.242164952E0,2.208079994E0
1.009246833E1,-1.736094753E0,9.490718052E-1,-2.698894651E0,3.346460013E0
1.010243833E1,-1.046969106E0,2.060035470E-1,-3.127262839E0,3.304293364E0
1.011240733E1,-7.155969427E-1,-3.829826850E-1,-3.995595998E0,4.077197825E0
1.012237733E1,-6.995831732E-1,-1.056579589E0,-4.447665875E0,4.624663099E0
1.013234733E1,-5.776230820E-1,5.149712992E-1,-5.786650193E-1,9.662800155E-1
1.014231633E1,-2.763693056E-1,2.922805881E0,3.473609794E0,4.548091821E0
1.015228633E1,4.142615977E-1,3.315858640E0,4.552108841E0,5.646966096E0
1.016225633E1,1.377633829E0,8.605376512E-1,3.118910676E0,3.516532926E0
1.017222633E1,1.924849014E0,-1.482529661E0,-1.195784837E0,2.707921583E0
1.018219533E1,2.630302718E0,-1.211492797E0,-2.796204014E0,4.025538979E0
1.019216533E1,2.862762870E0,6.919255865E-1,-7.300868547E-1,3.034336679E0
1.020213533E1,2.072158064E0,1.631825157E0,-3.576496232E-1,2.661692251E0
1.021210433E1,1.606092438E0,1.760100789E0,-1.687065557E0,2.919533850E0
1.022207433E1,1.079934903E0,4.254527664E-1,-6.918033797E-1,1.351244378E0
1.023204433E1,8.599364843E-1,6.451525390E-2,9.208563584E-1,1.261597958E0
1.024201433E1,8.314309426E-1,2.675203487E-1,1.178017488E0,1.466482100E0
1.025198333E1,4.052303173E-1,-1.041413958E0,1.434184590E0,1.818141931E0
1.026195333E1,1.597836754E0,-1.824174286E0,1.670320886E0,2.944599460E0
1.027192333E1,1.888526987E0,-9.786242178E-1,-9.228748173E-1,2.318606795E0
1.028189233E1,1.297311650E0,-9.752974445E-1,-1.851978089E0,2.462528267E0
1.029186233E1,3.100953512E-1,-3.054843904E0,-1.177395344E-1,3.072798887E0
1.030183233E1,2.985276217E-1,-1.944600323E0,1.773306726E0,2.648623398E0
1.031180233E1,7.753576063E-1,-1.240813952E0,2.372088506E0,2.787041901E0
1.032177133E1,7.013485938E-1,-6.219215512E-1,9.849237156E-1,1.359687829E0
1.033174133E1,-3.510552795E-1,-1.417610365E0,1.663567936E0,2.213666017E0
1.034171133E1,-9.270293371E-1,-1.993352361E0,3.522017723E-1,2.226405874E0
1.035168033E1,-1.661173355E0,-1.035149836E0,-2.857609134E0,3.463663099E0
1.036165033E1,-1.362536756E0,2.271128726E-1,-3.534554738E0,3.794886542E0
1.037162033E1,-1.351929176E0,-6.232406831E-1,-1.043086554E0,1.817737882E0
1.038159033E1,-2.189653915E0,-3.282693233E0,2.633314034E0,4.743943711E0
1.039155933E1,-1.903251446E0,-2.423113356E0,2.686526036E0,4.087941602E0
1.040152933E1,-1.269634586E0,9.455064654E-1,2.400263899E0,2.875277594E0
1.041149933E1,-1.079588017E0,2.219890745E0,4.389410065E0,5.035905671E0
1.042146833E1,-1.241085848E0,1.791820472E0,3.876647844E0,4.447393978E0
1.043143833E1,-4.157214281E-1,1.273884050E0,7.433910245E-1,1.532395215E0
1.044140833E1,-8.547589210E-1,1.023509784E0,-3.338519232E0,3.594982024E0
1.045137833E1,-1.213039824E0,2.481318587E-1,-4.587296215E0,4.751454683E0
1.046134733E1,-1.384864642E0,-1.161843504E0,-3.980966849E0,4.372165077E0
1.047131733E1,-1.027863840E0,-1.149480736E-1,-3.059774276E0,3.229850732E0
1.048128733E1,-1.323114828E0,-2.748919335E-1,-2.887717617E-1,1.381878270E0
1.049125633E1,-1.381730534E0,-1.489239049E-1,2.071856201E0,2.494783701E0
1.050122633E1,-6.212912945E-1,-5.299325699E-1,9.482698596E-1,1.251418047E0
1.051119633E1,-2.198931510E-1,-7.992485985E-1,1.607300180E-1,8.443846628E-1
1.052116633E1,-3.845410410E-1,-5.729113591E-1,9.491919655E-1,1.173483969E0
1.053113533E1,-1.953953822E-1,-2.287041923E-1,-3.540500772E-1,4.645819843E-1
1.054110533E1,1.598215983E-1,9.451974401E-1,-1.312940819E0,1.625655172E0
1.055107533E1,-3.062460560E-1,2.064975490E0,9.679001319E-1,2.301030440E0
1.056104433E1,6.605508160E-3,4.060548039E0,1.793572006E0,4.439030812E0
1.057101433E1,5.259658188E-1,3.762850795E0,8.077378786E-1,3.884343784E0
1.058098433E1,1.173711013E0,2.286375048E0,-6.221291274E-1,2.644267962E0
1.059095433E1,1.344948624E0,-1.086579314E-1,-2.077665995E0,2.477375493E0
1.060092333E1,1.368464810E0,-1.102578758E0,-2.253336818E0,2.857604358E0
1.061089333E1,1.862503662E0,-1.900261180E0,-1.380324717E0,2.997533780E0
1.062086333E1,1.912601143E0,-1.177903174E0,-1.049475222E0,2.479293703E0
1.063083233E1,2.214180646E0,-1.340267197E0,2.047438229E0,3.300138693E0
1.064080233E1,1.588828534E0,-2.433904100E0,4.159493453E0,5.074411401E0
1.065077233E1,1.795524099E0,-1.158372889E0,3.205525482E0,3.852418481E0
1.066074233E1,1.685162581E0,-1.138996679E0,9.562670964E-1,2.247561594E0
1.067071133E1,1.282253462E0,-8.932887831E-1,-9.798635352E-1,1.844524692E0
1.068068133E1,6.763747703E-1,-2.228002002E0,-1.882416354E0,2.994155487E0
1.069065133E1,-2.869035032E-2,-2.386832845E0,2.818042195E-1,2.403582281E0
1.070062033E1,-3.359501308E-1,-1.189126905E0,1.841452516E0,2.217618690E0
1.071059033E1,-3.116013015E-1,3.240728644E-1,3.140448895E0,3.172465580E0
1.072056033E1,-2.524717718E-1,1.371270596E0,2.203229688E0,2.607363823E0
1.073053033E1,-3.015350640E-2,1.072144293E0,8.052282536E-1,1.341191693E0
1.074049933E1,-1.129011827E-1,-7.480632421E-1,-7.196185845E-1,1.044124609E0
1.075046933E1,-1.834853714E-1,-2.547031058E0,-2.565755305E0,3.619963312E0
1.076043933E1,5.340461592E-1,-2.690179668E0,-3.099579197E0,4.138799723E0
1.077040833E1,-8.850619700E-3,-2.487572769E0,-2.530140499E0,3.548197790E0
1.078037833E1,-1.135235969E0,-2.028557277E0,-1.840060878E0,2.964730910E0
1.079034833E1,-7.833265572E-1,-7.081823078E-1,-2.441889058E0,2.660440724E0
1.080031833E1,-1.198893948E0,-9.147761312E-1,1.429093419E0,2.077611626E0
1.081028733E1,-3.866122345E-1,-4.059058169E-1,6.276525827E0,6.301508154E0
1.082025733E1,-7.642205608E-1,5.621659309E-1,4.763849384E0,4.857398949E0
1.083022733E1,-1.599842203E0,4.250572023E-1,1.718756881E0,2.386271970E0
1.084019633E1,-1.678126188E0,-2.055391027E0,1.449214273E0,3.023402352E0
1.085016633E1,-2.002548131E0,-1.728051908E0,-8.133348334E-1,2.767286751E0
1.086013633E1,-1.921491835E0,1.420981285E0,-2.379745435E0,3.372611305E0
1.087010633E1,-1.588000860E0,4.196691685E0,-2.348791444E0,5.064660806E0
1.088007533E1,-1.357555513E0,2.531235098E0,-1.786092832E0,3.382341747E0
1.089004533E1,-4.526837613E-2,2.869059151E-1,-2.461947346E0,2.479021776E0
1.090001533E1,6.149495506E-1,-2.438475161E0,-3.358741828E0,4.195887358E0
1.090998433E1,3.103089938E-1,-1.695681722E0,-1.066030444E0,2.026832277E0
1.091995433E1,-1.276575542E-1,-2.207066631E-1,4.403619384E0,4.410994396E0
1.092992433E1,-3.161759803E-1,1.342002066E0,1.065433794E1,1.074317708E1
1.093989433E1,-4.213420276E-1,2.960437099E0,8.623926219E0,9.127640459E0
1.094986333E1,2.395559851E-1,4.018091991E0,2.083482805E0,4.532477349E0
1.095983333E1,-4.630998451E-1,3.923819087E0,-5.484294180E0,6.759312121E0
1.096980333E1,-5.627453534E-1,2.384951795E0,-9.259010437E0,9.577784278E0
1.097977233E1,-1.736209212E0,2.511437595E-1,-8.735151370E0,8.909565931E0
1.098974233E1,-1.585170223E0,-1.380981652E0,-4.623309216E0,5.078864348E0
1.099971233E1,-5.515071145E-1,-2.808443406E0,7.748133767E-1,2.965105433E0
1.100968233E1,6.148774836E-1,-2.106983349E0,2.400000774E0,3.252300243E0
1.101965133E1,1.006927373E0,-1.836244108E0,2.607592133E0,3.344432970E0
1.102962133E1,3.118328513E-1,-1.689422570E0,3.666770225E0,4.049270580E0
1.103959133E1,2.048929598E-1,-1.767912377E0,4.124914774E0,4.492484523E0
1.104956033E1,-6.616666749E-2,-7.701823819E-1,3.186755335E0,3.279171922E0
1.105953033E1,1.596622434E-1,-3.873321363E-1,1.883857693E0,1.929880313E0
1.106950033E1,-1.134237685E-1,-3.608579904E-1,2.472506833E-1,4.519030215E-1
1.107947033E1,-2.274091620E-1,-4.713928780E-1,7.960890555E-1,9.527244915E-1
1.108943933E1,1.729652437E-1,1.555496188E0,2.739995899E0,3.155481405E0
1.109940933E1,-3.143348018E-2,3.042317121E0,1.387267701E0,3.343829123E0
1.110937933E1,4.159932140E-1,4.540456510E-1,-2.381853940E0,2.460169913E0
1.111934833E1,1.879419364E0,-5.423449808E0,-3.513918160E0,6.730055408E0
1.112931833E1,2.275595122E0,-8.888227383E0,-4.076698049E0,1.003983995E1
1.113928833E1,2.965994585E0,-7.395783475E0,-2.354883074E0,8.309043951E0
1.114925833E1,2.291405993E0,-3.076597885E0,3.701544201E0,5.330799700E0
1.115922733E1,1.843109617E0,1.056365581E0,6.770459429E0,7.095920108E0
1.116919733E1,1.841676026E0,2.536838192E0,3.946367705E0,5.039954033E0
1.117916733E1,1.950223445E0,1.338343463E0,-1.939521432E-3,2.365277673E0
1.118913633E1,1.629506005E0,4.279220456E-1,-2.011811144E0,2.624079110E0
1.119910633E1,1.134293471E0,3.352664816E-1,-2.003582942E0,2.326664973E0
1.120907633E1,8.581962799E-1,7.175489625E-1,-1.745000939E0,2.072777279E0
1.121904533E1,1.072321317E0,1.621367996E0,-1.902894473E0,2.720241637E0
1.122901533E1,1.463676776E0,2.288063724E0,-3.252587382E0,4.237559438E0
1.123898533E1,9.538663758E-1,1.804420930E0,-4.254038837E0,4.718330465E0
1.124895533E1,6.229274185E-1,6.663457721E-2,-3.551679479E0,3.606508818E0
1.125892433E1,6.330707297E-1,2.558952069E-1,-2.415449118E0,2.510110625E0
1.126889433E1,2.415706615E-1,4.286292663E-1,-4.155048984E-1,6.439904914E-1
1.127886433E1,2.317185782E-2,-6.440874687E-1,1.761892376E0,1.876073119E0
1.128883333E1,-3.212024296E-1,-1.354411904E0,2.326322349E0,2.710973677E0
1.129880333E1,-5.858808488E-1,-1.007147813E-1,2.759142607E0,2.822457752E0
1.130877333E1,-2.755521207E-1,4.002670837E0,3.427026781E0,5.276534408E0
1.131874333E1,-3.301970188E-2,4.897273197E0,1.513153576E0,5.125817868E0
1.132871233E1,1.368891291E-1,2.817382629E0,-1.173671252E0,3.055141195E0
1.133868233E1,-1.097361580E-2,-1.403621486E0,-3.984036053E0,4.224075871E0
1.134865233E1,1.872206458E-1,-3.853380019E0,-3.974156013E0,5.538727756E0
1.135862133E1,1.301675427E0,-3.548811420E0,4.403532261E-1,3.805565973E0
1.136859133E1,1.500952776E0,-1.089904333E0,5.771728683E0,6.062474963E0
1.137856133E1,1.478646964E0,3.176763028E-2,6.413761148E0,6.582077035E0
1.138853133E1,1.183071163E0,-2.129386371E-1,3.117562893E0,3.341286972E0
1.139850033E1,1.399834683E0,-1.223104490E0,-4.477505386E-1,1.912067540E0
1.140847033E1,2.249791505E-1,-1.787932658E0,-1.895069144E0,2.615072823E0
1.141844033E1,-3.098382198E-1,-1.437758993E0,-3.085713694E0,3.418300696E0
1.142840933E1,-3.442182034E-1,-1.384326844E0,-3.574811649E0,3.848912224E0
1.143837850E1,-9.549821708E-1,-2.222206242E0,-2.221389971E0,3.284016585E0
1.144834850E1,-1.106273906E0,-2.181173406E0,1.052346790E-1,2.447944795E0
1.145831750E1,-9.750985660E-1,-4.520719233E-1,2.944963027E0,3.134963073E0
1.146828750E1,-5.028210043E-1,1.987335284E0,3.615365598E0,4.156103812E0
1.147825750E1,7.137816746E-2,1.498753638E0,2.392420444E0,2.824010073E0
1.148822750E1,3.786996726E-1,-1.172661438E0,4.383990866E-1,1.307953382E0
1.149819650E1,7.626240516E-1,-3.167658621E0,-2.472360653E0,4.090015132E0
1.150816650E1,1.999516057E-1,-3.095727636E0,-2.758828611E0,4.151463061E0
1.151813650E1,-3.193052640E-1,-1.404505585E0,-2.382148055E0,2.783742292E0
1.152810550E1,-1.364486656E0,1.168045354E0,-2.398519675E0,2.996506368E0
1.153807550E1,-9.645020226E-1,1.745637701E0,2.835256398E-2,1.994572386E0
1.154804550E1,-4.665629317E-1,-5.821517140E-1,3.754335203E0,3.827742729E0
1.155801550E1,2.885390425E-1,-3.294233298E0,6.063138708E0,6.906292696E0
1.156798450E1,1.528136482E0,-2.527301968E0,4.020233241E0,4.988459848E0
1.157795450E1,1.690500650E0,3.053494951E-1,-1.220549549E0,2.107313922E0
1.158792450E1,2.036854768E0,1.345155762E0,-3.888415951E0,4.591078302E0
1.159789350E1,1.863814169E0,1.046616226E0,-4.621018862E0,5.091465811E0
1.160786350E1,1.469173598E0,6.625670090E-1,-4.195286599E0,4.494206910E0
1.161783350E1,1.117185979E0,1.413603560E0,-1.227555099E0,2.180199775E0
1.162780350E1,7.284976546E-1,2.532239942E0,1.843017231E0,3.215534243E0
1.163777250E1,5.538544062E-1,2.771560046E0,3.702057002E0,4.657630925E0
1.164774250E1,-1.603517945E-1,2.204326918E0,3.897755123E0,4.480766102E0
1.165771250E1,-3.185344182E-1,1.804246975E0,1.537004369E0,2.391475225E0
1.166768150E1,-1.781717872E-2,2.286344058E0,-1.948929602E0,3.004332405E0
1.167765150E1,1.231502371E-1,1.987238220E0,-4.501264377E0,4.921957204E0
1.168762150E1,-5.174809607E-2,-4.045729440E-1,-4.637659453E0,4.655560368E0
1.169759150E1,-6.226137154E-1,-2.395187931E0,-3.149188728E0,4.005241904E0
1.170756050E1,-3.329028909E-1,-1.847093617E0,-2.656477779E-1,1.895560051E0
1.171753050E1,-1.500432630E-1,-7.103083554E-1,3.394567133E0,3.471330719E0
1.172750050E1,-2.987816832E-1,-4.281158808E-1,4.468964943E0,4.499355661E0
1.173746950E1,-4.002785661E-1,-2.010979377E0,3.077239324E0,3.697791618E0
1.174743950E1,-5.221513876E-1,-3.560588004E0,1.368209286E0,3.849990345E0
1.175740950E1,-3.956673422E-1,-3.313501628E0,1.882858989E0,3.831579786E0
1.176737850E1,-1.048385009E0,-1.344220792E0,3.000944270E0,3.451334115E0
1.177734850E1,-7.721043617E-1,7.930868027E-1,1.538987160E0,1.895682806E0
1.178731850E1,-6.352002856E-1,1.398195562E0,-1.488628600E0,2.138795301E0
1.179728850E1,-5.963438565E-1,2.701150507E-1,-1.822681199E0,1.936686575E0
1.180725750E1,7.948873065E-2,-3.809808907E-1,-1.978535224E0,2.016448990E0
1.181722750E1,2.187445203E-2,-1.169594573E0,-7.600491571E-1,1.395028558E0
1.182719750E1,4.910340043E-1,-2.269810471E0,1.173171315E0,2.601823381E0
1.183716650E1,6.376498304E-1,-3.215045626E0,2.791824449E0,4.305508035E0
1.184713650E1,1.146706598E0,-2.021363740E0,2.048948565E0,3.098231368E0
1.185710650E1,9.605477699E-1,-3.570046753E-2,-2.020048701E0,2.237079189E0
1.186707650E1,1.024545034E0,5.136966062E-1,-2.816479234E0,3.040745304E0
1.187704550E1,1.282719924E0,-4.437387639E-1,-3.629998255E-1,1.405006536E0
1.188701550E1,7.155976736E-1,-5.468105578E-1,1.495864529E0,1.746050545E0
1.189698550E1,8.611320207E-1,8.024022943E-1,8.495787996E-1,1.451613563E0
1.190695450E1,8.591193359E-1,1.485828660E0,-9.573394758E-1,1.965266321E0
1.191692450E1,-5.759909048E-1,-6.708335102E-2,-1.467442968E0,1.577863924E0
1.192689450E1,-7.678954627E-1,-9.427228984E-1,5.826861495E-1,1.348300061E0
1.193686350E1,-1.072434607E0,4.454546294E-1,3.280771546E0,3.480230991E0
1.194683350E1,-9.370709798E-1,2.998401023E0,2.446241140E0,3.981533176E0
1.195680350E1,-9.818694956E-1,2.558241340E0,-1.577840738E0,3.162000610E0
1.196677350E1,-9.989306476E-1,9.247128895E-1,-4.104022087E0,4.323881782E0
1.197674250E1,-1.841466549E0,3.369697756E-1,-3.287221025E0,3.782904935E0
1.198671250E1,-2.006519414E0,1.870999081E0,-1.670017415E-1,2.748571866E0
1.199668250E1,-1.255185385E0,2.194224684E0,3.449617499E0,4.276677823E0
1.200665150E1,-5.804957825E-1,1.531126455E0,3.311844819E0,3.694541877E0
1.201662150E1,2.150234619E-1,1.265600007E0,-9.613401407E-1,1.603793420E0
1.202659150E1,2.078552506E-1,3.595783272E-1,-3.750676015E0,3.773601853E0
1.203656150E1,1.664620253E-1,-1.758834282E0,-3.235141629E0,3.686102141E0
1.204653050E1,3.291666663E-1,-2.715022441E0,8.501202518E-1,2.863983588E0
1.205650050E1,-1.363411262E-1,-2.324300674E0,5.144691988E0,5.647018521E0
1.206647050E1,2.230068664E-1,-5.164082524E-1,5.765061103E0,5.792438094E0
1.207643950E1,4.762651435E-1,5.289563772E-1,2.015744566E0,2.137720630E0
1.208640950E1,-6.707034827E-1,7.460500458E-1,-4.057931995E0,4.180101184E0
1.209637950E1,-9.619067359E-1,6.416599971E-1,-6.044562689E0,6.154163649E0
1.210634950E1,-1.087849548E0,-1.248091982E0,-2.126152861E0,2.694749752E0
1.211631850E1,-8.464037615E-1,-2.876368171E0,9.050764775E-1,3.131941349E0
1.212628850E1,-5.360212755E-1,-3.718911308E0,2.414756223E0,4.466393147E0
1.213625850E1,-3.301244036E-1,-2.542719614E0,1.996057575E0,3.249407792E0
1.214622750E1,-9.787873551E-2,-1.609051421E-1,1.702694580E0,1.713078966E0
1.215619750E1,6.300913540E-1,1.078138273E0,2.497586126E0,2.792370625E0
1.216616750E1,1.518333515E-1,-1.591582865E-2,2.455024243E0,2.459766394E0
1.217613750E1,3.127086546E-1,-1.371670838E0,2.146212319E0,2.566221913E0
1.218610650E1,9.269389245E-1,-2.121153199E0,2.108924625E0,3.131464472E0
1.219607650E1,3.443606196E-2,-1.900143650E0,7.166774350E-1,2.031097802E0
1.220604650E1,-3.805988300E-2,-4.613730893E-1,-9.660874951E-1,1.071279016E0
1.221601550E1,-3.292364674E-1,1.151536617E0,-2.415614594E0,2.696224601E0
1.222598550E1,-7.442550237E-1,1.809765577E0,-2.859260387E0,3.464756405E0
1.223595550E1,-3.517767163E-1,3.246502769E-1,-2.156573001E0,2.209061286E0
1.224592450E1,4.840455583E-1,-1.427495083E0,-2.049212274E0,2.543877603E0
1.225589450E1,1.225309183E0,-2.738165136E0,-9.254908615E-1,3.139341371E0
1.226586450E1,1.706492639E0,-2.232191825E0,1.818997453E0,3.347170328E0
1.227583450E1,1.560663373E0,9.857557744E-2,4.007065312E0,4.301390440E0
1.228580350E1,1.362981291E0,2.957479869E0,1.788871429E0,3.715436201E0
1.229577350E1,1.602927632E0,4.021054775E0,-2.081214085E0,4.803093854E0
1.230574350E1,1.535081512E0,2.181334205E0,-2.303353901E0,3.524220957E0
1.231571250E1,7.066402508E-1,2.477757633E-2,7.887279958E-1,1.059266833E0
1.232568250E1,1.142828213E0,8.169443196E-1,2.468210299E0,2.839985286E0
1.233565250E1,1.518749654E0,3.272152458E0,9.637088478E-1,3.733941210E0
1.234562250E1,1.019296719E0,2.901305376E0,-1.130241058E0,3.276275864E0
1.235559150E1,2.603759648E-1,-1.043312842E-1,-1.093330509E0,1.128739236E0
1.236556150E1,6.031817732E-2,-1.550292459E0,2.693274307E-1,1.574668935E0
1.237553150E1,1.983097076E-1,-1.103466073E-1,2.112539374E0,2.124694265E0
1.238550050E1,4.352987467E-1,5.976857194E-1,2.709828944E0,2.808894111E0
1.239547050E1,1.007813372E0,-6.506819585E-1,7.153471935E-1,1.396709136E0
1.240544050E1,8.469090340E-1,-1.352212181E0,-3.400739454E0,3.756429359E0
1.241540950E1,4.282638884E-1,-7.482453829E-1,-5.894653528E0,5.957366980E0
1.242537950E1,-7.405141944E-1,-1.216011525E0,-5.614368415E0,5.792078902E0
1.243534950E1,-1.072058339E0,-3.102258976E0,-1.756456220E0,3.722695030E0
1.244531996E1,-1.009245867E-2,-3.773152420E0,3.217098876E0,4.958478216E0
1.245528896E1,1.031784837E0,-2.143982776E0,4.759256396E0,5.320879958E0
1.246525896E1,1.362910978E0,-1.390050683E0,3.777285524E0,4.249429746E0
1.247522896E1,4.763983870E-1,-7.893045312E-1,1.873984669E0,2.088486439E0
1.248519796E1,1.794077424E-2,7.905882874E-1,-5.430133760E-2,7.926539894E-1
1.249516796E1,-7.447499905E-1,3.456569839E-1,-1.658621192E-2,8.212225041E-1
1.250513796E1,-1.200439659E0,-1.727304049E0,5.559415698E-1,2.175708087E0
1.251510796E1,-4.455883479E-2,-2.633047109E0,9.138578260E-1,2.787482501E0
1.252507696E1,7.825242461E-1,-1.359977576E0,6.405390859E-1,1.694748808E0
1.253504696E1,4.701102182E-1,3.476500073E-1,2.157340740E0,2.235169616E0
1.254501696E1,6.158832047E-1,9.530400181E-1,4.216679807E0,4.366690508E0
1.255498596E1,1.023553053E0,5.001933387E-1,3.214362379E0,3.410275609E0
1.256495596E1,5.858980981E-1,8.178968310E-2,-2.909913647E-1,6.592739249E-1
1.257492596E1,-6.248261556E-3,-2.554400012E-1,-4.182264265E0,4.190062412E0
1.258489596E1,-2.318172865E-1,-1.920679364E0,-6.686912073E0,6.961145132E0
1.259486496E1,-9.385570496E-2,-3.919230192E0,-5.455626451E0,6.718112396E0
1.260483496E1,-4.195584807E-1,-2.864740983E0,-2.663876261E0,3.934336914E0
1.261480496E1,-2.071364268E-2,7.685320053E-1,5.293770844E-1,9.334401939E-1
1.262477396E1,4.320028905E-1,1.418552059E0,9.555339140E0,9.669716776E0
1.263474396E1,1.506064851E0,1.632915078E0,1.136043718E1,1.157558533E1
1.264471396E1,2.355015074E0,3.702179501E0,-1.694394457E-1,4.391006580E0
1.265468396E1,1.356994583E-1,2.810717680E0,-7.312399256E0,7.835159928E0
1.266465296E1,-2.831544585E0,-1.701844102E0,-8.506947992E0,9.125901721E0
1.267462296E1,-3.288969634E0,-3.765284406E0,-6.264671182E0,8.015035429E0
1.268459296E1,-1.311930567E0,2.100600529E-1,-9.056144214E-1,1.607925532E0
1.269456196E1,-7.023093644E-1,5.285245603E0,5.353425307E0,7.555542472E0
1.270453196E1,-4.255077302E-1,6.687172859E0,5.524470398E0,8.684417704E0
1.271450196E1,-7.188828586E-1,2.899172897E0,1.071211662E0,3.173246047E0
1.272447096E1,-1.330899519E0,-2.094180286E-2,-1.979580122E0,2.385470508E0
1.273444096E1,-1.333371429E0,-4.489345998E-1,-3.385653053E0,3.666342624E0
1.274441096E1,-1.104761158E0,-9.479447544E-1,-4.361916457E0,4.598414037E0
1.275438096E1,-1.110291674E0,-1.763066204E0,-4.942932642E0,5.364115318E0
1.276434996E1,-1.931814509E0,-1.982752528E0,-1.267161798E0,3.044489105E0
1.277431996E1,-1.160031306E0,-1.254968892E0,6.814564977E0,7.025590037E0
1.278428996E1,-3.457643168E-1,1.759149447E0,9.911778975E0,1.007261248E1
1.279425896E1,-8.768820807E-1,2.294829245E0,7.780395779E0,8.159027021E0
1.280422896E1,-1.394818942E0,-8.701656765E-1,4.659592944E0,4.941104592E0
1.281419896E1,-1.584467242E0,-3.237745102E0,1.682945609E-1,3.608580447E0
1.282416896E1,-1.570323996E0,-4.537201365E0,-2.741829001E0,5.528990862E0
1.283413796E1,-1.889244440E0,-2.004079955E0,-4.169151884E0,4.996739782E0
1.284410796E1,-2.497430590E0,1.356839960E0,-4.459877785E0,5.288542718E0
1.285407796E1,-1.735805754E0,2.340242523E0,-2.302873845E0,3.713890766E0
1.286404696E1,-7.197361135E-1,-1.366011026E0,1.956854333E0,2.492646200E0
1.287401696E1,3.643872967E-1,-3.494215382E0,3.152433933E0,4.720186325E0
1.288398696E1,1.637834340E-1,-2.802709918E0,1.933418108E0,3.408828755E0
1.289395696E1,-5.892107285E-1,-1.563297251E0,1.030961183E0,1.963147610E0
1.290392596E1,-1.001031333E0,-1.774482308E0,-1.741834672E0,2.680455039E0
1.291389596E1,-2.157495545E0,-3.052569337E0,-6.392742162E0,7.405411463E0
1.292386596E1,-2.504462451E0,-2.058946134E0,-9.158417863E0,9.715359443E0
1.293383496E1,-1.900053457E0,-3.775254786E-2,-5.202456631E0,5.538698709E0
1.294380496E1,-6.891360991E-1,2.012611628E-2,1.040255450E1,1.042537547E1
1.295377496E1,1.640399514E0,4.105482722E0,1.364845851E1,1.434664834E1
1.296374496E1,2.406379209E-1,5.908233687E0,3.498607811E0,6.870617768E0
1.297371396E1,2.300103141E-1,-2.124270058E0,1.379242398E0,2.543174712E0
1.298368396E1,1.383571968E0,-6.300366095E0,-2.617745238E0,6.961427616E0
1.299365396E1,1.072544827E0,-1.403124180E0,-6.977199433E0,7.197250989E0
1.300362296E1,5.065533186E-1,2.980567893E0,-4.918864918E0,5.773700140E0
1.301359296E1,6.242869692E-1,1.155337600E0,-1.822959527E0,2.246713294E0
1.302356296E1,1.482800095E0,-2.336133977E0,1.406662331E0,3.104016268E0
1.303353196E1,1.658121547E0,-6.789090997E-1,4.907500854E0,5.224351564E0
1.304350196E1,1.185682456E0,3.339648330E0,8.980277175E0,9.654246320E0
1.305347196E1,2.678299040E-1,4.629310214E0,7.717018393E0,9.003033866E0
1.306344196E1,1.580550585E-2,2.837764269E0,-5.818114060E-1,2.896836269E0
1.307341096E1,-6.997170013E-1,2.215007150E-1,-7.309521841E0,7.346276336E0
1.308338096E1,-2.056746960E-1,-1.038951696E0,-9.780817716E0,9.837993591E0
1.309335096E1,1.264970828E-1,-1.260395693E0,-9.826880912E0,9.908187890E0
1.310331996E1,5.856684122E-1,1.555955195E0,-8.538479102E0,8.698829199E0
1.311328996E1,8.323851351E-1,4.058944440E0,-2.405854422E0,4.791245191E0
1.312325996E1,1.575459460E0,4.594978872E-1,4.387661163E0,4.684525728E0
1.313322896E1,2.693651453E0,-7.013419425E0,6.566698582E0,9.978243355E0
1.314319896E1,3.459644889E0,-5.681015564E0,2.881186861E0,7.248745983E0
1.315316896E1,2.383706777E0,-8.346724927E-1,2.675837325E0,3.679516485E0
1.316313896E1,1.040959264E0,1.370874155E0,4.691632177E0,4.997429802E0
1.317310796E1,7.310475522E-1,6.225220603E-1,1.979140411E0,2.199763852E0
1.318307796E1,1.262110681E0,-3.086984879E-1,-4.184981466E0,4.382041533E0
1.319304796E1,1.135907448E0,2.764537248E-1,-6.805628092E0,6.905308547E0
1.320301696E1,3.885278554E-1,4.539161351E-1,-2.436827123E0,2.509007808E0
1.321298696E1,2.471882460E-1,-1.859082456E0,3.063786051E0,3.592224181E0
1.322295696E1,5.517528438E-1,-3.628157551E0,3.775736597E0,5.265372282E0
1.323292696E1,1.028739095E0,-4.471402062E0,4.332731835E0,6.310650179E0
1.324289596E1,1.052692068E0,-2.266230513E0,3.910141865E0,4.640384761E0
1.325286596E1,1.197694099E0,-2.809955496E-1,3.271030669E0,3.494720489E0
1.326283596E1,1.902287094E-1,-1.442402852E-1,1.986075209E0,2.000371705E0
1.327280496E1,-5.881509572E-1,-1.245876472E0,-2.152535498E-2,1.377894434E0
1.328277496E1,-4.497006216E-1,-6.143912145E-1,-3.579184197E0,3.659271338E0
1.329274496E1,-1.138625600E0,4.534746704E-1,-3.793031491E0,3.986125365E0
1.330271496E1,-1.041525494E0,1.013968005E0,-1.944754105E0,2.427956960E0
1.331268396E1,4.042034000E-3,1.298437093E0,-2.176351207E0,2.534257248E0
1.332265396E1,2.690255682E-1,1.051205121E0,-2.395241725E0,2.629560778E0
1.333262396E1,8.958946679E-1,9.089929426E-1,-1.257332629E0,1.791586103E0
1.334259296E1,8.230534905E-1,-1.238951614E0,7.142373919E-3,1.487437113E0
1.335256296E1,4.904406215E-1,-3.882295378E0,1.483188350E0,4.184805501E0
1.336253296E1,5.514462304E-1,-2.776437794E0,2.424994113E0,3.727371220E0
1.337250296E1,3.547409623E-1,3.331171036E0,2.584808457E-1,3.359963388E0
1.338247196E1,-7.676650093E-1,7.150349522E0,-1.046651602E-4,7.191439902E0
1.339244196E1,-1.727925900E0,5.907636101E0,5.874007595E-1,6.183116680E0
1.340241196E1,-2.802067894E0,2.759695461E0,-2.115792764E0,4.465879817E0
1.341238096E1,-2.127138117E0,1.138709288E0,-3.610098426E0,4.342140723E0
1.342235096E1,-1.019214419E0,7.775147903E-1,-2.343790321E0,2.671456597E0
1.343232096E1,-5.381271502E-1,-1.652548859E-1,-2.688173781E0,2.746482893E0
1.344228996E1,1.011699359E0,3.351755574E-1,-3.590876289E0,3.745700304E0
1.345225996E1,1.707192697E0,-2.102266108E0,1.291374534E0,3.000279634E0
1.346222996E1,2.033911719E0,-1.647961133E0,4.484183491E0,5.192347673E0
1.347219996E1,2.528871945E0,-6.766778022E-1,2.824762400E0,3.851281446E0
1.348216896E1,2.030590939E0,-1.855453966E0,8.898694484E0,9.314116839E0
1.349213896E1,2.242451349E0,-1.146036142E0,9.072645056E0,9.415671787E0
1.350210896E1,7.122814252E-1,1.804331175E0,2.696155815E0,3.321477382E0
1.351207796E1,6.807954115E-1,3.669980931E0,-8.748791170E-1,3.833752195E0
1.352204796E1,6.504582294E-1,1.358302934E0,-2.389053032E0,2.824120599E0
1.353201796E1,-1.174821399E0,-1.938524774E0,-4.647303266E0,5.170639348E0
1.354198796E1,-1.001853159E0,-1.985148133E0,-5.352853450E0,5.796340476E0
1.355195696E1,-4.452424851E-1,-2.171374058E0,-2.401997598E0,3.268439785E0
1.356192696E1,-8.143993190E-1,-2.470537491E0,7.631283009E-1,2.710934626E0
1.357189696E1,-1.212171586E0,-2.928617721E0,1.651055480E0,3.573813916E0
1.358186596E1,-5.580892156E-1,-2.678201939E0,2.839690341E0,3.943104162E0
1.359183596E1,-6.426755123E-1,-1.688514497E0,3.142519394E0,3.624850502E0
1.360180596E1,-6.367040433E-1,-1.175714854E0,5.874890524E-1,1.460424885E0
1.361177496E1,-6.228157367E-1,-2.225753748E0,-6.308309537E-1,2.395793580E0
1.362174496E1,-5.305452119E-1,2.033521271E-1,-1.081196367E0,1.221399154E0
1.363171496E1,-6.482867928E-1,3.468401679E0,-2.868489633E0,4.547341943E0
1.364168496E1,-1.016545312E0,3.081411313E0,-2.664165698E0,4.198361456E0
1.365165396E1,-6.942445922E-1,1.652624580E0,-1.895046340E0,2.608513789E0
1.366162396E1,3.120904577E-1,-1.061081361E0,-4.472242892E-2,1.106930081E0
1.367159396E1,1.673173011E0,-4.448683290E0,1.602293209E0,5.015738677E0
1.368156296E1,2.359627651E0,-5.277502720E0,3.938316089E-1,5.794392198E0
1.369153296E1,1.801337400E0,-2.599168634E0,2.711874300E-1,3.173962293E0
1.370150296E1,4.871229114E-1,1.259920022E-1,1.522717282E0,1.603692812E0
1.371147296E1,1.476632087E-1,2.203048132E0,2.656611680E0,3.454390122E0
1.372144196E1,1.321264185E0,2.693074040E0,1.683177159E0,3.439690710E0
1.373141196E1,1.161768806E0,2.320867189E0,-1.187758364E0,2.854277702E0
1.374138196E1,-4.284428132E-1,2.073220064E0,-2.340614698E0,3.155991420E0
1.375135096E1,-1.298138885E0,2.325374515E0,-1.823510334E0,3.227649476E0
1.376132096E1,-2.007334808E0,1.492938582E0,-1.721803865E0,3.036917383E0
1.377129096E1,-1.316161612E0,8.697049159E-1,-1.080097091E0,1.911878070E0
1.378126096E1,-9.483669233E-1,6.834901008E-1,-2.524535358E-2,1.169271511E0
1.379122996E1,-9.234757648E-1,-3.824134585E-1,1.866945791E0,2.117671865E0
1.380119996E1,-4.354346213E-1,1.348628131E-1,1.367539780E0,1.441511824E0
1.381116996E1,-3.792612977E-1,-1.839443412E-1,-1.580998235E0,1.636224334E0
1.382113896E1,-5.895377706E-1,-1.562774218E0,-8.416944140E-1,1.870365613E0
1.383110896E1,-5.215935633E-2,-1.789086607E0,2.362461065E0,2.963911903E0
1.384107896E1,3.380204471E-1,-2.560583442E-2,5.625348902E-1,6.567792507E-1
1.385104796E1,3.797006428E-1,3.211501336E-1,-5.559263670E-1,7.458981915E-1
1.386101796E1,4.717844953E-1,-9.269757620E-1,5.516257399E-1,1.177351107E0
1.387098796E1,8.785406435E-1,-1.523884971E0,8.079396075E-1,1.935671841E0
1.388095796E1,1.030541426E0,-1.307875376E0,-2.312562096E-1,1.681080922E0
1.389092696E1,9.422258120E-1,-9.648876464E-1,-7.164482242E-1,1.527120070E0
1.390089696E1,7.005065216E-1,-4.746304813E-1,-2.837653756E-2,8.466337511E-1
1.391086696E1,3.266916130E-1,-1.125553345E0,9.851143348E-1,1.531028411E0
1.392083596E1,5.188389400E-1,-6.014443097E-1,-7.886841416E-2,7.982163428E-1
1.393080596E1,5.919899101E-1,1.138648769E0,-9.852505749E-1,1.617928234E0
1.394077596E1,1.366008340E-1,2.192542148E-1,1.289728543E0,1.315344788E0
1.395074596E1,3.864323869E-2,-5.267110464E-1,1.622789454E0,1.706564807E0
1.396071496E1,1.064879273E0,9.247663915E-2,-3.438537025E-1,1.122833543E0
1.397068496E1,7.929688351E-1,-3.893131730E-1,3.304618245E-1,9.431698350E-1
1.398065496E1,4.789126166E-1,-1.224999865E0,-7.560034686E-1,1.517077193E0
1.399062396E1,9.076693522E-1,-9.041605112E-1,-2.565268232E0,2.867397946E0
1.400059396E1,1.078709473E0,-4.188761106E-1,-1.100070010E0,1.596629372E0
1.401056396E1,-5.071189636E-2,-1.218299541E-1,-1.123694515E-1,1.733237658E-1
1.402053396E1,1.359969536E0,-1.322681403E0,6.104311877E-1,1.992894746E0
1.403050296E1,2.072447062E0,-1.042894766E0,9.723662353E-1,2.515583911E0
1.404047296E1,1.003330677E0,1.131313437E-1,2.710855131E0,2.892785282E0
1.405044296E1,4.735728296E-1,1.233401145E0,1.235831832E0,1.809096439E0
1.406041196E1,-2.191115427E-1,8.452924982E-1,6.182804900E-1,1.069953289E0
1.407038196E1,-4.048695075E-1,-2.494626850E-2,-2.145705950E-1,4.588923345E-1
1.408035196E1,-4.538664338E-1,1.078818305E0,-7.635399449E-1,1.397439416E0
1.409032096E1,-5.216132976E-1,2.971011788E0,-2.173441633E0,3.717908015E0
1.410029096E1,-8.351500641E-1,2.660477859E0,-1.833043635E0,3.337014689E0
1.411026096E1,-8.681137423E-1,1.371341640E0,-9.024721277E-1,1.857055547E0
1.412023096E1,-5.135435553E-1,-5.110408008E-2,-1.633676970E-1,5.413202514E-1
1.413019996E1,-2.837554353E-1,6.394363010E-1,-2.669780195E-1,7.487811383E-1
1.414016996E1,1.677773381E-1,8.198313823E-1,6.574960113E-1,1.064224476E0
1.415013996E1,2.451444066E-1,-4.724374831E-1,3.232419165E0,3.275946675E0
1.416010896E1,1.661730997E-1,-4.970495832E-1,-1.908531774E0,1.979182993E0
1.417007896E1,-4.174011139E-1,7.075013995E-1,-8.703895664E0,8.742572942E0
1.418004896E1,-1.009317788E0,-3.925473849E0,2.173977238E0,4.599374345E0
1.419001796E1,-1.501263556E0,-4.237550858E0,8.052172608E0,9.222153396E0
1.419998796E1,-1.558026571E0,1.117289183E0,1.594290125E0,2.493500134E0
1.420995796E1,-5.720806159E-1,3.356186887E0,1.375587303E0,3.671989526E0
1.421992796E1,-1.191271883E0,1.772545418E-1,3.842032328E0,4.026383027E0
1.422989696E1,-1.520884472E0,-1.856059738E0,-1.505238200E0,2.832629409E0
1.423986696E1,-6.478853083E-1,-1.321472199E0,-2.696110207E0,3.071653365E0
1.424983696E1,-2.597760405E-1,1.012555318E0,-1.121028185E-1,1.051341479E0
1.425980596E1,1.053303175E-1,4.769509488E-1,-6.785728848E-1,8.360848302E-1
1.426977596E1,3.007295187E-2,-2.933527628E0,6.559038144E-1,3.006110201E0
1.427974596E1,5.702986038E-1,-2.341501428E0,5.246110189E-1,2.466391323E0
1.428971596E1,7.109812237E-3,5.976447889E-1,2.923327160E-1,6.653482246E-1
1.429968496E1,-7.825477081E-1,2.380006805E-1,3.615960844E0,3.707316828E0
1.430965496E1,-1.623639932E0,-1.123100438E0,1.769931713E0,2.651456108E0
1.431962496E1,-2.341744270E-1,-2.207153462E0,-3.774249065E-1,2.251402592E0
1.432959396E1,8.461186367E-1,-3.029884187E0,-5.980643266E-1,3.202154879E0
1.433956396E1,1.786436575E-1,-1.400265184E0,-2.465281429E0,2.840821829E0
1.434953396E1,-2.136731205E-1,1.733824279E0,-1.347193224E0,2.206067183E0
1.435950296E1,2.306870014E-1,4.136441682E0,-1.149469042E-1,4.144463665E0
1.436947296E1,-2.266977386E-2,4.606731775E-1,1.215454286E0,1.300024160E0
1.437944296E1,-5.813623033E-1,-2.226909158E0,-2.224655641E0,3.200968485E0
1.438941296E1,3.122818078E-1,-2.613458059E0,-3.405289757E0,4.303914647E0
1.439938196E1,2.886296378E-1,-9.052893162E-2,-1.353409399E0,1.386801917E0
1.440935196E1,-5.056396546E-1,2.338304171E0,1.798143944E0,2.992767865E0
1.441932196E1,-4.111172940E-1,2.225956646E0,1.881670834E0,2.943566807E0
1.442929096E1,4.739771280E-2,4.746643952E-1,-9.508461428E-1,1.063795666E0
1.443926096E1,5.819527990E-1,1.380696600E0,-1.485512034E0,2.109914255E0
1.444923033E1,1.237678237E0,2.984619429E0,-7.239010853E-1,3.311167971E0
1.445920033E1,1.679068905E0,1.159618054E0,1.501249230E-1,2.046099683E0
1.446916933E1,1.573376682E0,-5.113995275E-1,-1.510353345E-1,1.661281232E0
1.447913933E1,8.413894817E-1,-4.443822500E-1,-4.191868901E-3,9.515405487E-1
1.448910933E1,2.464740086E-1,2.398337826E-1,7.813622582E-1,8.536958819E-1
1.449907833E1,-1.028318571E-1,-7.617977670E-1,2.450486219E0,2.568227587E0
1.450904833E1,1.266122456E-1,-1.301537872E0,3.446838902E0,3.686560716E0
1.451901833E1,9.462128822E-1,-4.753616756E-1,9.344113737E-1,1.412236579E0
1.452898733E1,1.215915156E-1,6.001234236E-1,1.371284337E0,1.501783391E0
1.453895733E1,-1.287860576E-1,-2.117443433E-1,3.738399786E-1,4.485285333E-1
1.454892733E1,9.811221483E-1,-1.948245770E0,-7.112447870E-1,2.294369499E0
1.455889733E1,-1.626509380E-1,-1.112171700E0,-2.949602793E0,3.156507224E0
1.456886633E1,-7.338270262E-1,-5.985078380E-1,1.976651251E-2,9.471559805E-1
1.457883633E1,-7.549172021E-2,5.401973569E-1,6.181419110E-1,8.243855933E-1
1.458880633E1,-8.715520513E-1,-8.638538995E-1,6.686378807E-1,1.397470269E0
1.459877533E1,1.495279040E-1,-1.290902663E0,1.735714391E0,2.168292584E0
1.460874533E1,-1.121982560E-1,4.682043913E-1,-9.760172367E-3,4.815589908E-1
1.461871533E1,7.209421018E-1,1.021203935E0,-3.298870432E-1,1.292842006E0
1.462868533E1,1.457213410E0,-5.022541898E-1,9.776661515E-2,1.544437925E0
1.463865433E1,7.497000971E-1,-1.151391899E0,-9.652232766E-2,1.377341679E0
1.464862433E1,1.299984413E0,-7.109930643E-1,-5.848788553E-1,1.592970146E0
1.465859433E1,4.139683963E-1,-3.367186376E-1,-7.576295793E-2,5.389705928E-1
1.466856333E1,7.269061156E-1,1.682980692E-1,-9.020698392E-1,1.170660812E0
1.467853333E1,9.639086764E-1,-1.184847620E0,-5.894554710E-1,1.637205415E0
1.468850333E1,3.875924836E-1,-2.240869677E0,-3.915991420E-1,2.307612344E0
1.469847233E1,1.197529061E0,-1.797099631E0,-3.055345595E-1,2.181053485E0
1.470844233E1,1.010742681E0,-8.264483839E-1,1.147814280E0,1.738417476E0
1.471841233E1,3.496949979E-1,-1.292572336E0,1.739646644E0,2.195313254E0
1.472838233E1,1.428133818E-1,-6.683917129E-1,2.456701809E0,2.550005279E0
1.473835133E1,7.519300058E-2,1.343962345E0,3.932761234E-1,1.402339075E0
1.474832133E1,9.576615112E-1,2.342612984E0,3.460627806E-1,2.554351309E0
1.475829133E1,-1.305988589E-1,2.460114537E0,-2.086566626E0,3.228464013E0
1.476826033E1,-2.142686229E-1,9.559975398E-1,-3.398847880E0,3.537231862E0
1.477823033E1,-9.743656906E-1,3.954843244E-1,-2.837156158E0,3.025764600E0
1.478820033E1,-2.473890869E0,-4.489673442E-1,-2.274430649E0,3.390389724E0
1.479816933E1,-1.475614452E0,1.286138937E0,-1.206432032E0,2.299362873E0
1.480813933E1,-1.715719436E-1,1.108194424E0,2.618134663E0,2.848185549E0
1.481810933E1,2.871912410E-1,4.270777076E-1,5.708564136E0,5.731716904E0
1.482807933E1,3.344223630E-3,1.597024868E0,4.193775678E0,4.487566607E0
1.483804833E1,1.167974456E0,1.694242430E0,2.339244695E0,3.115555727E0
1.484801833E1,5.236356302E-1,1.043714253E0,2.503432172E0,2.762373319E0
1.485798833E1,6.782808895E-1,9.086529270E-1,3.996911037E-1,1.202276210E0
1.486795733E1,-7.298088927E-2,1.059304099E0,-4.350593909E0,4.478294178E0
1.487792733E1,-1.615937395E0,1.969879006E0,-4.400002881E0,5.084456934E0
1.488789733E1,-2.124284858E-1,-7.486614123E-1,-3.071325451E0,3.168384414E0
1.489786733E1,-5.343594237E-1,-3.021352222E0,-2.162516111E0,3.753742822E0
1.490783633E1,-6.818406744E-1,-2.084353455E0,-2.747489691E-2,2.193214741E0
1.491780633E1,-9.187631283E-2,-1.725798683E0,1.247046207E0,2.131184317E0
1.492777633E1,2.804908618E-1,-1.258183399E0,2.671974655E0,2.966673077E0
1.493774533E1,4.219084767E-1,-1.792306376E0,3.334796895E0,3.809362051E0
1.494771533E1,2.602718661E-1,-1.864864182E0,2.042963355E0,2.778337476E0
1.495768533E1,6.271723509E-1,1.019231376E0,-6.449829698E-2,1.198473106E0
1.496765433E1,-2.940841033E-1,1.003936230E0,-1.635150468E0,1.941156992E0
1.497762433E1,-1.042255373E0,1.404603526E0,-2.345470811E0,2.925823072E0
1.498759433E1,-7.769109191E-1,-1.516537652E0,-2.048381385E0,2.664459293E0
1.499756433E1,-3.399061742E-1,-1.471965789E0,-1.050002056E0,1.839761890E0
1.500753333E1,-5.660080997E-2,-2.772979166E0,2.513250816E0,3.742866117E0
1.501750333E1,9.838298477E-2,-2.225284509E0,2.857980432E0,3.623482097E0
1.502747333E1,8.525974247E-1,-1.770238692E0,2.415150325E0,3.113457642E0
1.503744233E1,9.082059073E-1,-2.082116311E0,2.354657956E0,3.271767166E0
1.504741233E1,7.105030677E-1,-1.980355170E0,-5.927053535E-1,2.185845567E0
1.505738233E1,1.820433749E-2,-1.808957784E0,-9.229496616E-1,2.030885457E0
1.506735133E1,-3.907971963E-1,-5.767591193E-1,-9.191530645E-1,1.153349854E0
1.507732133E1,-8.422843981E-1,-5.572972468E-1,-5.462796307E-1,1.148235456E0
1.508729133E1,-4.816300370E-1,1.553105262E0,-1.351963382E0,2.114688732E0
1.509726133E1,1.698228038E-1,1.604335057E0,-4.923583621E-1,1.686756508E0
1.510723033E1,-1.414234804E-1,1.204137585E-1,-2.931051332E-1,3.470024396E-1
1.511720033E1,5.010683745E-1,-2.581586641E-1,-7.913270831E-1,9.715523477E-1
1.512717033E1,2.516957366E0,4.025512692E-1,-2.075337049E0,3.286966044E0
1.513713933E1,2.024448292E0,8.373025703E-1,-1.865355349E-1,2.198695520E0
1.514710933E1,7.393546915E-1,1.725692264E0,2.917333764E-1,1.899938818E0
1.515707933E1,1.981422031E-1,1.877659060E0,-3.902466810E-1,1.927992829E0
1.516704833E1,1.670197583E-1,2.870195558E0,-1.170829505E0,3.104313108E0
1.517701833E1,-1.990528887E-1,1.834378262E0,-1.504234818E0,2.380606656E0
1.518698833E1,3.415660891E-1,-5.832986453E-1,-2.318479478E-1,7.146035081E-1
1.519695833E1,-4.604887710E-1,-1.165498014E0,-1.030253670E0,1.622300266E0
1.520692733E1,-5.066245450E-1,-1.253215604E0,2.246880323E-1,1.370292849E0
1.521689733E1,-1.133399870E0,-7.048353615E-1,1.509100286E0,2.014639379E0
1.522686733E1,-4.681881653E-1,-4.444407222E-1,1.956835037E0,2.060565718E0
1.523683633E1,5.186159418E-1,-1.170269050E0,2.249612727E0,2.588290858E0
1.524680633E1,6.912440204E-1,-1.463973230E-1,6.574170738E-1,9.651153718E-1
1.525677633E1,2.392604266E-1,3.685233977E-1,-6.677514428E-1,7.993416264E-1
1.526674533E1,-6.938271741E-1,-7.568036601E-1,-2.837004130E0,3.017074802E0
1.527671533E1,1.943388634E-1,-7.998154861E-1,-4.149453784E0,4.230300120E0
1.528668533E1,-5.116438315E-1,-1.798071438E0,-9.860574907E-1,2.113563267E0
1.529665533E1,-6.293719272E-1,-1.247364880E0,1.782141284E0,2.264521080E0
1.530662433E1,-4.711924281E-1,-1.188483126E0,6.075115560E0,6.208183592E0
1.531659433E1,-9.533346081E-2,1.125302207E0,5.132605793E0,5.255381599E0
1.532656433E1,-9.777382185E-1,1.369020003E0,2.773042608E0,3.243447718E0
1.533653333E1,1.441040359E-1,4.475140187E-1,2.691062890E0,2.731822514E0
1.534650333E1,6.184447968E-1,-7.012010247E-2,-3.993437791E-1,7.395040563E-1
1.535647333E1,-1.957795077E-1,-8.688009363E-1,-7.804378134E-1,1.184157026E0
1.536644233E1,4.625289742E-1,-6.424560955E-1,-1.046668559E0,1.312325401E0
1.537641233E1,-5.662939189E-1,5.416813803E-1,-1.218881339E0,1.449061503E0
1.538638233E1,-3.549066577E-1,7.378832397E-1,-3.412810446E0,3.509658894E0
1.539635233E1,5.654946046E-1,-1.768255024E0,-2.802221968E0,3.361392261E0
1.540632133E1,3.700567570E-1,-2.754680889E0,-2.813978965E0,3.955210035E0
1.541629133E1,7.186271891E-1,-2.405013885E0,-1.290737772E-1,2.513399463E0
1.542626133E1,5.236156766E-1,-1.863590074E0,3.475936986E0,3.978602679E0
1.543623033E1,-8.256513353E-1,-4.463875526E-1,3.292054333E0,3.423241696E0
1.544620108E1,-4.360496023E-1,1.601921911E0,-3.397553891E-1,1.694617004E0
1.545617108E1,-1.180778616E0,2.264774849E0,-1.717743559E0,3.078000356E0
1.546614008E1,-9.657161969E-1,3.333916596E0,-1.343390779E0,3.721868675E0
1.547611008E1,-3.354207385E-1,2.070149107E0,-9.702056891E-1,2.310697616E0
1.548608008E1,-1.285917912E0,1.459333465E0,-1.283966696E0,2.330624276E0
1.549605008E1,-1.969898448E0,9.168796670E-1,5.484138644E-1,2.240965414E0
1.550601908E1,-8.641743270E-1,2.166030872E-1,9.587252659E-1,1.308765946E0
1.551598908E1,-9.670096741E-1,1.876115395E0,-5.935830206E-1,2.192545892E0
1.552595908E1,-9.133194436E-1,1.036497035E0,7.848267335E-1,1.588845968E0
1.553592808E1,-2.263241928E-1,-3.484534147E-1,1.781620882E0,1.829430345E0
1.554589808E1,-1.571077995E0,-1.686765303E0,1.311626365E0,2.652136304E0
1.555586808E1,1.960673004E-1,-1.366066282E0,4.384680837E-1,1.448044797E0
1.556583708E1,-2.246347130E-1,-3.542933214E-1,1.019063269E0,1.102031968E0
1.557580708E1,-2.270969974E0,-9.339035431E-1,2.636091462E0,3.602562789E0
1.558577708E1,-1.967072343E0,2.860887668E-1,1.043727994E-3,1.987767963E0
1.559574608E1,-1.673516681E0,-1.459812936E-1,3.331123674E-1,1.712580646E0
1.560571608E1,-1.063516945E0,-1.228115262E0,1.388868669E0,2.137356210E0
1.561568608E1,-4.975737130E-1,-1.644167167E0,-7.482149774E-1,1.873683785E0
1.562565608E1,-4.232276085E-1,-2.114212847E-1,-3.448501266E0,3.480801854E0
1.563562508E1,-4.680620116E-1,-4.622557265E-1,-2.622748116E0,2.703991509E0
1.564559508E1,-4.229785902E-1,-1.768762854E0,-1.214837404E0,2.187067178E0
1.565556508E1,1.982951078E-1,-2.160198567E0,-5.363481349E-1,2.234602452E0
1.566553408E1,7.254356139E-1,-1.012368499E0,-2.047653991E-1,1.262171017E0
1.567550408E1,1.717834666E-1,-1.090495779E0,4.918619335E-1,1.208560617E0
1.568547408E1,6.705502857E-2,-1.789509360E0,3.304354536E0,3.758403787E0
1.569544308E1,-8.632105596E-2,-2.248089235E0,6.477974685E0,6.857515042E0
1.570541308E1,-4.236311029E-1,2.924388430E-1,5.467072960E0,5.491254004E0
1.571538308E1,-1.227951832E0,3.549007009E0,1.469712272E0,4.032786954E0
1.572535308E1,-2.174953138E0,1.962366796E0,1.852041239E-1,2.935235112E0
1.573532208E1,-1.877223150E0,-1.042113285E0,-3.393916338E0,4.016047181E0
1.574529208E1,-1.201277858E0,-2.103076532E0,-6.034633532E0,6.502522684E0
1.575526208E1,4.591269910E-1,-9.840498492E-1,-3.290207198E0,3.464767684E0
1.576523108E1,1.750214609E0,9.154210791E-1,-1.409270774E0,2.426374053E0
1.577520108E1,1.733446549E0,-3.779055476E-1,-8.932598394E-1,1.986344049E0
1.578517108E1,2.412105972E0,-2.049219875E0,-1.178868842E-1,3.167247170E0
1.579514008E1,1.813509842E0,-1.689913444E0,6.322559202E-1,2.558197205E0
1.580511008E1,1.742470264E0,8.861411467E-1,-6.522042811E-2,1.955940300E0
1.581508008E1,5.787623389E-1,2.080059845E0,-3.910623676E-1,2.194207050E0
1.582505008E1,-4.762351765E-1,1.439272545E0,-1.230915493E0,1.952807813E0
1.583501908E1,6.943456759E-1,1.042907630E0,-7.306405860E-1,1.450381987E0
1.584498908E1,3.306548375E-2,8.325183785E-1,-7.554175776E-1,1.124649231E0
1.585495908E1,1.235966538E-1,2.650635826E0,1.083178573E0,2.866081338E0
1.586492808E1,-6.433906268E-1,2.709837423E0,1.768179887E0,3.299034778E0
1.587489808E1,-9.243340630E-1,-7.426542753E-1,2.824610372E0,3.063389069E0
1.588486808E1,1.092905124E0,-3.415222422E0,2.312808849E0,4.266997841E0
1.589483708E1,1.359883436E0,-1.051687516E0,6.370249093E-2,1.720287069E0
1.590480708E1,6.638189710E-1,4.427915150E-1,4.249680322E-1,9.040562927E-1
1.591477708E1,-1.063541577E0,-3.502207357E-1,8.686372143E-1,1.417147084E0
1.592474608E1,-1.362759828E0,6.342699936E-1,-1.090294635E0,1.856920882E0
1.593471608E1,-8.839407664E-1,-1.417852732E0,-9.604882014E-1,1.927224749E0
1.594468608E1,-4.776112822E-1,-9.738414878E-1,-3.466784924E-1,1.138712324E0
1.595465608E1,-2.547131192E-1,4.863547334E-1,-2.432313073E-1,6.004841119E-1
1.596462508E1,-1.074221735E0,-7.774042779E-1,7.370198983E-1,1.517072206E0
1.597459508E1,-6.547337866E-1,-5.723362854E-1,8.261437440E-1,1.199482655E0
1.598456508E1,5.371552699E-1,1.921582174E-1,-1.301656862E0,1.421186530E0
1.599453408E1,2.976938270E-1,1.510343112E0,-2.891671504E0,3.275900184E0
1.600450408E1,3.701250232E-1,8.071949646E-1,-8.363159112E0,8.410171614E0
1.601447408E1,2.691748367E-1,-2.299040995E0,-3.446176997E0,4.151407049E0
1.602444308E1,1.018332349E-1,-5.709891454E0,1.061850620E1,1.205677836E1
1.603441308E1,1.197586437E0,2.688187230E-1,1.054845188E1,1.061961929E1
1.604438308E1,2.685819107E0,6.390369362E0,1.547149873E0,7.102402240E0
1.605435308E1,1.308155604E0,1.599188338E0,2.415587112E0,3.178637369E0
1.606432208E1,1.770568036E0,-4.327708784E0,2.234239812E0,5.182258391E0
1.607429208E1,3.029323731E0,-3.890738757E0,-3.550031149E0,6.075966713E0
1.608426208E1,1.498726303E0,-6.555266690E-1,-5.531829119E0,5.768624546E0
1.609423108E1,7.888694984E-1,-3.728000513E-1,-3.839623275E0,3.937512140E0
1.610420108E1,1.827654329E-1,-2.130642061E0,-3.591682620E0,4.180098424E0
1.611417108E1,-5.915671930E-1,-3.021618270E0,-2.088642973E0,3.720558854E0
1.612414008E1,7.982934924E-2,-9.649157131E-1,2.990459043E-1,1.013342741E0
1.613411008E1,8.761606805E-2,8.567813998E-1,2.418368633E0,2.567149740E0
1.614408008E1,-2.836504413E-1,3.235568476E-1,3.313834042E0,3.341652685E0
1.615405008E1,9.274942638E-1,2.338959351E-1,-1.569743514E-2,9.566605079E-1
1.616401908E1,4.936334571E-1,-4.232325786E-1,-1.823051913E0,1.935540773E0
1.617398908E1,1.038242209E-1,1.928585092E0,-6.391813624E-1,2.034397390E0
1.618395908E1,3.649183335E-1,7.630124091E0,-7.575231600E-1,7.676314244E0
1.619392808E1,1.308216854E0,8.652912036E0,1.002755384E0,8.808509318E0
1.620389808E1,1.331761837E0,2.164654145E0,2.097909055E0,3.295533274E0
1.621386808E1,1.360173458E0,-2.355868914E0,1.004499609E0,2.899863728E0
1.622383708E1,4.478989482E-1,-4.856679779E-1,-1.490283946E0,1.630163517E0
1.623380708E1,2.353035061E-1,1.897031178E0,8.573567659E-1,2.095031182E0
1.624377708E1,7.865580209E-1,2.336120236E0,4.158751441E0,4.834391878E0
1.625374708E1,9.326927309E-1,-1.050689104E-1,3.433805459E0,3.559771781E0
1.626371608E1,3.581492677E-3,-9.514963531E-1,-8.100539607E-1,1.249618164E0
1.627368608E1,-1.357622756E0,-2.934860793E-1,-1.859161393E0,2.320722886E0
1.628365508E1,-1.181718702E0,-1.019900590E-1,-2.253008205E-1,1.207319975E0
1.629362508E1,-1.881374088E0,-8.362983111E-1,5.068062472E-1,2.120333912E0
1.630359508E1,-2.468423722E0,-2.616201865E0,-7.547761381E-2,3.597683247E0
1.631356508E1,-2.896097846E0,-2.840688461E0,6.202018851E-1,4.103845032E0
1.632353408E1,-3.009236206E0,-8.145963702E-1,8.881470340E-1,3.241585252E0
1.633350408E1,-1.976633417E0,-1.667304307E-2,-1.701235115E0,2.607979788E0
1.634347408E1,-1.583735170E0,-2.498082554E-1,-2.257403557E0,2.768843093E0
1.635344308E1,-1.692841729E0,-7.714105895E-1,-1.069510122E0,2.145842333E0
1.636341308E1,-8.100584923E-1,-1.979154152E0,-1.015947288E0,2.367571500E0
1.637338308E1,-4.044257404E-1,-2.264555286E0,-2.909252912E-1,2.318708336E0
1.638335308E1,-2.982419852E-2,-2.414217110E0,1.421165764E-2,2.414443146E0
