"Time (s)","Linear Acceleration x (m/s^2)","Linear Acceleration y (m/s^2)","Linear Acceleration z (m/s^2)","Absolute acceleration (m/s^2)"
5.458874977E-3,-3.680720658E-1,6.593662432E-1,-1.217810714E0,1.432935387E0
1.542987500E-2,-2.003984792E-1,7.217095488E-1,-7.339419240E-1,1.048663421E0
2.540087496E-2,-1.499997926E-1,2.112499613E-1,-8.022058278E-1,8.430069241E-1
3.537187498E-2,-1.699415754E-1,4.044896212E-1,-9.880472982E-1,1.081077914E0
4.534287495E-2,-4.069150463E-3,-7.714114666E-2,-1.272400904E-1,1.488534685E-1
5.531387497E-2,1.689444789E-1,-6.881570560E-1,7.274257869E-1,1.015505119E0
6.528487499E-2,4.547560877E-1,-3.797787032E-1,1.827204021E0,1.920861654E0
7.525587495E-2,6.180935984E-1,2.618427023E-1,1.741497872E0,1.866391207E0
8.522687497E-2,6.437117120E-1,6.029803732E-1,3.674483871E-1,9.554938073E-1
9.519787499E-2,2.766159119E-1,5.349795941E-1,-1.063222611E-1,6.115749766E-1
1.051688750E-1,1.264770287E-1,-4.495953351E-2,2.150477278E-1,2.535021177E-1
1.151398750E-1,7.403175087E-1,3.264974123E-1,-3.033816147E-1,8.641243996E-1
1.251108750E-1,6.687755826E-1,4.722033021E-1,-1.222179168E-1,8.277523528E-1
1.350818750E-1,6.083051401E-1,7.230041224E-1,-3.550172067E-1,1.009359857E0
1.450528750E-1,4.461104677E-1,3.313219500E-1,-2.392487687E-1,6.050031051E-1
1.550238749E-1,1.723577911E-1,3.480058104E-1,-5.430145454E-1,6.675927267E-1
1.649948750E-1,1.265296537E-1,3.897417739E-1,-3.785961038E-1,5.578919370E-1
1.749658750E-1,6.525996991E-2,1.105942369E-2,-5.905541629E-1,5.942519615E-1
1.849368750E-1,-2.861037502E-1,-2.061380330E-1,-7.416479695E-1,8.212124909E-1
1.949078750E-1,-1.659553823E-1,-2.525503072E-1,-4.392615509E-1,5.331731020E-1
2.048788750E-1,-6.664539456E-2,-2.174442092E-1,-3.144983411E-1,3.881144152E-1
2.148498750E-1,-7.312034536E-1,7.264048630E-1,-5.808881307E-1,1.183111802E0
2.248208750E-1,-1.363768911E0,3.188852146E-1,6.306631386E-2,1.401973888E0
2.347918749E-1,-1.171349688E0,1.135795328E-1,1.246545101E0,1.714303092E0
2.447628750E-1,-6.960503586E-1,8.759722540E-1,1.592869252E-1,1.130126460E0
2.547338750E-1,-1.451775938E-1,1.064981453E0,-4.222397214E-1,1.154793667E0
2.647038750E-1,-2.082295089E-1,5.261491290E-1,-5.753075480E-2,5.687725574E-1
2.746748750E-1,-4.229245766E-1,5.559652510E-1,2.172281545E-1,7.315399025E-1
2.846458750E-1,-5.630878175E-1,1.124229828E0,-3.068443358E-2,1.257736908E0
2.946168749E-1,-5.642623769E-1,1.766103833E0,-9.534651107E-1,2.084852632E0
3.045878750E-1,-6.995981567E-1,1.060042603E0,-2.004648305E0,2.373129311E0
3.145588750E-1,-1.033753156E0,1.018448142E0,-3.076964505E0,3.401998350E0
3.245298750E-1,-1.265216430E0,7.601839355E-1,-1.508237822E0,2.110315985E0
3.345008750E-1,-9.308500540E-1,4.090869945E-1,-6.328236848E-1,1.197622565E0
3.444718750E-1,-1.170432041E0,1.038203837E0,-8.935714960E-3,1.564563267E0
3.544428750E-1,-3.873125482E-1,9.320213243E-1,4.903147602E-1,1.122088821E0
3.644138750E-1,-5.390026977E-1,4.680590880E-1,6.577544582E-1,9.706926111E-1
3.743848749E-1,-9.379325670E-1,8.031530768E-1,7.275099868E-1,1.433193339E0
3.843558750E-1,-1.061396891E0,8.233128145E-1,4.675644135E-1,1.422330423E0
3.943268750E-1,-1.518203378E0,-2.901826948E-2,1.237693001E0,1.958996560E0
4.042978749E-1,-1.376102150E0,4.885836920E-1,1.046105472E0,1.796303930E0
4.142688750E-1,-1.177311436E0,6.973620352E-1,-6.237605006E-1,1.503812883E0
4.242398750E-1,-1.187612768E0,3.274967015E-1,-6.104259253E-1,1.374881081E0
4.342108750E-1,-1.399806178E0,-1.350999177E-3,1.017151229E0,1.730334009E0
4.441818750E-1,-7.641086597E-1,1.416198555E-1,-4.160317326E-1,8.814763921E-1
4.541528750E-1,-5.207188929E-1,-1.417011318E-1,5.730791742E-1,7.871766739E-1
4.641238750E-1,-2.442595401E-1,3.167606288E-1,7.263732880E-1,8.292274552E-1
4.740938750E-1,3.171222060E-1,-1.742531660E-1,3.634746194E-2,3.636644022E-1
4.840648750E-1,6.017784049E-1,-1.384746382E-1,-4.784174305E-1,7.811502492E-1
4.940358750E-1,4.412640761E-1,-4.742413491E-1,-6.723707432E-1,9.336494301E-1
5.040068750E-1,3.255040435E-1,-9.718902719E-1,-1.254189751E0,1.619726987E0
5.139778749E-1,-2.262221955E-2,-1.230704409E0,-4.487387180E-1,1.310157068E0
5.239488750E-1,2.418028325E-2,-4.466802058E-1,2.716680712E-1,5.233654872E-1
5.339198750E-1,-6.033809075E-1,-4.547487786E-1,4.302556694E-1,8.694739284E-1
5.438908749E-1,1.341883367E-1,4.970256096E-1,-1.132574097E0,1.244092059E0
5.538618750E-1,8.935656488E-2,1.591957086E-1,-8.091938353E-1,8.295315138E-1
5.638328750E-1,-1.461993948E-1,1.867542207E-2,1.262213300E0,1.270789301E0
5.738038750E-1,-1.853967165E-1,5.508620936E-1,1.428626812E-1,5.985237959E-1
5.837748750E-1,-2.811181218E-1,1.396788722E-1,7.635645032E-1,8.255715210E-1
5.937458750E-1,-1.886741540E-1,-1.142943549E-1,5.017115682E-1,5.480653553E-1
6.037168750E-1,-8.520993881E-1,6.550735098E-1,3.931960166E-2,1.075518806E0
6.136878750E-1,-6.967038580E-1,1.238711878E0,-1.016025640E0,1.747029332E0
6.236588749E-1,-7.518750420E-1,5.918618926E-1,-1.109398658E0,1.465053569E0
6.336288750E-1,-7.884525919E-1,-2.583399278E-1,-5.936549413E-1,1.020207429E0
6.435998750E-1,-4.778347555E-1,2.441212535E-2,-1.164627948E0,1.259079133E0
6.535708749E-1,-8.685152999E-1,6.108773303E-1,-2.401188344E-1,1.088644567E0
6.635418750E-1,-3.928364128E-2,9.064587593E-1,-3.401874983E-1,9.689882460E-1
6.735128750E-1,-2.056360495E-1,-1.746358663E-2,1.104708606E-1,2.340832603E-1
6.834838749E-1,-6.554577450E-1,-2.900452852E-2,2.036035573E-1,6.869647201E-1
6.934548750E-1,-4.343117367E-1,1.145905164E-1,-5.698953652E-1,7.256296565E-1
7.034258750E-1,-6.690157570E-1,-1.090110155E0,7.576085293E-1,1.486570858E0
7.133968750E-1,-8.081301536E-1,-8.226120257E-1,3.342502356E-1,1.200619886E0
7.233678750E-1,-9.367706522E-1,-3.856598327E-1,3.734780359E-1,1.079703017E0
7.333388750E-1,-1.002046775E0,-3.616944346E-1,6.386627144E-1,1.242099298E0
7.433098750E-1,-9.337955888E-1,2.659348762E-1,-5.217762887E-1,1.102245914E0
7.532808750E-1,-6.861499992E-1,-3.194830924E-2,-5.820406169E-1,9.003298260E-1
7.632518749E-1,-7.593874716E-1,-9.013099936E-1,-1.102313002E0,1.613729528E0
7.732228750E-1,-1.325499177E0,-1.057158756E0,5.016279531E-1,1.768095955E0
7.831928750E-1,-9.870848465E-1,5.797157639E-1,3.147965491E-1,1.187225222E0
7.931638749E-1,-1.155891477E0,1.277525111E0,4.659844959E-1,1.784740056E0
8.031348750E-1,-8.727953155E-1,5.648062411E-1,-6.088237882E-2,1.041385816E0
8.131058750E-1,-4.759942713E-1,-5.297665089E-2,-9.553023058E-1,1.068634440E0
8.230768749E-1,-7.279761560E-1,9.807105044E-1,-1.693815583E-1,1.233058186E0
8.330478750E-1,-8.565805480E-1,5.045886907E-1,-1.401349550E-1,1.003980970E0
8.430188750E-1,-4.903150160E-1,1.085499626E0,-1.655446154E0,2.039416637E0
8.529898750E-1,-5.155064290E-1,1.291206426E0,-1.745052980E0,2.231181484E0
8.629608750E-1,-1.164417449E-1,2.370926079E-1,1.883475870E-1,3.244170128E-1
8.729318750E-1,-5.391535924E-1,1.363822998E0,-9.667564166E-1,1.756507254E0
8.829028750E-1,-8.254710949E-1,1.003743564E0,-4.651898593E-1,1.380327959E0
8.928738750E-1,1.735601613E-1,-1.548801711E-1,-1.208824128E-1,2.621517780E-1
9.028448749E-1,-1.124715951E-1,3.776608416E-1,-3.437987387E-1,5.229485097E-1
9.128148750E-1,-2.953527298E-1,1.629623388E0,-5.010537565E-1,1.730306472E0
9.227858750E-1,-3.742555329E-1,8.008279315E-1,9.934910560E-1,1.329818430E0
9.327568749E-1,-4.297442938E-1,1.160684586E0,8.589711821E-1,1.506552474E0
9.427271666E-1,-2.606362390E-1,1.973321847E0,-8.023069847E-1,2.146072426E0
9.526981667E-1,2.510290079E-1,9.808321264E-1,-1.008124883E0,1.428762752E0
9.626691666E-1,8.973705782E-1,2.881253520E-1,-8.025432122E-1,1.237887628E0
9.726401666E-1,1.776854085E-1,2.008477646E-1,-6.420482522E-1,6.958001776E-1
9.826111667E-1,7.500855017E-1,3.769504049E-1,4.143880802E-1,9.361823266E-1
9.925821666E-1,3.967694328E-1,9.702603605E-1,-8.120613098E-2,1.051392213E0
1.002553167E0,1.962330324E-1,3.347238600E-2,9.863100904E-1,1.006198488E0
1.012524167E0,1.035280156E0,-3.102807444E-1,1.324869724E0,1.709783298E0
1.022495167E0,1.432055107E-1,-2.093101475E-1,2.338290430E0,2.352003548E0
1.032466167E0,1.454815760E-1,-1.786704451E-2,1.761752627E0,1.767839484E0
1.042437167E0,3.763816901E-1,5.759714994E-1,4.424880445E-2,6.894666790E-1
1.052407167E0,4.982435846E-1,3.813922423E-1,-1.009842795E0,1.188902511E0
1.062378167E0,1.145418895E0,-1.666760516E-1,-3.055956044E0,3.267817727E0
1.072349167E0,1.050301434E0,-9.038643497E-1,-2.331208282E0,2.711943200E0
1.082320167E0,8.910104156E-1,-4.353114644E-1,-1.587777497E0,1.872013090E0
1.092291167E0,7.598202386E-1,-1.347238540E0,1.011942530E-1,1.550038308E0
1.102262167E0,1.311618179E-1,-1.248015091E0,2.613296092E0,2.898975949E0
1.112233167E0,-9.040116996E-1,1.643479827E-1,1.332434852E0,1.618527122E0
1.122204167E0,-9.906805918E-1,6.461562136E-1,1.478443919E0,1.893346854E0
1.132175167E0,-6.556306033E-1,2.319713241E-1,8.897930253E-1,1.129333348E0
1.142146167E0,-9.805787958E-1,4.636695832E-2,-2.879718626E-1,1.023040793E0
1.152117167E0,-9.481855866E-1,-3.826903242E-1,-1.371027644E0,1.710328797E0
1.162088167E0,-5.830960393E-2,-1.217392638E0,-7.452697349E-1,1.428590852E0
1.172058167E0,7.089447847E-1,1.184721905E-1,-3.519936115E-1,8.003360983E-1
1.182029167E0,6.861695143E-1,8.826869041E-1,-4.327734804E-1,1.198856813E0
1.192000167E0,1.097033843E0,4.784566069E-1,1.263274570E0,1.740191546E0
1.201971167E0,1.472054228E0,9.496518490E-1,5.567935091E-1,1.838151598E0
1.211942167E0,1.454928026E0,7.830541500E-1,-1.109860588E0,1.990422037E0
1.221913167E0,1.177831034E0,4.350889778E-1,-4.059324217E-1,1.319609600E0
1.231884167E0,8.623169589E-1,9.733760494E-1,-6.875945538E-1,1.470998892E0
1.241855167E0,1.109694819E0,1.257794851E0,-8.179237282E-1,1.866137644E0
1.251826167E0,9.362715192E-1,9.779459408E-1,1.704287946E-2,1.353984151E0
1.261797167E0,2.236103173E-1,2.596269000E-1,6.086571425E-1,6.984777866E-1
1.271768167E0,-2.646261232E-1,1.413274947E-1,8.007527947E-1,8.551055397E-1
1.281739167E0,-1.300575712E-1,2.051250029E-1,-8.618035734E-2,2.577174667E-1
1.291710167E0,-2.071631961E-1,2.408582148E-1,-7.542440414E-2,3.265242873E-1
1.301680167E0,-2.942639782E-1,-1.094442357E0,-1.924581796E-1,1.149537086E0
1.311651167E0,-3.467099943E-1,-1.860282304E0,-6.556447828E-1,2.002680242E0
1.321622167E0,-6.474309066E-1,-1.148298429E0,5.089767337E-2,1.319221981E0
1.331593167E0,-3.356640923E-1,-1.300473678E0,8.877880150E-1,1.609990600E0
1.341564167E0,-9.899833113E-2,-1.327709717E0,-2.278730106E-1,1.350755296E0
1.351535167E0,1.178348440E-1,-8.786026239E-2,9.107564628E-2,1.729139946E-1
1.361506167E0,-2.399652719E-1,3.479075772E-1,4.935517788E-2,4.255102202E-1
1.371477167E0,4.384344622E-2,6.794879740E-1,5.746713710E-1,8.909957010E-1
1.381448167E0,-4.210536137E-1,2.935331494E-1,6.409162313E-1,8.211099018E-1
1.391419167E0,-7.224430089E-1,-1.154052089E0,-2.394469893E-1,1.382423592E0
1.401390167E0,-5.177271650E-1,-1.010996158E0,-1.026070572E0,1.530678107E0
1.411361167E0,-6.766761211E-1,1.395964265E-1,-7.585417449E-1,1.026042550E0
1.421331167E0,-1.003124271E0,4.449272105E-1,6.180261362E-1,1.259434329E0
1.431302167E0,-4.091380115E-1,1.535988708E0,-1.176220053E-1,1.593891514E0
1.441273167E0,-9.193914116E-1,1.519383200E0,-8.930393994E-2,1.778139778E0
1.451244167E0,-9.771456032E-1,1.141863861E0,-4.871660346E-1,1.579872574E0
1.461215167E0,-6.399625504E-1,9.045946670E-1,-1.266165433E0,1.682563069E0
1.471186167E0,-6.905036167E-1,5.266680694E-1,-1.576634458E0,1.799986309E0
1.481157167E0,-7.510949504E-1,1.328133932E0,-2.142066059E0,2.629929726E0
1.491128167E0,-9.790545729E-1,1.876414188E0,-1.862132363E0,2.819045051E0
1.501099167E0,-1.365783861E0,1.384592600E0,-5.358704174E-1,2.017329752E0
1.511070167E0,-1.024735141E0,1.283332273E0,3.926288366E-2,1.642731082E0
1.521041167E0,-1.414019005E0,2.250080796E0,2.422127223E-1,2.668516505E0
1.531012167E0,-1.660027155E0,1.701447954E0,5.085381925E-1,2.430890040E0
1.540982167E0,-1.217958283E0,6.543888009E-1,3.764156771E-1,1.432946560E0
1.550953167E0,-1.066636142E0,4.115168050E-1,3.833434582E-2,1.143909202E0
1.560924167E0,-5.829013270E-1,4.636432707E-2,-1.052650845E-1,5.941416884E-1
1.570895167E0,-1.112246032E0,5.677900752E-1,-1.112260870E0,1.672304114E0
1.580866167E0,-1.461111310E0,1.404618144E-2,-9.155435783E-1,1.724315400E0
1.590837167E0,-1.431707709E0,-6.469488037E-1,-8.951502442E-1,1.808210076E0
1.600808167E0,-1.749105100E0,-4.426850957E-1,-4.106680816E-1,1.850401853E0
1.610779167E0,-1.621930791E0,-1.406644204E-1,6.047207969E-1,1.736701820E0
1.620750167E0,-1.315118907E0,-2.243401229E-1,2.384038460E-1,1.355250023E0
1.630721167E0,-1.216663490E0,-9.319496959E-1,-1.041435885E-1,1.536113984E0
1.640692167E0,-3.904636127E-1,-4.341557622E-1,-2.331717575E-1,6.287464729E-1
1.650663167E0,-2.207591419E-1,-7.359255919E-1,2.278256482E-1,8.013897937E-1
1.660633167E0,-3.141605182E-1,-6.768616971E-1,1.600934901E0,1.766304375E0
1.670604167E0,3.026796564E-1,-3.050135726E-1,1.609933766E0,1.666293787E0
1.680575167E0,4.580571333E-1,5.854086131E-2,1.235896736E0,1.319349883E0
1.690546167E0,4.167604418E-1,3.506370574E-2,4.990271115E-1,6.511119622E-1
1.700517167E0,7.290839841E-1,7.218592376E-2,-3.548569930E-1,8.140624970E-1
1.710488167E0,8.471718664E-1,-3.229069296E-1,-1.478472571E0,1.734315484E0
1.720459167E0,1.017702914E0,-9.459455913E-1,-7.141046602E-1,1.562202851E0
1.730430167E0,5.765676230E-2,4.239228424E-1,-1.688119810E0,1.741488838E0
1.740401167E0,5.536537736E-1,3.380178890E-1,1.960583103E-1,6.776632315E-1
1.750372167E0,3.157937186E-1,5.781112880E-2,9.361222690E-1,9.896427143E-1
1.760343167E0,1.830137569E-1,2.221301678E-1,3.770647180E-1,4.743560353E-1
1.770314167E0,4.736756310E-1,1.398293796E0,1.791914320E-1,1.487179785E0
1.780285167E0,-7.076258721E-1,1.190557134E0,6.880857199E-1,1.546487188E0
1.790255167E0,-4.352920224E-1,1.159125134E0,7.121382415E-2,1.240210317E0
1.800226167E0,1.643220357E-1,1.580733941E0,-8.889586276E-1,1.820980221E0
1.810197167E0,2.882471933E-1,8.617565033E-1,-1.015501145E0,1.362700734E0
1.820168167E0,7.279631460E-1,7.042146796E-1,-1.258803204E0,1.615683806E0
1.830139167E0,7.314259402E-1,6.510623199E-1,-5.086159605E-1,1.103429312E0
1.840110167E0,1.343463577E0,5.592388147E-1,-8.753749609E-1,1.698211930E0
1.850081167E0,9.860267197E-1,-4.402418366E-1,7.620676160E-2,1.082529001E0
1.860052167E0,6.841255470E-1,-1.225050151E-1,-2.125158834E-1,7.267724840E-1
1.870023167E0,6.104603507E-1,6.074561244E-1,-3.034740007E-1,9.131052798E-1
1.879994167E0,-7.665173471E-2,-1.510963209E0,1.035616152E0,1.833408335E0
1.889965167E0,-4.961389524E-1,-1.647448917E0,2.233846879E-1,1.734976228E0
1.899936167E0,-1.347522130E0,-3.561059582E-1,4.909912831E-1,1.477734680E0
1.909906167E0,-1.163199985E0,-1.006039765E-1,1.889944060E0,2.221495873E0
1.919877167E0,-1.016556056E0,4.819418398E-1,5.003023893E-1,1.231241907E0
1.929848167E0,-8.336119540E-2,8.234429151E-2,-6.704300523E-1,6.805924818E-1
1.939818917E0,2.596610331E-1,-3.907013020E-1,-1.962003976E0,2.017307850E0
1.949789917E0,2.674665543E-1,-5.723020792E-1,-1.681590225E0,1.796333407E0
1.959760917E0,4.953287476E-1,-8.916185260E-1,-2.252464414E-1,1.044543021E0
1.969731917E0,4.584584715E-1,8.007840773E-1,-5.014045894E-2,9.240959768E-1
1.979702917E0,3.633745589E-1,1.220035872E0,4.438457680E-1,1.348157136E0
1.989673917E0,4.577191642E-1,1.112405296E0,1.154766619E-1,1.208423450E0
1.999644917E0,2.374299192E-1,1.820838157E0,-2.419338101E-1,1.852122169E0
2.009615917E0,6.633839381E-1,1.853242257E0,-1.183591638E0,2.296840063E0
2.019586917E0,6.148457625E-1,1.763248638E0,1.562253231E-1,1.873896321E0
2.029556917E0,1.680516822E-1,2.787623225E0,-6.550448585E-1,2.868478408E0
2.039527917E0,3.043522525E-1,3.122195057E0,-1.151462942E0,3.341646178E0
2.049498917E0,1.480984973E-1,2.052529984E0,-1.028305378E0,2.300483525E0
2.059469917E0,4.565573224E-1,1.423936760E0,-6.442473900E-1,1.628218408E0
2.069440917E0,-1.020972823E-1,1.798892972E0,-5.720909947E-1,1.890430608E0
2.079411917E0,-3.093397813E-1,1.977644401E0,-8.158561528E-1,2.161571127E0
2.089382917E0,4.204982744E-1,1.124681818E0,-5.299436796E-1,1.312466492E0
2.099353917E0,2.208641725E-1,-3.503306633E-1,-9.832028800E-1,1.066864780E0
2.109324917E0,6.437892607E-1,-7.816356155E-1,-4.869952959E-1,1.123647305E0
2.119295917E0,8.396869187E-1,-1.254502284E0,7.264843851E-1,1.675299873E0
2.129266917E0,6.469296540E-1,-1.100077319E0,8.810578698E-1,1.550790461E0
2.139237917E0,7.654905760E-1,-3.362181160E-1,4.465103441E-1,9.478343373E-1
2.149207917E0,4.927799463E-2,-1.662418374E0,1.033201836E0,1.957950256E0
2.159178917E0,2.702321412E-1,-1.449268360E0,1.170469317E0,1.882392789E0
2.169149917E0,7.821484163E-2,-8.373034474E-1,4.644162726E-1,9.606649254E-1
2.179120917E0,2.735562102E-1,-1.241916153E0,2.535188985E-1,1.296711441E0
2.189091917E0,7.922328899E-1,-1.340873846E0,3.449196500E-1,1.595163059E0
2.199062917E0,2.287430763E-3,-1.692026920E0,5.145070302E-1,1.768524191E0
2.209033917E0,-2.044926265E-1,-1.347996924E0,3.724676371E-1,1.413380728E0
2.219004917E0,-8.031646981E-1,-5.988791361E-1,3.711169302E-2,1.002550263E0
2.228975917E0,1.225194870E-1,-6.067731696E-1,4.964759713E-1,7.935194353E-1
2.238946917E0,5.093513209E-1,-4.317046094E-1,1.108262544E0,1.293852195E0
2.248917917E0,1.979036915E-1,-1.460111144E-1,8.064544147E-1,8.431214857E-1
2.258888917E0,9.832764088E-1,3.351624012E-1,1.035238422E0,1.466589554E0
2.268858917E0,3.389350978E-1,1.201993703E0,-1.100030833E0,1.664251693E0
2.278829917E0,4.031330672E-1,6.756331971E-1,6.517306566E-2,7.894580517E-1
2.288800917E0,1.280135893E0,1.198802293E0,-1.623185896E0,2.389687698E0
2.298771917E0,1.331104025E0,1.014682243E0,-1.681618876E0,2.372606167E0
2.308742917E0,1.680358509E0,-4.956924444E-1,1.663550395E-1,1.759826615E0
2.318713917E0,1.067236286E0,2.393502179E-1,3.540149939E-1,1.149612297E0
2.328684917E0,1.260549036E0,1.260595668E0,9.960930669E-1,2.042127985E0
2.338655917E0,3.737855995E-1,1.111577915E0,5.608725268E-1,1.299961202E0
2.348626917E0,1.807208443E-1,5.444438973E-1,4.216392124E-1,7.119401705E-1
2.358597917E0,2.317752962E-1,6.554015386E-1,-7.025043690E-1,9.883235064E-1
2.368568917E0,-1.627750817E-1,6.636879203E-1,-1.128424328E0,1.319211449E0
2.378539917E0,1.317755563E-1,1.095829609E-1,-2.787478799E-1,3.272210309E-1
2.388509917E0,-1.692484611E-1,3.957629442E-2,-1.074977853E0,1.088939259E0
2.398480917E0,-8.904805116E-2,1.333720654E-2,-1.158540412E0,1.162034132E0
2.408451917E0,-1.590122522E-1,-5.699412659E-1,-3.801637423E-1,7.033081927E-1
2.418422917E0,-8.797494091E-1,-6.224995485E-1,-3.364517123E-1,1.129010392E0
2.428393917E0,-9.259194624E-1,-8.794563174E-1,5.178721029E-1,1.378028222E0
2.438364917E0,-8.939475451E-1,-7.453647521E-1,9.694671857E-1,1.514786272E0
2.448335917E0,-7.615774731E-1,5.463901430E-2,9.683819425E-1,1.233186627E0
2.458306917E0,-6.187483404E-1,5.352260542E-1,2.395703655E-1,8.524731068E-1
2.468277917E0,-8.884426108E-1,3.836904904E-1,-6.456027746E-2,9.699055081E-1
2.478248917E0,-9.754122692E-1,-6.336890727E-2,3.225651598E-1,1.029316762E0
2.488219917E0,-9.714099231E-1,5.512287140E-1,-3.164390320E-1,1.160872084E0
2.498190917E0,-8.284871618E-1,1.245342621E0,-6.777045733E-1,1.642118360E0
2.508161917E0,-1.167089772E0,1.092654863E0,-1.146689276E0,1.967457619E0
2.518131917E0,-7.603983821E-1,8.036337179E-1,-4.951761353E-1,1.212118912E0
2.528102917E0,-4.166657900E-1,1.035935117E0,-5.575004375E-1,1.248029922E0
2.538073917E0,8.130758017E-2,8.802486151E-2,-6.605190217E-1,6.713007351E-1
2.548044917E0,-1.391266027E-1,1.054059147E0,-1.171207820E0,1.581810562E0
2.558015917E0,-7.579277873E-2,6.097485253E-1,-2.546784014E-1,6.651307372E-1
2.567986917E0,-8.605530001E-2,1.507119834E-3,4.895218778E-1,4.970306378E-1
2.577957917E0,2.784358578E-1,1.913513017E-1,-3.498891985E-1,4.863787607E-1
2.587928917E0,-1.269325268E-1,-3.752801478E-2,1.139967316E-1,1.746867857E-1
2.597899917E0,-6.671996849E-1,-7.532979620E-1,-2.866521460E-1,1.046318638E0
2.607870917E0,-1.944987848E-1,-8.650669044E-1,2.586854982E-1,9.236280168E-1
2.617841917E0,-9.605525938E-1,-6.685791162E-1,-4.307000577E-1,1.247061290E0
2.627812917E0,-1.438558307E0,-1.266295826E0,2.957498288E-1,1.939181034E0
2.637782917E0,-7.425799426E-1,-1.174204226E0,4.962052453E-1,1.475262750E0
2.647753917E0,-9.597999110E-1,-1.030633739E0,1.023771447E-1,1.412056250E0
2.657724917E0,-2.475833899E-1,-7.501404655E-1,4.774263275E-1,9.230082075E-1
2.667695917E0,-5.202563050E-1,-1.030791614E0,9.880496371E-1,1.519684197E0
2.677666917E0,-1.672881820E-1,-9.681375289E-1,1.350889249E0,1.670382403E0
2.687637917E0,2.453921458E-1,-5.704207376E-1,7.423765326E-1,9.678429827E-1
2.697608917E0,-9.405253686E-2,-4.200932086E-2,4.252943069E-1,4.375910307E-1
2.707579917E0,6.903847720E-1,4.342095566E-1,9.639930224E-1,1.262715970E0
2.717550917E0,8.113358896E-1,4.295668674E-1,6.873881471E-1,1.146863586E0
2.727521917E0,1.228891480E0,3.413078249E-1,2.120995617E-1,1.292923634E0
2.737492917E0,8.537126349E-1,1.996563944E-1,-7.710430920E-2,8.801323840E-1
2.747463917E0,4.730906171E-1,2.015070382E-1,-5.773640138E-1,7.731552385E-1
2.757434917E0,-2.008657448E-2,4.236755052E-1,-9.494246846E-1,1.039861354E0
2.767404917E0,6.205152228E-1,9.891763955E-2,-5.156296957E-1,8.128332081E-1
2.777375917E0,5.813236021E-2,-7.575243294E-2,-1.016619717E0,1.021094243E0
2.787346917E0,-5.621734592E-1,-2.120536610E-1,-1.806555748E-2,6.011090731E-1
2.797317917E0,-5.042503562E-1,2.703357831E-1,2.241424870E-1,6.144832885E-1
2.807288917E0,-3.116761094E-1,7.173408017E-1,1.746095538E-2,7.823200802E-1
2.817259917E0,-8.988208339E-2,8.046221897E-1,-1.329417104E-1,8.204688632E-1
2.827230917E0,-3.529968475E-1,3.004278937E-1,-9.166954798E-1,1.027226507E0
2.837201917E0,-1.924649039E-1,1.038647348E0,-9.978659427E-1,1.453123358E0
2.847172917E0,-3.740119598E-1,1.415176461E0,-1.050672732E0,1.801810909E0
2.857143917E0,-9.241363540E-1,1.011016331E0,-3.585126722E-1,1.415879005E0
2.867114917E0,-5.640499768E-1,8.833952942E-1,-5.882012433E-1,1.201881993E0
2.877085917E0,-9.994604053E-1,4.367253211E-1,-4.023299521E-1,1.162548708E0
2.887055917E0,-1.103492897E0,9.379012844E-1,-7.972093821E-3,1.448246853E0
2.897026917E0,-1.357136268E0,1.006842588E0,2.339178622E-1,1.705950882E0
2.906997917E0,-7.727143724E-1,2.262670729E-1,3.634518152E-1,8.833920487E-1
2.916968917E0,-2.695494787E-1,1.402820125E-1,1.007879884E0,1.052690755E0
2.926939917E0,-1.645062961E-1,-8.516352654E-2,1.490939419E0,1.502403241E0
2.936910917E0,7.219622947E-2,7.502246654E-1,3.043768108E-1,8.128312168E-1
2.946882500E0,3.049214058E-1,1.034757196E0,-5.477613151E-2,1.080138853E0
2.956853500E0,5.259123898E-1,1.796802592E-1,-1.329273847E0,1.440776803E0
2.966824500E0,4.183910110E-1,-2.076515847E-1,-1.387879320E0,1.464369907E0
2.976795500E0,3.463097524E-1,1.759310246E-2,-1.516373638E0,1.555515661E0
2.986766500E0,1.980362041E-1,4.879866913E-1,-1.140680677E0,1.256384398E0
2.996737500E0,7.012556961E-1,-2.544591308E-2,2.874269021E-1,7.583015692E-1
3.006708500E0,1.203237113E-1,1.060784322E0,-4.370922339E-1,1.153599061E0
3.016678500E0,3.487340080E-1,8.070826980E-1,-2.104126400E-1,9.040306239E-1
3.026649500E0,4.856606689E-1,9.701013163E-1,3.160823518E-1,1.129987125E0
3.036620500E0,4.535458602E-1,9.456356889E-1,-2.784385622E-1,1.085107707E0
3.046591500E0,8.699594159E-1,7.108919075E-1,-6.280336457E-1,1.287098656E0
3.056562500E0,3.312965877E-1,-1.668473750E-2,4.609979904E-1,5.679392191E-1
3.066533500E0,9.355289228E-2,-9.812972724E-2,-6.677286386E-2,1.511297534E-1
3.076504500E0,-1.921924967E-1,3.146679103E-1,-7.576535529E-1,8.426106787E-1
3.086475500E0,2.229375221E-2,-3.287614542E-1,-6.456928217E-1,7.249140123E-1
3.096446500E0,-9.448588863E-2,-1.698526685E0,1.299620862E0,2.140779033E0
3.106417500E0,-9.673925936E-2,-1.271218304E0,1.099581183E0,1.683577512E0
3.116388500E0,2.772311121E-4,-4.798245630E-1,2.909942883E-1,5.611678572E-1
3.126359500E0,3.760915951E-1,-2.856122187E-1,-1.499471676E-1,4.954829770E-1
3.136330500E0,2.111814757E-1,-9.085468000E-1,7.933297545E-1,1.224510924E0
3.146300500E0,2.148575471E-1,-1.848074487E0,1.159375979E0,2.192189713E0
3.156271500E0,6.343922004E-1,-1.052402923E0,7.351715934E-1,1.431950645E0
3.166242500E0,5.581904089E-1,-6.235619876E-1,5.900700134E-1,1.024006204E0
3.176213500E0,3.137378376E-1,-1.246552995E0,7.038036203E-1,1.465491499E0
3.186184500E0,-1.268429913E-1,-1.041484417E0,-5.536026835E-2,1.050639660E0
3.196155500E0,-4.217779376E-1,-1.550199196E-1,6.690050858E-1,8.059129041E-1
3.206126500E0,-1.213641576E0,6.520385125E-1,1.734665401E0,2.215207473E0
3.216097500E0,-1.630089703E0,6.631990930E-1,1.665239071E0,2.422817913E0
3.226068500E0,-1.597194730E0,4.392679828E-1,7.270913261E-1,1.809046479E0
3.236039500E0,-1.432594147E0,5.323758289E-1,-7.811067349E-1,1.716355950E0
3.246010500E0,-3.720069496E-1,7.423253694E-1,-9.321432388E-1,1.248329741E0
3.255981500E0,-3.003919333E-2,1.359785787E0,-9.539206088E-1,1.661289941E0
3.265951500E0,-1.068623976E-1,1.037282901E0,-1.025961229E0,1.462864256E0
3.275922500E0,3.286006558E-1,5.460805330E-1,-1.032126533E0,1.213040610E0
3.285893500E0,1.777353291E-1,1.566996200E0,-1.795448962E0,2.389707914E0
3.295864500E0,4.802557220E-1,1.431100768E0,-4.379231232E-1,1.571773403E0
3.305835500E0,9.299902940E-1,9.633246857E-1,-2.427629453E-1,1.360812347E0
3.315806500E0,1.037539082E0,1.045118462E0,-4.020972329E-1,1.526578570E0
3.325777500E0,1.061790189E0,9.472109288E-1,-2.209779739E-1,1.439943823E0
3.335748500E0,1.153527083E0,1.343803301E0,-3.370949060E-1,1.802793670E0
3.345719500E0,5.361939877E-1,2.249567118E-1,-4.249908364E-1,7.202268570E-1
3.355690500E0,2.917887788E-1,-1.053796607E0,2.906183124E-2,1.093833886E0
3.365661500E0,4.042984173E-2,-2.011471421E-1,-1.320242822E-2,2.055943797E-1
3.375632500E0,-6.758699363E-1,4.514386699E-1,-1.047060907E-1,8.194878943E-1
3.385603500E0,-9.928867462E-1,-4.490860426E-1,1.301362163E-1,1.097468815E0
3.395573500E0,-1.607026823E0,-1.613783865E0,-7.171259165E-2,2.278590852E0
3.405544500E0,-1.603861140E0,-1.556226213E0,-7.434921813E-1,2.355205131E0
3.415515500E0,-1.740918998E0,-4.757116315E-1,-2.359252113E-1,1.820099233E0
3.425486500E0,-1.459506396E0,-5.638414505E-1,-2.848436022E-1,1.590349640E0
3.435457500E0,-2.067171704E0,-5.400380203E-1,2.958182412E-1,2.156930307E0
3.445428500E0,-1.617873700E0,-3.668259510E-1,-9.532715678E-2,1.661675015E0
3.455399500E0,-1.985645438E0,2.189428505E-1,-8.364225644E-1,2.165716160E0
3.465370500E0,-2.033625644E0,9.079117924E-2,5.537517875E-1,2.109624928E0
3.475341500E0,-1.649175307E0,2.161502203E-1,6.230792999E-2,1.664446572E0
3.485312500E0,-1.594798248E0,1.002279129E0,-8.610492826E-2,1.885565953E0
3.495283500E0,-1.329891167E0,8.152576903E-1,1.878043807E-1,1.571154385E0
3.505254500E0,-1.569293863E0,4.273876101E-1,2.359743279E-1,1.643480235E0
3.515225500E0,-1.244443904E0,5.377774867E-1,-1.283592474E-1,1.361734685E0
3.525195500E0,-1.400787779E0,8.672172180E-1,-7.679826593E-1,1.817709952E0
3.535166500E0,-1.140206321E0,1.089949649E0,-7.045169806E-1,1.727543015E0
3.545137500E0,-1.297333431E0,2.775512472E-1,5.848969817E-2,1.327979582E0
3.555108500E0,-1.137618928E-1,-1.864039725E-1,3.097159034E-1,3.789619375E-1
3.565079500E0,-1.996696237E-1,1.977648202E-1,-4.843014836E-1,5.599346478E-1
3.575050500E0,-4.501338637E-1,-4.671784973E-1,-5.391834497E-2,6.509865064E-1
3.585021500E0,-3.068677247E-1,-9.051033747E-1,-1.255145770E-1,9.639158824E-1
3.594992500E0,-1.450975601E-1,-7.979934937E-1,-3.403406954E-1,8.795900789E-1
3.604963500E0,-1.054309992E-1,-8.048844373E-1,9.013956553E-1,1.213041129E0
3.614934500E0,-9.922178248E-1,-5.033429414E-1,1.333986703E0,1.737058102E0
3.624905500E0,-4.152668437E-1,1.990713805E-1,1.259064574E0,1.340641476E0
3.634876500E0,1.212602160E-1,3.232779354E-1,8.101089245E-1,8.806186082E-1
3.644847500E0,7.251249075E-1,-3.393870145E-2,-8.474486589E-2,7.308485884E-1
3.654817500E0,1.050306404E0,-2.737739459E-1,-9.512343979E-1,1.443240311E0
3.664788500E0,1.505286732E0,9.072247446E-2,-3.828651559E-1,1.555861318E0
3.674759500E0,1.763178763E0,1.028027343E0,-9.051706177E-1,2.232705403E0
3.684730500E0,1.825813845E0,1.793121770E-1,-2.410555583E-1,1.850366676E0
3.694701500E0,1.379159952E0,-3.800582001E-1,-6.983914375E-2,1.432272290E0
3.704672500E0,1.442557218E0,1.508178180E-1,-1.021885135E0,1.774250989E0
3.714643500E0,1.977510938E0,1.479798719E-1,6.527527499E-1,2.087710158E0
3.724614500E0,8.381974136E-1,5.656026319E-1,1.271739584E0,1.624746999E0
3.734585500E0,1.081013422E0,1.147565773E-1,1.340867706E0,1.726176496E0
3.744556500E0,7.071208920E-1,3.170164445E-1,1.059901392E-1,7.821465921E-1
3.754527500E0,1.399944172E0,6.552764082E-1,-4.884565151E-1,1.621055404E0
3.764498500E0,6.337691796E-1,5.963876376E-1,-2.456865531E-1,9.042695779E-1
3.774469500E0,3.061192080E-1,5.661797521E-1,-4.934769344E-1,8.110412850E-1
3.784439500E0,1.698239002E-1,7.317372313E-1,-2.951762170E-1,8.070988365E-1
3.794410500E0,2.583030172E-1,4.512153062E-1,-5.951617688E-1,7.902741501E-1
3.804381500E0,4.867620651E-1,5.195666260E-1,-1.004877924E0,1.231530117E0
3.814352500E0,2.905871759E-1,2.946528912E-1,-7.478442639E-1,8.547118088E-1
3.824323500E0,-1.559608828E-1,4.538918692E-1,-7.071388721E-2,4.851206857E-1
3.834294500E0,2.057130866E-1,6.554252198E-1,3.399395764E-2,6.877904346E-1
3.844265500E0,3.862942556E-1,2.966295424E-1,3.317312551E-1,5.892859772E-1
3.854236500E0,5.693458731E-1,-4.735566401E-1,9.656442761E-2,7.468167803E-1
3.864207500E0,1.371017119E-1,-8.850784153E-1,1.397566402E-1,9.064726135E-1
3.874178500E0,2.337202263E-1,-2.655194315E-1,9.327501798E-1,9.975713561E-1
3.884149500E0,-7.268681087E-1,-9.585749924E-2,1.010341562E0,1.248325270E0
3.894120500E0,-3.495490368E-1,-7.016562304E-1,1.421879125E-1,7.966952976E-1
3.904091500E0,-2.105890797E-1,-7.688734826E-1,-2.806470555E-1,8.451490771E-1
3.914061500E0,3.423892674E-1,-3.727912804E-1,-3.314388943E-1,6.050251977E-1
3.924032500E0,-7.519488631E-1,2.608527687E-1,1.020801061E-1,8.024285686E-1
3.934003500E0,-3.432284890E-1,6.760717383E-1,7.490850431E-1,1.065836382E0
3.943974125E0,-6.114958195E-1,2.307083255E-1,2.042071654E0,2.144110564E0
3.953945125E0,-4.084074750E-1,5.601989275E-1,1.172946782E0,1.362506388E0
3.963916125E0,3.071722915E-1,1.082847036E0,-8.612480879E-1,1.417272306E0
3.973887125E0,2.577258971E-1,7.396949995E-1,-1.609392314E0,1.789892441E0
3.983858125E0,6.611663816E-1,5.953716838E-1,-1.339081382E0,1.607714954E0
3.993829125E0,4.240546972E-1,7.941667834E-1,-8.851550138E-1,1.262546104E0
4.003800125E0,1.019965714E0,1.224206690E0,-1.019138698E0,1.891469208E0
4.013771125E0,9.880955377E-1,2.060880393E-2,-2.491226109E0,2.680105416E0
4.023742125E0,1.186975276E0,-6.121385747E-1,-2.536858365E0,2.866927677E0
4.033713125E0,8.595938375E-1,-9.448363745E-1,-3.766358247E0,3.977068240E0
4.043683125E0,1.392694502E0,-1.678965702E0,-3.087228708E0,3.780146148E0
4.053654125E0,2.167901981E-1,-2.514089892E0,2.291279401E0,3.408461129E0
4.063625125E0,-9.227768764E-2,-2.227584803E0,5.884278814E0,6.292486503E0
4.073596125E0,-2.984679070E-1,-2.922146022E-1,4.806363319E0,4.824479332E0
4.083567125E0,-2.389186203E-1,1.440181787E0,3.417188256E0,3.715963033E0
4.093538125E0,-5.675276814E-1,6.512234107E-1,4.637082918E0,4.716854628E0
4.103509125E0,-5.307504492E-1,-6.796683607E-1,5.500199191E0,5.567390435E0
4.113480125E0,-8.166344172E-1,1.927371795E0,2.207121010E0,3.041880498E0
4.123451125E0,-6.121463223E-1,2.711132289E0,5.522712725E-1,2.833719281E0
4.133422125E0,3.548875447E-1,7.752358380E-1,-5.195951019E0,5.265438516E0
4.143393125E0,2.951883499E-1,-7.274500528E-1,-5.754218611E0,5.807525425E0
4.153364125E0,5.131998121E-1,-4.818930155E-1,-3.009574760E0,3.090814644E0
4.163335125E0,6.450330365E-1,2.389178163E-1,4.244669259E-1,8.082830645E-1
4.173305125E0,1.038838845E0,-4.673878276E-1,1.352836372E0,1.768559802E0
4.183276125E0,1.071486992E0,-1.813833193E0,5.110027939E-1,2.167763613E0
4.193247125E0,1.746348576E0,-5.050102749E-1,8.168969572E-2,1.819736776E0
4.203218125E0,1.784559107E0,6.549627051E-1,1.115672720E0,2.204167183E0
4.213189125E0,1.155879198E0,1.515346867E-1,1.822183601E0,2.163185743E0
4.223160125E0,4.350660275E-1,-4.322291046E-1,1.984258479E-1,6.445752588E-1
4.233131125E0,4.392463481E-1,-2.873351008E-1,-1.215013990E0,1.323539879E0
4.243102125E0,5.708148399E-1,-3.249987710E-1,-2.070116070E0,2.171827416E0
4.253073125E0,3.158481708E-1,8.734056187E-1,-3.806828581E0,3.918487117E0
4.263044125E0,3.398694098E-4,2.677888529E0,-2.564972947E0,3.708122612E0
4.273015125E0,-1.338540222E-1,2.839956097E0,-3.698562706E-1,2.867064909E0
4.282986125E0,1.685136853E-1,3.550886304E0,1.094016972E0,3.719417097E0
4.292957125E0,4.327391280E-1,-5.527899206E-2,1.322025638E0,1.392146080E0
4.302927125E0,6.381247705E-1,-1.592227812E0,2.925011158E-2,1.715589752E0
4.312898125E0,1.798983604E-1,9.967213503E-1,-1.358590617E0,1.694575266E0
4.322869125E0,2.718183446E-1,-1.152156714E0,1.858145732E-1,1.198281003E0
4.332840125E0,-1.217339136E-1,-4.227524930E0,2.226285844E0,4.779449219E0
4.342811125E0,-8.612548122E-1,-3.364015431E0,5.253197014E-1,3.512025123E0
4.352782125E0,-1.036945078E0,-1.833037495E0,-8.937358028E-1,2.287803584E0
4.362753125E0,-1.204103378E0,2.771273240E-1,7.040807784E-1,1.422109082E0
4.372724125E0,-7.568247101E-1,1.479983491E0,3.091990680E0,3.510490157E0
4.382695125E0,-4.206728138E-1,1.645760241E0,1.437702275E0,2.225416864E0
4.392666125E0,-3.608547744E-1,1.541818089E0,-9.272725081E-1,1.835007764E0
4.402637125E0,-5.556638271E-1,9.054118153E-1,-2.021184230E0,2.283356857E0
4.412608125E0,-8.841906618E-1,4.965487692E-1,8.838136625E-1,1.345169282E0
4.422579125E0,-2.232509328E-1,9.382249278E-1,8.102469188E-1,1.259605916E0
4.432549125E0,3.431469204E-1,2.233063937E0,-7.889940441E-1,2.393080850E0
4.442520125E0,1.070553558E-1,9.093940616E-1,-1.540503927E0,1.792096749E0
4.452491125E0,7.123852864E-2,-6.320366496E-1,-1.678283039E0,1.794764390E0
4.462462125E0,6.904702145E-1,-5.180747089E-1,-1.367825709E0,1.617435529E0
4.472433125E0,5.345034845E-1,6.580055961E-1,-2.318709859E0,2.468821733E0
4.482404125E0,9.621074416E-2,3.068419969E-1,4.070322829E-1,5.187328770E-1
4.492375125E0,-6.525465625E-1,-2.687009016E-1,2.055081709E0,2.172873218E0
4.502346125E0,-5.782268436E-1,-5.201697662E-1,2.480083070E0,2.599179660E0
4.512317125E0,-1.043318689E0,9.787338531E-1,1.284081302E0,1.922315955E0
4.522288125E0,-1.520259990E-1,1.143841097E0,-6.152516323E-1,1.307676921E0
4.532259125E0,-8.545442551E-1,-2.916064918E-1,-1.145733840E0,1.458761894E0
4.542230125E0,-1.610490567E-1,-7.699964404E-1,-3.174725273E0,3.270735678E0
4.552201125E0,1.011411749E0,-7.581941280E-1,-2.955700854E0,3.214650774E0
4.562172125E0,8.343210751E-1,-6.631037834E-1,-9.366888642E-2,1.069846785E0
4.572142125E0,3.712984132E-1,-4.873709795E-1,1.675235471E0,1.783761998E0
4.582113125E0,-5.950002395E-2,-4.514190817E-1,2.023457043E0,2.074053482E0
4.592084125E0,-8.893666901E-1,4.066153765E-2,2.596204680E0,2.744613855E0
4.602055125E0,-1.092147325E-1,-2.996136689E-1,2.376379192E0,2.397681020E0
4.612026125E0,-1.587102436E-2,4.241979539E-1,5.637926263E-1,7.057321864E-1
4.621997125E0,1.316194356E-1,1.251859635E-1,-7.186409301E-1,7.412421923E-1
4.631968125E0,-1.786026905E-1,7.389477253E-2,9.563004255E-2,2.156489358E-1
4.641939125E0,-2.036505690E0,-5.575343513E-1,7.204290086E-1,2.230967936E0
4.651910125E0,-6.549299607E-1,-1.204244589E0,5.689399302E-2,1.371996796E0
4.661881125E0,-1.175289542E0,3.012900656E-1,-2.189527323E0,2.503220148E0
4.671852125E0,-1.184635951E0,3.202578485E-1,-1.567263710E0,1.990538360E0
4.681823125E0,-8.578691281E-1,-1.184066724E0,-2.887939811E-3,1.462177072E0
4.691793125E0,-1.404477372E0,-7.363047838E-1,-4.067732513E-1,1.637121224E0
4.701764125E0,-8.380183426E-1,7.750943354E-1,-2.148483378E-1,1.161553176E0
4.711735125E0,-1.523232714E0,9.764774126E-1,2.448126867E0,3.044186459E0
4.721706125E0,-6.026112677E-1,-2.859153968E-1,9.930712259E-1,1.196276897E0
4.731677125E0,-6.005784832E-2,-1.654046623E0,-1.480240769E0,2.220493168E0
4.741648125E0,-9.983112082E-2,-2.272367751E0,-1.217086828E0,2.579713510E0
4.751619125E0,-1.760114238E-1,-3.720402056E-1,4.506449103E-2,4.140347138E-1
4.761590125E0,8.630278341E-2,1.317255480E0,2.984284383E-1,1.353391925E0
4.771561125E0,1.949087477E-1,1.617969887E0,-7.590130305E-1,1.797753252E0
4.781532125E0,-2.566870661E-1,4.887246099E-1,-6.555266690E-1,8.570036220E-1
4.791503125E0,1.136442176E-1,1.009910622E-1,2.385663986E-4,1.520337455E-1
4.801474125E0,2.999424286E-1,9.213282287E-1,3.075769919E-1,1.016570102E0
4.811445125E0,-5.216803213E-1,7.724347293E-1,3.431964755E-2,9.327291177E-1
4.821416125E0,-5.275876171E-1,6.149370521E-2,-5.108922815E-1,7.369810668E-1
4.831386125E0,-5.334953514E-1,3.207381973E-1,-6.592332190E-1,9.066855675E-1
4.841357125E0,-1.919001359E-1,5.915233389E-1,1.693821430E-1,6.445276045E-1
4.851328125E0,-1.072627419E0,1.949542390E0,1.015415776E0,2.445877002E0
4.861299125E0,-1.132504661E0,9.355632752E-1,-2.306597936E-1,1.486959781E0
4.871270125E0,-2.191532041E-1,-1.597158185E-1,-1.603201867E0,1.625974629E0
4.881241125E0,-1.853179984E-2,-4.471193317E-1,-5.544201243E-1,7.124891568E-1
4.891212125E0,-5.432988663E-1,3.252233040E-1,1.292717054E0,1.439465609E0
4.901183125E0,-4.602461115E-1,8.765031812E-1,1.016499265E0,1.418927435E0
4.911154125E0,-8.412514143E-1,1.094250861E-1,8.440882641E-1,1.196730040E0
4.921125125E0,-7.408678047E-2,-9.348952308E-1,5.602579844E-1,1.092431670E0
4.931096125E0,-5.109050723E-1,-1.603813778E0,6.292071819E-2,1.684399491E0
4.941067417E0,-9.650500529E-2,-2.771147525E-1,-1.700773770E-1,3.391638487E-1
4.951038417E0,-5.191717196E-1,-1.095075318E0,-1.908706605E-2,1.212061691E0
4.961008417E0,1.187043981E-1,-5.652175927E-1,4.215339625E-1,7.150192604E-1
4.970979417E0,-8.459744297E-2,-2.224146348E-1,-1.382123905E-1,2.751865949E-1
4.980950417E0,-1.346910511E-1,-1.176608893E0,5.823639679E-1,1.319734048E0
4.990921417E0,-3.265112995E-1,-5.013379312E-1,9.032205713E-1,1.083400549E0
5.000892417E0,4.828984442E-1,-4.089337975E-2,2.914176267E-1,5.654974882E-1
5.010863417E0,1.129352427E-1,-3.760970038E-1,-6.139938962E-1,7.288290814E-1
5.020834417E0,2.638541445E-1,-9.055097562E-1,-1.603721684E-1,9.567058903E-1
5.030805417E0,-9.537144944E-2,-1.665208080E-1,5.122160912E-2,1.986165807E-1
5.040776417E0,1.214839451E-2,-6.962148115E-1,4.087741685E-1,8.074397613E-1
5.050747417E0,5.773010100E-1,6.527562582E-1,1.052604067E-1,8.777510707E-1
5.060718417E0,5.355161492E-1,-7.217952105E-1,1.457194553E0,1.712069460E0
5.070689417E0,4.440409919E-1,-1.165964622E0,1.046068634E0,1.628160155E0
5.080660417E0,2.602602265E-1,-8.201845542E-1,5.499306321E-3,8.605046954E-1
5.090630417E0,4.106283937E-1,7.127387506E-1,-6.783916211E-1,1.066221082E0
5.100601417E0,1.436940090E-1,-2.884624439E-1,-1.003703803E-1,3.375392763E-1
5.110572417E0,-1.158665250E-1,5.605608702E-2,-5.503387678E-1,5.651903182E-1
5.120543417E0,2.169871031E-1,5.260494339E-1,4.411344141E-1,7.200076258E-1
5.130514417E0,3.048827411E-1,4.164892772E-1,3.530952269E-1,6.253743224E-1
5.140485417E0,3.544628175E-1,1.063678109E0,-6.555991745E-1,1.298793781E0
5.150456417E0,3.421463887E-1,5.766319424E-2,-7.177357811E-1,7.972037674E-1
5.160427417E0,4.641095862E-1,2.610530359E-1,-3.145848799E-1,6.184739624E-1
5.170398417E0,5.130610138E-2,8.673327005E-1,-7.341734737E-1,1.137501217E0
5.180369417E0,-1.959665090E-2,7.014775980E-1,-9.941167080E-1,1.216849571E0
5.190340417E0,-1.898649395E-1,1.646634400E-2,-7.155454141E-1,7.404897537E-1
5.200311417E0,-5.537361462E-1,-1.238037987E0,-3.689762646E-1,1.405526684E0
5.210282417E0,-1.011240279E0,-8.782254785E-2,-2.467677033E-1,1.044611890E0
5.220252417E0,-1.032297053E0,3.246119776E-1,1.172792416E0,1.595760694E0
5.230223417E0,-1.200486583E0,5.673629361E-1,1.781818517E0,2.222148952E0
5.240194417E0,-8.602974768E-1,4.625030637E-2,1.231400812E0,1.502863533E0
5.250165417E0,-5.428196870E-1,6.705259466E-1,-3.500728011E-3,8.627111410E-1
5.260136417E0,-2.565128191E-1,1.377146755E0,-3.785083956E-1,1.451068785E0
5.270107417E0,-1.321560638E-1,6.644036195E-1,-9.971818185E-1,1.205516061E0
5.280078417E0,1.850328004E-1,4.659938514E-2,-1.579671502E0,1.591153887E0
5.290049417E0,-2.622933765E-1,-9.466934502E-3,-7.160313177E-1,7.626193586E-1
5.300020417E0,-2.537117835E-1,-1.657749957E-1,-7.406130123E-1,8.002241263E-1
5.309991417E0,1.375188377E-1,1.045651728E-1,-4.794874710E-1,5.096602210E-1
5.319962417E0,3.428480545E-1,-3.717346886E-1,-4.438475221E-1,6.728536915E-1
5.329933417E0,-1.085310468E-1,-8.160470644E-1,8.664135182E-1,1.195150277E0
5.339904417E0,5.031646013E-2,-8.878958961E-1,9.275169218E-1,1.284981910E0
5.349874417E0,-2.444146375E-1,-8.977025539E-1,6.357262427E-1,1.126834613E0
5.359845417E0,1.727902658E-1,-7.501963064E-1,2.141560274E-1,7.990705715E-1
5.369816417E0,6.702955663E-2,-6.047450629E-1,4.479832578E-1,7.555782897E-1
5.379787417E0,2.470866689E-1,-1.370707509E0,1.086047802E0,1.766179698E0
5.389758417E0,1.091431041E-1,-1.586512744E0,2.063133910E0,2.604890868E0
5.399729417E0,3.516519879E-1,-7.174855202E-2,5.434606880E-1,6.512729802E-1
5.409700417E0,7.813933946E-1,2.360336772E-1,-7.108500999E-1,1.082402605E0
5.419671417E0,1.562187011E0,-6.246229649E-2,-1.111856827E0,1.918477365E0
5.429642417E0,1.160571735E0,-9.227590424E-1,-1.591785178E0,2.175359983E0
5.439613417E0,1.355089304E0,-1.284563405E0,1.126395929E-1,1.870576874E0
5.449584417E0,1.005967114E0,-8.833350679E-1,4.345060104E-1,1.407496412E0
5.459555417E0,3.469544810E-1,-9.652431571E-1,8.079156339E-1,1.305679683E0
5.469526417E0,-3.034412563E-3,-1.219861332E0,1.015304679E0,1.587108839E0
5.479496417E0,-1.481197666E-1,-7.059746915E-1,1.239529611E0,1.434145525E0
5.489467417E0,-1.409753461E-1,3.666084346E-1,1.101897849E0,1.169809670E0
5.499438417E0,3.702373628E-1,1.601999679E-1,1.464077311E0,1.518638241E0
5.509409417E0,1.105562299E-1,8.143607274E-1,-1.650990576E-1,8.382504238E-1
5.519380417E0,3.784670265E-1,8.753077179E-2,3.294806617E-1,5.093686608E-1
5.529351417E0,6.633587220E-1,5.253618014E-1,1.501506507E-2,8.463304725E-1
5.539322417E0,8.779969986E-1,1.175077800E0,-9.572348106E-1,1.751566455E0
5.549293417E0,1.378103945E0,2.760645926E-1,-5.784919417E-1,1.519879952E0
5.559264417E0,1.294449584E0,1.246781328E-1,-4.449216557E-1,1.374445213E0
5.569235417E0,1.363440882E0,3.592564380E-1,-1.028158028E0,1.745034429E0
5.579206417E0,1.171415981E0,7.325608116E-1,-4.290447110E-1,1.446699730E0
5.589177417E0,1.464120434E0,9.252789000E-1,2.583633167E-1,1.751154274E0
5.599148417E0,1.542728647E0,-1.388760495E-1,7.596427757E-1,1.725211692E0
5.609118417E0,1.093073378E0,-8.606917253E-1,1.403090267E0,1.975920533E0
5.619089417E0,5.254548452E-1,5.099280757E-1,7.725703847E-1,1.064422114E0
5.629060417E0,3.325014795E-1,9.826126036E-1,-3.789451826E-1,1.104393143E0
5.639031417E0,3.365574007E-1,1.043146488E0,-2.632790709E-1,1.127271640E0
5.649002417E0,4.348745312E-1,1.360866353E-1,6.987188816E-2,4.609962157E-1
5.658973417E0,1.123334181E-1,6.714398664E-1,-8.975592971E-1,1.126526956E0
5.668944417E0,-4.485332615E-1,1.316933298E0,-1.121136943E0,1.786741012E0
5.678915417E0,-3.442488281E-1,5.515468025E-1,-9.163534176E-1,1.123572302E0
5.688886417E0,8.068594806E-2,4.099722630E-1,-6.482042009E-1,7.712043598E-1
5.698857417E0,-5.658456568E-1,-1.603312379E-1,8.624233782E-2,5.944116032E-1
5.708828417E0,-3.439564674E-1,-8.639436543E-2,3.288976943E-1,4.836773007E-1
5.718799417E0,-7.943233426E-1,-6.334048980E-1,-4.988025784E-2,1.017172246E0
5.728770417E0,2.505454431E-1,-8.464300740E-1,-4.251095349E-1,9.797627294E-1
5.738741417E0,-5.364873717E-1,-1.493804847E0,-4.836009872E-1,1.659259334E0
5.748711417E0,-6.816160682E-1,-1.650440645E0,3.812179953E-1,1.825892096E0
5.758682417E0,-9.181216887E-1,-1.899197863E0,7.307113373E-1,2.232451347E0
5.768653417E0,-8.559107494E-1,-1.235252081E0,5.287765753E-1,1.593121333E0
5.778624417E0,-1.056544214E0,-5.358417660E-1,-5.047667384E-2,1.185731828E0
5.788595417E0,-8.070957081E-1,-1.667138246E0,1.317925571E0,2.273253445E0
5.798566417E0,-1.329293435E0,-6.516654602E-1,1.547194896E0,2.141378284E0
5.808537417E0,-1.278656255E0,-8.732611924E-2,1.122398188E0,1.703632989E0
5.818508417E0,-1.884423119E0,-4.917531753E-1,8.963044846E-1,2.143882787E0
5.828479417E0,-2.056551114E0,-4.882831451E-1,5.442026997E-1,2.182654231E0
5.838450417E0,-2.053811548E0,-5.300220323E-1,-1.103515774E-1,2.123968620E0
5.848421417E0,-2.141353283E0,1.289425072E-1,-6.628491372E-1,2.245303773E0
5.858392417E0,-2.062821668E0,-1.533929318E-2,-7.861546361E-1,2.207602238E0
5.868362417E0,-1.570090254E0,-1.511505246E-3,-9.369566667E-1,1.828407363E0
5.878333417E0,-1.968056429E0,-2.020712945E-1,-5.278404361E-1,2.047607004E0
5.888304417E0,-1.147602611E0,2.019756925E-1,-4.902481019E-2,1.166271565E0
5.898275417E0,-1.544870774E0,8.562794164E-1,3.489074510E-1,1.800437879E0
5.908246417E0,-1.219109161E0,1.146062746E0,-2.361737180E-1,1.689812117E0
5.918217417E0,-9.422003035E-1,5.492684349E-1,-3.082166773E-1,1.133329054E0
5.928188417E0,-6.098240640E-1,3.453228155E-1,-5.331684190E-1,8.805690200E-1
5.938159417E0,-5.660287843E-1,9.136546353E-1,-8.160017484E-1,1.349448862E0
5.948130250E0,-3.906306238E-1,9.800459683E-1,-7.970479989E-1,1.322258635E0
5.958101250E0,-6.603529608E-1,2.325215471E-1,-9.065757036E-1,1.145430840E0
5.968072250E0,-2.450640805E-1,6.375306934E-2,-5.190631807E-1,5.775356638E-1
5.978043250E0,-6.899370215E-1,2.451562107E-2,3.498827666E-1,7.739716143E-1
5.988014250E0,-6.657761072E-1,3.187650543E-1,5.625202721E-1,9.280614426E-1
5.997985250E0,-2.691546455E-2,-3.845275193E-2,-2.372858584E-2,5.259374629E-2
6.007955250E0,-2.646142825E-1,-5.026795748E-1,-1.692365474E-1,5.927465583E-1
6.017926250E0,-3.573062454E-1,-4.426505971E-1,2.329951715E-1,6.147308794E-1
6.027897250E0,-1.060910183E0,-4.002363566E-1,5.019431180E-1,1.240026795E0
6.037868250E0,-9.421806423E-1,-3.386292154E-1,1.385322332E-2,1.001282188E0
6.047839250E0,-5.551570927E-1,-2.489010599E-1,-8.214227021E-1,1.022196845E0
6.057810250E0,-8.234068816E-1,-3.270175222E-1,7.225866312E-1,1.143271968E0
6.067781250E0,-4.827657124E-1,5.757975447E-1,7.638334751E-2,7.552747589E-1
6.077752250E0,-6.585265830E-1,3.966619536E-1,6.452297223E-1,1.003653008E0
6.087723250E0,-3.337244978E-1,3.328971899E-1,-1.491683185E-2,4.716090450E-1
6.097694250E0,-2.821471587E-2,2.384105703E-1,-8.366085058E-1,8.703731742E-1
6.107665250E0,8.285212219E-3,-2.217910293E-1,-6.815742606E-1,7.168007939E-1
6.117636250E0,7.400201777E-1,2.073001671E-1,-8.230815572E-1,1.126084576E0
6.127607250E0,-3.472412869E-2,8.671566993E-2,-6.113106090E-1,6.184060423E-1
6.137577250E0,3.993461911E-1,-4.854247338E-1,5.118746138E-1,8.106356596E-1
6.147548250E0,5.537768575E-1,-1.177314652E0,1.397928345E0,1.909696901E0
6.157519250E0,9.229860605E-1,3.742188781E-2,1.072640721E0,1.415578250E0
6.167490250E0,6.076874549E-1,3.236018711E-1,7.415842348E-1,1.011903845E0
6.177461250E0,5.502256972E-1,-1.007474380E0,5.980473697E-1,1.294377688E0
6.187432250E0,-2.257702788E-1,-3.322311920E-1,2.186344099E-1,4.573300656E-1
6.197403250E0,-5.120114386E-1,-5.212819067E-1,-6.530521274E-1,9.799834797E-1
6.207374250E0,-6.078768316E-1,-2.083596826E-1,-5.312838614E-1,8.337808711E-1
6.217345250E0,-7.230628869E-1,-6.512424141E-1,-5.917165893E-1,1.138887678E0
6.227316250E0,-6.042128932E-1,-6.816435501E-1,-8.197334415E-1,1.225428115E0
6.237287250E0,-5.274839752E-1,-1.042359161E0,9.419384944E-1,1.500666549E0
6.247258250E0,-6.700224283E-1,5.686417222E-1,6.865104800E-1,1.115159227E0
6.257229250E0,-8.855168103E-1,1.200026992E-1,1.085009921E0,1.405626977E0
6.267200250E0,-4.792073894E-1,-6.083843699E-1,1.212378066E0,1.438621506E0
6.277170250E0,-4.612502977E-1,-1.116728727E0,5.759975195E-1,1.338509630E0
6.287141250E0,-6.064699915E-1,-4.953673393E-2,-3.813969201E-1,7.181388092E-1
6.297112250E0,-3.784639567E-1,6.917522165E-1,-6.694904047E-1,1.034395233E0
6.307083250E0,-7.561677754E-2,-9.600581387E-1,-7.793204105E-1,1.238858276E0
6.317054250E0,-9.051138997E-2,-2.047189722E0,-1.110621310E0,2.330806248E0
6.327025250E0,-6.772199853E-1,-4.826265487E-1,-1.973774421E-1,8.547006193E-1
6.336996250E0,-3.111315143E-1,3.684187326E-1,1.692983524E0,1.760320538E0
6.346967250E0,-1.009866695E0,6.981280205E-1,2.000523094E0,2.347191114E0
6.356938250E0,2.992840321E-1,-5.463939437E-1,1.448334267E0,1.576638647E0
6.366909250E0,9.343567754E-1,-2.306089228E-1,-4.196961826E-1,1.049927590E0
6.376880250E0,1.403616516E0,5.249261838E-1,-1.056573157E0,1.833584920E0
6.386851250E0,9.188990030E-1,6.825282338E-1,-1.899243472E0,2.217508947E0
6.396822250E0,9.417991114E-1,6.373669714E-2,-2.035905765E0,2.244094521E0
6.406792250E0,7.315636421E-1,-3.140597999E-1,-9.758850896E-1,1.259432661E0
6.416763250E0,4.883718766E-2,-2.625084078E-1,1.116038756E0,1.147535725E0
6.426734250E0,2.816232482E-1,8.480544305E-1,2.734959108E-1,9.345094885E-1
6.436705250E0,1.366124608E0,8.537320769E-1,-6.181664693E-1,1.725481002E0
6.446676250E0,1.888515293E0,-3.177242500E-1,1.379510200E-1,1.920018019E0
6.456647250E0,1.882024152E0,-4.265716311E-1,2.337757748E-1,1.943869692E0
6.466618250E0,7.858108930E-1,2.270389053E-1,5.065039462E-1,9.620767493E-1
6.476589250E0,9.295801849E-1,4.404201767E-1,6.202796531E-1,1.201181127E0
6.486560250E0,1.260973252E0,4.127786341E-1,-2.500146621E-1,1.350165573E0
6.496531250E0,1.352925103E0,-3.373171002E-2,-8.138873953E-1,1.579226664E0
6.506502250E0,1.331714767E0,-1.439502633E-1,3.173909587E-1,1.376561993E0
6.516473250E0,8.792817049E-1,9.970028937E-1,1.149775436E0,1.757593423E0
6.526444250E0,1.714500839E-1,1.026888890E0,9.046677572E-1,1.379246053E0
6.536414250E0,8.810432518E-1,4.918391293E-1,-5.110308605E-1,1.131059451E0
6.546385250E0,3.730052155E-1,-6.462006524E-1,6.548641795E-1,9.927513624E-1
6.556356250E0,5.103011280E-1,-4.264456236E-1,6.075485104E-1,9.007653988E-1
6.566327250E0,5.961718022E-1,-2.369277164E-1,8.984638613E-1,1.103989525E0
6.576298250E0,1.019762596E0,-3.318347508E-1,1.117288306E0,1.548664977E0
6.586269250E0,1.567250700E0,-1.792107278E-1,1.622421080E-1,1.585784898E0
6.596240250E0,6.697684398E-1,-4.943607411E-1,2.267269564E-1,8.627788929E-1
6.606211250E0,-3.742407321E-1,-6.766740015E-1,4.831910974E-1,9.118209619E-1
6.616182250E0,-2.269774365E-1,2.716189545E-1,-4.903363949E-1,6.047523405E-1
6.626153250E0,-1.338852463E0,-6.236210445E-1,-4.227648014E-1,1.536280965E0
6.636124250E0,-1.575528311E0,-9.811478761E-1,-7.289624351E-1,1.994072929E0
6.646095250E0,-2.100716596E0,-9.373010677E-1,-4.676199621E-1,2.347384063E0
6.656066250E0,-1.993980791E0,-3.948349911E-1,-4.373717308E-2,2.033166743E0
6.666036250E0,-1.590574220E0,6.531573772E-2,4.442287606E-1,1.652734608E0
6.676007250E0,-1.902736598E0,2.586191323E-1,1.250877303E0,2.291720848E0
6.685978250E0,-1.754691384E0,-2.662091106E-2,1.691733389E0,2.437542284E0
6.695949250E0,-8.856453759E-1,7.237791708E-1,-4.733701140E-1,1.237862385E0
6.705920250E0,-6.786662210E-1,4.914947283E-1,-1.594218789E0,1.801024280E0
6.715891250E0,-1.028400395E0,-6.895440155E-1,-9.433102512E-1,1.556570767E0
6.725862250E0,-1.057191354E0,-7.180679029E-1,-2.153293882E0,2.503986744E0
6.735833250E0,-7.545795254E-1,-5.459542331E-1,-1.339177276E0,1.631211838E0
6.745804250E0,-6.480615288E-1,-3.183177423E-1,-5.675646651E-1,9.183896663E-1
6.755775250E0,-4.863986606E-1,3.850181007E-1,8.833797991E-1,1.079436179E0
6.765746250E0,-7.909320306E-1,-1.325066775E-1,1.429645396E0,1.639212450E0
6.775717250E0,-1.100525581E0,-5.578460079E-1,9.524944729E-1,1.558715639E0
6.785688250E0,-9.103817294E-1,-2.619733876E-1,2.483376807E-1,9.793347500E-1
6.795658250E0,-1.149152415E0,3.095018953E-2,-7.299956381E-1,1.361764598E0
6.805629250E0,-7.886083471E-1,-2.141905260E-1,-6.135483384E-3,8.172015362E-1
6.815600250E0,-1.100130163E0,-4.467699605E-1,-8.591489375E-2,1.190491975E0
6.825571250E0,-1.526681987E0,3.585191041E-1,-8.221945345E-1,1.770677184E0
6.835542250E0,-9.758038133E-1,1.380761504E-2,-7.978262633E-1,1.260519924E0
6.845513250E0,-1.115804867E0,2.322590071E-1,-6.890212744E-1,1.331808944E0
6.855484250E0,-6.829354924E-1,-9.814317584E-2,7.613799834E-1,1.027488418E0
6.865455250E0,-7.142240164E-1,2.413058192E-2,1.951593593E0,2.078320424E0
6.875426250E0,-1.161938083E0,3.422463030E-2,1.783839900E0,2.129167965E0
6.885397250E0,-1.129061382E0,2.222000420E-2,1.359023895E0,1.766980272E0
6.895368250E0,-1.461591805E0,4.748564762E-1,-7.980455339E-2,1.538865831E0
6.905339250E0,-1.352113071E0,1.126579824E0,-1.375271553E0,2.233554052E0
6.915310250E0,-6.696747382E-1,7.264121720E-1,-9.951388013E-1,1.402298161E0
6.925281250E0,-6.965991198E-1,8.421364635E-1,-1.153265639E0,1.588856756E0
6.935251250E0,1.271938243E-1,6.712571409E-1,-1.827539651E0,1.951067809E0
6.945222125E0,1.393185741E-1,5.624606305E-1,-1.271713856E0,1.397507695E0
6.955193125E0,-4.912655175E-1,1.046338776E-1,5.795771849E-1,7.669418298E-1
6.965164125E0,-5.932809388E-1,-1.948207471E-1,7.746139866E-1,9.949694589E-1
6.975135125E0,-4.019489329E-1,-1.209031704E-1,-4.870028973E-1,6.429248348E-1
6.985106125E0,-8.816830833E-1,-6.171157247E-1,6.941171229E-2,1.078431668E0
6.995077125E0,-3.292919429E-1,-7.469987565E-1,2.464192092E-1,8.527383846E-1
7.005048125E0,-1.046028216E0,-6.474344149E-1,3.660006166E-2,1.230725767E0
7.015019125E0,-5.525476997E-1,-7.815636948E-1,-4.807229877E-2,9.583640829E-1
7.024990125E0,-8.654869538E-1,-1.131556974E0,-3.360084933E-1,1.463690732E0
7.034961125E0,-4.022487489E-1,-1.632577109E0,1.205719256E-1,1.685719331E0
7.044932125E0,-5.613856930E-1,-1.190354528E0,1.018373297E0,1.664085927E0
7.054903125E0,-2.992661981E-1,-2.100670695E-2,1.172607059E0,1.210375501E0
7.064874125E0,-1.590790567E-1,-1.882426295E-1,1.285012763E0,1.308433886E0
7.074844125E0,4.356234133E-2,-4.936321780E-1,1.370424212E0,1.457268995E0
7.084815125E0,1.921080776E-2,-1.037170634E0,3.143720412E-1,1.083938079E0
7.094786125E0,4.421983150E-1,-8.854093677E-1,1.862174463E-1,1.007058109E0
7.104757125E0,3.831718424E-1,-4.891385928E-1,1.726390421E-1,6.448887211E-1
7.114728125E0,3.076241351E-1,-3.180531558E-1,2.177070415E-1,4.931397108E-1
7.124699125E0,5.424702428E-1,-8.218673828E-1,5.858839917E-1,1.145862126E0
7.134670125E0,-1.888168991E-1,-4.431514111E-1,1.875295615E-1,5.169161741E-1
7.144641125E0,8.295561790E-2,1.786520264E-1,-1.064415443E-1,2.238927945E-1
7.154612125E0,3.544033952E-2,-1.023882544E-1,-3.727822173E-1,3.882086473E-1
7.164583125E0,2.429721294E-1,-8.714655125E-1,-4.297288352E-1,1.001575992E0
7.174554125E0,2.498353719E-1,-4.135101208E-1,-4.131367761E-1,6.356809961E-1
7.184525125E0,1.820002882E-1,4.578703147E-1,-6.377996653E-1,8.059514521E-1
7.194496125E0,4.187799970E-1,5.457805708E-1,-6.959356070E-1,9.785599043E-1
7.204466125E0,9.613429181E-1,-4.071018648E-1,-1.661778688E-1,1.057131600E0
7.214437125E0,3.763917035E-1,-7.081983876E-1,1.171618295E-1,8.105199350E-1
7.224408125E0,9.355895877E-2,-4.085016882E-1,1.810654646E-1,4.565212049E-1
7.234379125E0,1.450558256E-1,9.206210080E-1,-8.031010365E-1,1.230266438E0
7.244350125E0,2.452568559E-1,2.011331087E-1,-1.175793207E-1,3.382755525E-1
7.254321125E0,1.429059505E-1,-2.368005395E-1,4.920876360E-1,5.644881289E-1
7.264292125E0,4.829770893E-2,3.547915041E-1,-2.448767138E-1,4.337906005E-1
7.274263125E0,7.004498036E-1,4.302451444E-1,3.243590856E-1,8.837135441E-1
7.284234125E0,9.144458366E-1,1.060047865E0,-8.084149861E-1,1.616616050E0
7.294205125E0,8.761369993E-1,7.972836417E-1,-6.049956161E-1,1.330149218E0
7.304176125E0,-3.358398011E-1,3.827601984E-1,1.212936475E0,1.315487983E0
7.314147125E0,-7.165943315E-1,8.865408039E-1,1.004562174E0,1.519410147E0
7.324118125E0,-4.295356578E-1,1.653289701E0,-9.368584335E-2,1.710743918E0
7.334089125E0,-5.209042496E-1,1.383427542E0,-8.298017621E-2,1.480573778E0
7.344059125E0,-1.713695385E-1,5.178282487E-1,3.159542978E-2,5.463624119E-1
7.354030125E0,-9.265168286E-1,-4.341212636E-1,1.157754546E-1,1.029708047E0
7.364001125E0,-1.916582805E-1,5.570844081E-1,-1.163603516E0,1.304242722E0
7.373972125E0,-7.943105518E-1,-4.156437698E-1,5.538734096E-1,1.053785913E0
7.383943125E0,-4.212154354E-1,-1.656381416E0,9.521658593E-1,1.956435959E0
7.393914125E0,5.759719379E-2,-1.320843039E0,-6.019082862E-1,1.452665603E0
7.403885125E0,1.110832103E-2,-1.159105838E0,4.758651209E-1,1.253035256E0
7.413856125E0,-3.689975338E-1,-1.379823318E0,2.019947544E0,2.473915854E0
7.423827125E0,-4.288289487E-1,-1.118483477E0,1.707336100E0,2.085640456E0
7.433798125E0,-4.650617322E-1,-1.127411883E0,5.278322500E-1,1.328889330E0
7.443769125E0,-3.990846743E-1,1.514648125E-1,4.027269781E-1,5.868553362E-1
7.453740125E0,-6.429993749E-1,2.562437010E-1,4.941715837E-2,6.939388201E-1
7.463711125E0,-4.441207333E-1,-1.041531487E0,2.681761140E-1,1.163593354E0
7.473682125E0,-9.097418247E-1,-1.137638370E0,-1.418155618E0,2.032982195E0
7.483652125E0,-5.985856059E-1,-3.098150137E-1,-1.819155328E0,1.940004170E0
7.493623125E0,-1.880716715E-1,-1.135570210E-1,-8.904631162E-1,9.171644956E-1
7.503594125E0,-7.189397959E-1,1.001628041E-2,1.618474209E-1,7.370002331E-1
7.513565125E0,-7.212415523E-1,-1.112451197E0,2.349405402E-1,1.346452412E0
7.523536125E0,-3.081994280E-1,3.287523910E-1,5.798742235E-2,4.543430017E-1
7.533507125E0,-5.809688953E-1,5.799093068E-1,-5.074663979E-1,9.650605195E-1
7.543478125E0,-2.425311763E-1,8.837043196E-2,-1.132827866E0,1.161864742E0
7.553449125E0,-5.120837979E-2,-1.377728846E0,7.321573538E-1,1.561029616E0
7.563420125E0,-6.908399778E-1,-1.258755549E0,8.040675813E-1,1.645676178E0
7.573391125E0,-6.144988764E-1,-2.468843552E-1,4.509109586E-1,8.011750412E-1
7.583362125E0,-8.447965812E-1,1.363292947E-1,1.330200630E-1,8.660030470E-1
7.593333125E0,-1.409625407E0,-6.142140439E-1,1.686629355E-2,1.537721416E0
7.603304125E0,-1.041174076E0,-5.530811119E-1,6.123689550E-1,1.328509658E0
7.613275125E0,-4.926785702E-1,5.680379972E-1,4.146149522E-1,8.586646018E-1
7.623245125E0,-6.950767972E-1,8.170288119E-1,4.469360214E-1,1.162075574E0
7.633216125E0,-8.094853190E-1,-8.160549581E-2,-2.306206173E-1,8.456428369E-1
7.643187125E0,-1.420624897E0,-5.317080769E-1,-6.958256793E-1,1.668850488E0
7.653158125E0,-1.673109131E0,8.794650882E-2,-2.624060816E-1,1.695843655E0
7.663129125E0,-1.540027964E0,2.331574318E-1,9.010173404E-1,1.799411228E0
7.673100125E0,-1.281943121E0,1.405982299E0,-1.083981396E0,2.189789958E0
7.683071125E0,-1.172777505E0,6.998544109E-1,-1.046870288E0,1.720796523E0
7.693042125E0,-1.514530303E0,4.853873116E-1,-3.740393686E-1,1.633801803E0
7.703013125E0,-1.677224986E0,9.523143786E-1,-4.256626815E-1,1.975139247E0
7.712984125E0,-6.592210861E-1,8.788391438E-1,-7.947295779E-1,1.355922484E0
7.722955125E0,-8.997707871E-1,-7.195145041E-2,-6.462816364E-1,1.110155140E0
7.732926125E0,-4.377518729E-1,5.476063639E-2,-6.750312263E-1,8.064072085E-1
7.742897125E0,-1.562394295E-1,7.270533192E-1,-1.195773727E0,1.408152014E0
7.752868125E0,-1.048071013E-1,-7.354592764E-1,-1.993900537E-2,7.431570761E-1
7.762838125E0,-3.778052679E-1,-8.406720284E-1,9.140262258E-1,1.298040917E0
7.772809125E0,-7.983364329E-1,-1.236151090E0,1.542214238E0,2.131627391E0
7.782780125E0,-2.802499565E-1,3.045539814E-1,3.015555292E-1,5.120829063E-1
7.792751125E0,-6.442131838E-1,2.746618456E-1,7.163271868E-1,1.001785603E0
7.802722125E0,-4.223918952E-1,-3.991949674E-1,-1.046476185E-1,5.905274416E-1
7.812693125E0,-2.680911832E-1,-1.408496310E0,1.886878949E-1,1.446145864E0
7.822664125E0,-4.970027324E-1,-1.790704823E0,1.237241596E-1,1.862509906E0
7.832635125E0,-2.018952933E-1,-9.300847265E-1,-2.466998756E-2,9.520650798E-1
7.842606125E0,3.828103383E-1,-3.330065328E-1,2.339225399E-1,5.587099969E-1
7.852577125E0,1.071001600E0,-9.061897874E-1,-2.017564219E-1,1.417367282E0
7.862548125E0,4.814896307E-1,-3.340014365E-1,1.232680768E-1,5.988190401E-1
7.872519125E0,9.662038547E-1,-3.943692604E-1,3.434783113E-1,1.098660254E0
7.882490125E0,2.117788419E-3,-1.914948508E-1,5.093404305E-1,5.441529537E-1
7.892461125E0,5.408390158E-1,-1.093960547E0,6.675982457E-1,1.391022622E0
7.902432125E0,9.679774614E-1,-6.475990140E-1,-3.444705838E-1,1.214506003E0
7.912402125E0,1.049072349E-1,-9.242407268E-1,-3.801216424E-2,9.309518643E-1
7.922373125E0,-1.570108965E-2,-3.883013123E-1,3.468030381E-1,5.208615753E-1
7.932344125E0,-3.659869487E-1,-3.770211563E-1,9.270479751E-1,1.065602809E0
7.942314875E0,-6.700311260E-1,1.758783996E-2,7.519209427E-1,1.007291490E0
7.952285875E0,-6.403293170E-2,1.139003988E0,-4.331465328E-1,1.220264815E0
7.962256875E0,6.423284800E-1,5.721687627E-1,-2.786654341E-1,9.042219824E-1
7.972227875E0,3.141083318E-1,-1.580449766E-1,4.244493842E-2,3.541805070E-1
7.982198875E0,6.331713018E-1,-6.994322419E-1,-1.139766757E0,1.479587652E0
7.992169875E0,-4.876592472E-2,-5.283438814E-1,7.303581655E-2,5.355927584E-1
8.002140875E0,-1.010264379E-1,-6.858667016E-2,1.239457106E0,1.245457502E0
8.012111875E0,-3.317688234E-2,5.206661949E-1,1.128694469E0,1.243440870E0
8.022082875E0,2.377804597E-1,1.124720702E0,-4.612435734E-1,1.238661309E0
8.032053875E0,1.154126349E0,1.362793010E-1,8.668964982E-2,1.165373233E0
8.042024875E0,8.897790650E-1,-2.024563336E-1,3.905390418E-1,9.925805230E-1
8.051994875E0,3.398990113E-1,-2.710210767E-1,-5.383472979E-2,4.380433084E-1
8.061965875E0,5.797910468E-1,1.119911367E-1,-6.129022211E-1,8.510868377E-1
8.071936875E0,2.906030365E-1,4.115524730E-1,1.007895672E0,1.126800447E0
8.081907875E0,5.889661322E-1,8.014956835E-1,3.418586326E-1,1.051733693E0
8.091878875E0,7.605884166E-1,1.186491565E0,-1.621902432E0,2.148679704E0
8.101849875E0,5.626841404E-1,6.643661973E-1,-1.262717915E-1,8.797388540E-1
8.111820875E0,-3.997571041E-1,5.191827562E-1,1.048005817E0,1.235990562E0
8.121791875E0,-1.013245509E0,1.713485616E0,-1.025089994E0,2.239086625E0
8.131762875E0,-8.509599119E-1,2.240726421E0,-1.061794136E0,2.621525215E0
8.141733875E0,-1.825287303E-1,4.675614899E-1,-5.638990456E-1,7.549255711E-1
8.151704875E0,-2.605806539E-1,-1.165446851E0,-3.042335540E-1,1.232366299E0
8.161675875E0,-3.598980238E-1,-7.564531195E-1,-5.797929472E-1,1.018777587E0
8.171646875E0,-1.814429755E-1,-5.465059179E-1,-6.151376116E-1,8.426058111E-1
8.181617875E0,-2.269897887E-1,-4.579936910E-1,6.120304012E-1,7.974106829E-1
8.191588875E0,-1.310518903E-1,-9.888036355E-1,-5.600463152E-2,9.990213943E-1
8.201558875E0,-4.194878756E-1,-2.117166860E0,4.389399540E-1,2.202506271E0
8.211529875E0,-1.570328236E-1,-2.198149335E0,1.452571160E0,2.639409552E0
8.221500875E0,-2.161563599E-1,-9.758964917E-1,5.531144410E-1,1.142380462E0
8.231471875E0,6.138918623E-3,-9.809505326E-1,4.616400146E-1,1.084164718E0
8.241442875E0,4.388338271E-1,-1.079895069E0,1.834981402E0,2.173914726E0
8.251413875E0,-6.075989427E-1,-1.299219451E0,1.645796494E0,2.183069801E0
8.261384875E0,-6.879818588E-1,-9.262811127E-1,1.160232596E0,1.636293194E0
8.271355875E0,-3.670947768E-1,3.512805435E-1,1.383462918E-1,5.265893009E-1
8.281326875E0,-7.882065703E-1,8.241650462E-4,3.435046238E-1,8.598056195E-1
8.291297875E0,-1.098623628E0,-5.207857704E-1,6.792476535E-2,1.217705001E0
8.301268875E0,-5.137006992E-1,-7.311943173E-4,-6.001435965E-1,7.899754930E-1
8.311239875E0,2.713796572E-1,7.137631828E-1,-1.664883560E-1,7.815517719E-1
8.321210875E0,3.167604826E-1,3.754935712E-2,3.682640737E-1,4.872017914E-1
8.331181875E0,1.507149801E-1,-4.724433303E-1,8.165519714E-2,5.025786275E-1
8.341152875E0,-4.036843865E-1,-5.656105256E-1,-2.503017604E-1,7.385982141E-1
8.351123875E0,1.374877013E-1,9.408251846E-1,-5.623746765E-1,1.104681028E0
8.361094875E0,4.212589241E-1,8.967181751E-1,-4.656617296E-1,1.094716134E0
8.371064875E0,7.529899599E-1,-3.953457454E-1,-4.373793322E-1,9.563434625E-1
8.381035875E0,3.388593033E-1,-8.198307976E-1,-1.032152846E0,1.360987752E0
8.391006875E0,4.099068473E-1,3.074483532E-1,-5.556433618E-2,5.153983981E-1
8.400977875E0,3.891814645E-1,6.124057925E-1,3.320902741E-1,7.979893590E-1
8.410948875E0,-2.457419555E-1,2.443168429E-1,5.610730863E-1,6.594564705E-1
8.420919875E0,1.636999650E-1,-2.323575327E-1,-4.006020999E-1,4.911921660E-1
8.430890875E0,-3.047005273E-1,8.144703627E-2,-1.391286492E0,1.426588285E0
8.440861875E0,-1.031715693E0,2.745717984E-1,4.007921344E-1,1.140377692E0
8.450832875E0,-1.314919225E0,-4.120781377E-1,7.121499360E-1,1.551121688E0
8.460803875E0,-1.406243816E0,1.542407781E-1,-9.885057199E-1,1.725820224E0
8.470774875E0,-1.210432697E0,8.795864180E-1,-5.717050785E-1,1.601769733E0
8.480745875E0,-1.165603703E0,1.010899386E0,-5.538699013E-1,1.639305166E0
8.490716875E0,-9.367136418E-1,-2.547047138E-3,-3.743872780E-1,1.008763980E0
8.500687875E0,-1.347905415E0,-4.951954311E-1,-1.300186872E-1,1.441864203E0
8.510658875E0,-1.237540681E0,-1.736330688E-2,4.128426611E-2,1.238350844E0
8.520629875E0,-3.216930476E-1,1.846995091E-1,-3.544523656E-2,3.726347949E-1
8.530599875E0,3.822563146E-1,-1.589393082E-1,3.530455256E-1,5.440797155E-1
8.540570875E0,-3.501087615E-1,-5.651114658E-1,9.533838344E-1,1.162268407E0
8.550541875E0,-5.951115558E-1,-1.696620492E0,7.626254404E-1,1.953017261E0
8.560512875E0,-2.643871913E-1,-4.963941103E-1,1.916477555E-1,5.941687991E-1
8.570483875E0,-1.904386244E-1,-1.319634712E-1,8.022871041E-1,8.350723471E-1
8.580454875E0,6.311342049E-1,-1.526105744E0,1.183239051E0,2.031596362E0
8.590425875E0,-7.547452209E-1,-1.027556934E0,-6.810836792E-2,1.276774198E0
8.600396875E0,-7.421310226E-1,-9.630510360E-1,1.020952504E0,1.587630237E0
8.610367875E0,-5.230643573E-1,2.365491092E-1,1.640145745E0,1.737708223E0
8.620338875E0,-6.793931761E-1,-1.018529418E-1,1.189906631E0,1.373982132E0
8.630309875E0,-7.658734225E-2,3.346864378E-1,-5.182205969E-1,6.216375308E-1
8.640280875E0,7.495782557E-1,1.674399903E-1,-8.776173681E-1,1.166240094E0
8.650251875E0,4.750271418E-1,1.584244609E-1,-6.853176481E-1,8.487693291E-1
8.660222875E0,3.022803647E-1,-5.584655204E-1,-8.844691354E-1,1.088826344E0
8.670193875E0,-1.165415861E-1,-5.468009099E-1,-6.016422379E-1,8.213078344E-1
8.680164875E0,-4.869033484E-1,-4.015426245E-1,3.845520777E-1,7.390477998E-1
8.690134875E0,-2.933413607E-1,1.263066701E0,2.859405398E-1,1.327836073E0
8.700105875E0,9.700121462E-2,7.092704746E-1,1.743511069E-1,7.367985819E-1
8.710076875E0,5.113945574E-2,-4.888123181E-1,-4.340943664E-1,6.557367195E-1
8.720047875E0,-3.135994048E-1,-9.175190601E-1,-8.149936885E-1,1.266649330E0
8.730018875E0,-2.078720979E-1,-2.008389938E-1,-2.618476725E-1,3.900145049E-1
8.739989875E0,-2.409192451E-1,-5.557184985E-1,-4.739910883E-1,7.691116200E-1
8.749960875E0,-4.356723107E-1,-1.027083018E0,-7.349564159E-1,1.335990576E0
8.759931875E0,-1.704423894E-1,-1.555429530E0,-5.000310785E-1,1.642693736E0
8.769902875E0,-8.544243872E-5,-7.305131167E-1,-2.073854195E0,2.198754339E0
8.779873875E0,-4.132563516E-1,-1.045830653E0,9.319777626E-1,1.460522207E0
8.789844875E0,1.363704445E-1,-1.527616079E0,4.325620451E0,4.589466208E0
8.799815875E0,-4.672430360E-1,3.775754723E-1,3.375538539E0,3.428576924E0
8.809786875E0,-6.724006370E-1,1.942330727E0,6.339317322E-2,2.056402189E0
8.819757875E0,8.886485059E-1,5.423427004E-1,-9.986711043E-1,1.442628069E0
8.829728875E0,6.880240318E-1,-1.882632117E0,-4.920063597E-1,2.063916426E0
8.839699875E0,3.097449933E-1,-1.878356633E-1,-1.518408469E0,1.561021613E0
8.849670875E0,1.878067195E-1,1.532273971E0,-8.039465439E-1,1.740535818E0
8.859640875E0,1.445858556E-1,1.741661595E0,-3.771459943E-1,1.787884023E0
8.869611875E0,9.348950116E-1,5.037996089E-1,-9.147454333E-1,1.401642585E0
8.879582875E0,3.309719941E-1,-1.018559239E0,-6.123408884E-1,1.233680164E0
8.889553875E0,-1.832912073E-2,8.608004835E-1,1.521878207E-1,8.743423596E-1
8.899524875E0,-3.491825625E-1,1.924073381E0,5.030289459E-1,2.019164420E0
8.909495875E0,4.444804832E-2,1.154407893E0,3.915529490E-2,1.155926619E0
8.919466875E0,-3.459129457E-1,-4.855334920E-1,5.185369313E-2,5.984039968E-1
8.929437875E0,-5.305442617E-1,-8.345239735E-1,3.375480652E-1,1.044914433E0
8.939408875E0,-4.661877597E-1,7.506898114E-1,1.689588046E-1,8.996739954E-1
8.949380000E0,-6.327353919E-1,-2.398425534E-1,5.615490496E-2,6.789932989E-1
8.959351000E0,-1.011412626E-1,-5.370901465E-2,-6.433118355E-1,6.534250768E-1
8.969322000E0,-7.617905311E-1,-1.301335850E-1,-6.824209374E-1,1.030998496E0
8.979293000E0,-2.243184152E-1,-3.838720465E-1,6.297246605E-1,7.708629239E-1
8.989264000E0,-4.389015086E-2,-7.103416845E-1,9.856171954E-1,1.215710866E0
8.999235000E0,4.181718135E-1,-2.124098442E0,4.425932944E-1,2.209649447E0
9.009206000E0,7.420531084E-1,-2.382053331E0,-3.088335586E-1,2.514000607E0
9.019177000E0,4.731480660E-1,-6.512020683E-1,3.492629617E-1,8.774496239E-1
9.029147000E0,4.231107373E-1,4.930313766E-1,1.330490652E0,1.480644458E0
9.039118000E0,-1.282241768E-1,-6.523022220E-1,9.089344704E-1,1.126100129E0
9.049089000E0,4.378365844E-1,-1.737156607E0,2.590129423E-1,1.810110952E0
9.059060000E0,2.016263214E-1,-9.205330074E-2,1.121039879E-1,2.483833484E-1
9.069031000E0,2.289536492E-1,3.956103319E-1,2.706500709E-1,5.312050160E-1
9.079002000E0,1.810070655E-1,-2.826766241E-1,9.194951266E-1,9.788467293E-1
9.088973000E0,5.374719697E-1,-1.038910765E0,-2.548362762E-1,1.197143778E0
9.098944000E0,7.075795329E-1,-9.428682017E-1,-6.694477201E-2,1.180741650E0
9.108915000E0,4.973916453E-1,2.140221262E-1,-4.004535806E-1,6.734738225E-1
9.118886000E0,5.438911892E-1,-4.011903298E-1,7.937601095E-1,1.042509673E0
9.128857000E0,1.129335324E0,-6.890575272E-1,3.257495534E-1,1.362465164E0
9.138828000E0,3.528055704E-1,-2.947291973E-1,-1.930136651E-1,4.985893553E-1
9.148799000E0,8.581942333E-1,3.205399767E-1,7.643246412E-2,9.192851246E-1
9.158770000E0,5.809759851E-1,-2.659489095E-1,-4.148944491E-1,7.618394330E-1
9.168741000E0,5.689215115E-1,-7.980782783E-1,-5.372041672E-1,1.117671214E0
9.178712000E0,5.189545687E-1,-4.202809042E-1,-8.114713258E-1,1.050921308E0
9.188683000E0,1.767683458E-1,-2.031767106E-1,2.870865941E-1,3.936324889E-1
9.198653000E0,4.719122569E-1,6.547770560E-2,9.054033369E-1,1.023104936E0
9.208624000E0,2.101483458E-1,6.120862421E-1,-3.150906640E-1,7.197874837E-1
9.218595000E0,7.907201421E-1,7.204073739E-1,-2.825240117E-1,1.106365647E0
9.228566000E0,5.449909043E-1,3.885214600E-1,-8.526000559E-2,6.747097741E-1
9.238537000E0,-6.430548504E-2,5.309900388E-1,-7.112851328E-1,8.899506485E-1
9.248508000E0,4.699980247E-1,-1.846153092E-1,-3.445635545E-1,6.113141572E-1
9.258479000E0,1.733953795E-1,-1.177336872E-2,-4.226367474E-3,1.738460009E-1
9.268450000E0,2.341676845E-1,6.688717693E-1,8.600418073E-1,1.114403813E0
9.278421000E0,5.689934322E-1,1.430740872E0,1.478601210E0,2.134721178E0
9.288392000E0,2.062004520E-1,9.150494885E-1,1.684554178E0,1.928096723E0
9.298363000E0,6.384235632E-1,1.218914376E0,2.361690402E-3,1.375987819E0
9.308334000E0,1.185284699E0,3.747381109E-1,6.370658398E-2,1.244743749E0
9.318305000E0,1.061862695E0,4.894645751E-2,3.768828696E-1,1.127824825E0
9.328276000E0,1.018468461E0,2.624221614E-1,-3.697171068E-1,1.114824711E0
9.338247000E0,1.056117659E0,-7.841396856E-1,1.781722623E-1,1.327405331E0
9.348218000E0,5.412726599E-1,-9.591187835E-1,6.062305480E-1,1.257139774E0
9.358189000E0,4.746008067E-1,-1.074490196E-1,-1.463599008E-1,5.081460795E-1
9.368159000E0,3.084520277E-1,-3.515910307E-1,2.091040331E-1,5.123313409E-1
9.378130000E0,-2.034108916E-1,-1.460603772E0,1.326846083E0,1.983748950E0
9.388101000E0,-1.940285955E-1,-9.808388507E-1,5.829194534E-1,1.157362102E0
9.398072000E0,3.065566528E-1,-7.616586033E-1,-1.324452817E-1,8.316505047E-1
9.408043000E0,-2.109938532E-2,-3.861024669E-1,-4.301960278E-1,5.784366182E-1
9.418014000E0,1.873238857E-1,-1.779968166E0,5.276907474E-1,1.865967426E0
9.427985000E0,-3.972402433E-1,-1.523673594E0,7.425841087E-1,1.740922799E0
9.437956000E0,-1.393404646E-1,-9.601478934E-2,7.190098894E-1,7.386540637E-1
9.447927000E0,-6.928339514E-1,-1.931218386E-1,1.382296983E0,1.558223308E0
9.457898000E0,-4.919233292E-1,2.125480431E-1,8.351730144E-1,9.923100304E-1
9.467869000E0,-9.740019938E-1,-2.157043701E-1,8.255777335E-1,1.294908048E0
9.477840000E0,-9.829059877E-1,3.949101278E-1,2.000145364E-1,1.077990726E0
9.487811000E0,-5.702536534E-1,1.837999150E-1,-4.150178254E-1,7.288425299E-1
9.497782000E0,-9.949632387E-1,-4.707169399E-1,-1.005790089E0,1.491019781E0
9.507753000E0,-4.679436786E-1,-1.205187452E0,-8.498758382E-1,1.547170650E0
9.517724000E0,-8.854000121E-1,-9.423287961E-1,-6.563569736E-1,1.450076280E0
9.527695000E0,-3.692648247E-1,-6.302602655E-1,-3.702860409E-1,8.189604783E-1
9.537666000E0,-4.647356768E-1,-3.989476302E-1,-3.518673116E-1,7.063632677E-1
9.547637000E0,-1.901633667E-1,-6.385562950E-1,-3.336503112E-1,7.451434615E-1
9.557607000E0,-4.732674222E-1,-5.444012126E-1,-4.028953779E-1,8.262441641E-1
9.567578000E0,-5.774909715E-1,-2.201865533E-1,2.012716877E-1,6.499909481E-1
9.577549000E0,-6.372221066E-1,-6.171382365E-1,9.891149998E-2,8.925777842E-1
9.587520000E0,-3.399132639E-1,-1.433961226E0,3.826891547E-1,1.522575717E0
9.597491000E0,-4.142448235E-1,-4.298010483E-1,-4.776415050E-2,5.988398191E-1
9.607462000E0,-1.081099011E-1,9.967143336E-1,1.482649237E-1,1.013464208E0
9.617433000E0,6.357268274E-2,1.178630276E0,2.803248739E-1,1.213174698E0
9.627404000E0,2.740687917E-1,1.041972952E0,1.043277758E-1,1.082453519E0
9.637375000E0,2.288312231E-1,3.943256986E-1,-9.375197536E-1,1.042496894E0
9.647346000E0,6.477076992E-1,1.377717736E0,-9.230975962E-1,1.780376532E0
9.657317000E0,4.932218497E-1,1.475983703E0,5.614087164E-2,1.557224288E0
9.667288000E0,-3.959542944E-1,1.030632862E0,2.646759707E-1,1.135357771E0
9.677259000E0,-8.218898946E-1,1.759833571E-1,-2.895342386E-1,8.889899978E-1
9.687230000E0,-8.247415817E-1,1.277921260E0,1.527017909E-1,1.528593883E0
9.697201000E0,-4.431148660E-1,1.709042610E0,2.498754984E-1,1.783147552E0
9.707172000E0,-2.106026014E-1,1.535543150E-1,-5.018647653E-1,5.655091741E-1
9.717143000E0,1.566615254E-1,-7.559090361E-1,-2.487212580E-1,8.110509038E-1
9.727114000E0,-2.813970340E-1,-1.000641031E0,1.101200277E-1,1.045271823E0
9.737084000E0,-1.507867547E-1,-7.949774998E-1,9.991347885E-1,1.285688997E0
9.747055000E0,-2.062134621E-1,-6.552085805E-1,9.235542637E-1,1.150988599E0
9.757026000E0,-2.783746082E-1,-1.661007148E0,8.990368885E-1,1.909110918E0
9.766997000E0,-2.354690554E-1,-1.009830223E0,1.759351176E-1,1.051739474E0
9.776968000E0,1.098481321E-1,-6.796932113E-1,1.549161315E-1,7.057255001E-1
9.786939000E0,2.075841956E-2,-1.113529131E0,-2.214679706E-1,1.135528995E0
9.796910000E0,1.440099780E-1,-1.161118742E0,5.758963627E-1,1.304067570E0
9.806881000E0,-2.657242303E-1,-9.152120411E-1,7.695812881E-1,1.224939919E0
9.816852000E0,-8.370004155E-2,-2.586179629E-1,2.339529455E-1,3.586403887E-1
9.826823000E0,6.004980840E-1,1.068175203E-1,-4.099249005E-1,7.348784631E-1
9.836794000E0,6.861958268E-1,-6.264911503E-1,-3.472719848E-2,9.298181824E-1
9.846765000E0,8.127807366E-1,-9.709146640E-1,5.176732975E-1,1.367944975E0
9.856736000E0,3.222182006E-1,-7.657370362E-1,8.771291256E-1,1.208111452E0
9.866707000E0,2.919041151E-1,-6.514266014E-1,5.306517189E0,5.354315018E0
9.876678000E0,1.374303985E-1,-3.453160912E-2,7.014256747E0,7.015687939E0
9.886649000E0,8.795294076E-2,2.479542203E0,2.812161650E0,3.750215781E0
9.896620000E0,1.064683757E0,2.539986333E0,-9.912773001E-1,2.927065554E0
9.906591000E0,1.287088963E0,8.322692871E-1,-3.981456261E0,4.266293957E0
9.916562000E0,1.890393272E0,-6.799537048E-1,-6.905549406E0,7.191838177E0
9.926532000E0,2.332872984E0,-1.060624693E0,-8.118095872E0,8.512972553E0
9.936503000E0,1.292530528E0,-4.775283614E-1,-5.472854102E0,5.643651347E0
9.946474417E0,3.332357436E-2,-1.358710777E0,4.614277607E-1,1.435312166E0
9.956445417E0,-1.242626882E0,-2.029999200E0,4.699817110E0,5.268140012E0
9.966416417E0,-1.497871147E0,-1.095901822E0,4.322705029E0,4.704295648E0
9.976387417E0,-1.050888494E0,1.174764389E0,1.005963167E0,1.869866276E0
9.986358417E0,-3.028278834E-1,1.728748603E0,-1.013416613E0,2.026644935E0
9.996329417E0,1.510943183E-1,4.992291328E-1,-7.831175923E-1,9.409210294E-1
1.000630042E1,-1.028659719E-1,-1.100940076E-1,3.154046595E-1,3.495457022E-1
1.001627142E1,-7.623999571E-1,9.691990909E-1,9.236086428E-1,1.540666576E0
1.002624242E1,-1.328908688E0,2.574516773E0,6.837868470E-1,2.976860656E0
1.003621342E1,-1.480488691E0,2.195836761E0,1.745679216E0,3.171898764E0
1.004618442E1,-1.897763980E0,2.801948903E0,2.169663162E0,4.019933335E0
1.005615542E1,-1.898685793E0,2.317047788E0,2.287746513E0,3.769284057E0
1.006612642E1,-1.673022592E0,-2.690172359E-1,7.257055360E-1,1.843372830E0
1.007609742E1,-1.367631289E0,-3.264869166E0,-8.218612432E-1,3.633901748E0
1.008606842E1,-1.271879040E0,-4.291819451E0,-1.361194382E0,4.678700743E0
1.009603942E1,-6.737385531E-1,-1.819129016E0,-7.156442320E-1,2.067680024E0
1.010601042E1,-4.514283641E-1,-5.485077122E-1,6.658686393E-1,9.736679738E-1
1.011598142E1,-3.762185528E-1,-3.120723313E-1,8.664392459E-1,9.948097840E-1
1.012595142E1,-4.313140154E-1,-1.025147297E0,8.999303430E-1,1.430675848E0
1.013592242E1,-8.295144445E-1,6.411150366E-2,7.065453798E-1,1.091517692E0
1.014589342E1,-2.089229156E-1,9.633691245E-1,2.350656706E-1,1.013402548E0
1.015586442E1,-3.634306191E-1,7.967047673E-1,-1.733067357E0,1.941737048E0
1.016583542E1,2.804418913E-1,-1.183063342E0,-3.773269072E0,3.964321633E0
1.017580642E1,6.223872820E-1,-2.310981301E0,-5.547133037E0,6.041414191E0
1.018577742E1,8.246842059E-1,-1.944976007E0,-5.819616795E0,6.191201446E0
1.019574842E1,8.587909417E-1,-1.225360931E0,-4.473243350E0,4.716877926E0
1.020571942E1,1.057483203E0,-6.245434427E-1,-4.141743645E0,4.319996025E0
1.021569042E1,2.325266634E-1,-7.613466543E-1,-2.518864728E0,2.641665553E0
1.022566142E1,-9.171413299E-1,-1.506082538E0,2.061158136E0,2.712527547E0
1.023563242E1,-2.809937077E0,-2.518631132E0,4.755003131E0,6.070362751E0
1.024560342E1,-3.572595846E0,-2.398725204E0,2.532148433E0,4.992904903E0
1.025557442E1,-1.675843289E0,-1.912870700E0,-9.229718810E-1,2.705439361E0
1.026554542E1,-9.020509820E-1,-2.330306934E0,1.402777441E0,2.865625748E0
1.027551642E1,2.008905955E-2,-2.491436901E0,8.200262116E0,8.570411902E0
1.028548742E1,-9.409519961E-1,5.744149706E-1,8.250193244E0,8.323522799E0
1.029545842E1,-4.662252550E-1,3.038698280E0,2.960311968E0,4.267844910E0
1.030542942E1,1.083983662E0,1.327205102E0,2.081498845E0,2.696132675E0
1.031540042E1,1.141238574E0,-5.178083682E-1,7.520694619E-1,1.461560626E0
1.032537142E1,2.350306604E-1,1.957516238E-1,-1.912437129E0,1.936743112E0
1.033534142E1,-2.208127901E-2,8.272813198E-1,-2.356947725E0,2.498016122E0
1.034531242E1,-5.017332029E-1,5.400912300E-1,-8.974423528E-1,1.161394644E0
1.035528342E1,3.191023656E-1,-6.001520750E-1,-3.542389423E-1,7.664816117E-1
1.036525442E1,6.130946676E-1,-8.556543490E-1,-7.917241091E-1,1.317139515E0
1.037522542E1,3.765701167E-1,3.937345451E-1,-2.445387447E-1,5.971860200E-1
1.038519642E1,8.853891217E-1,9.567845750E-1,-7.294056541E-1,1.493781519E0
1.039516742E1,6.263055743E-1,7.711041954E-1,-1.846574677E0,2.096830558E0
1.040513842E1,6.458172213E-1,1.133162619E0,-3.101511117E0,3.364596352E0
1.041510942E1,-4.778293468E-2,2.815191092E0,-2.928762732E0,4.062663564E0
1.042508042E1,-4.863801688E-2,2.904283948E0,-1.850714505E0,3.444179886E0
1.043505142E1,-8.181216565E-1,1.429372039E0,-8.608481383E-1,1.858355991E0
1.044502242E1,-1.174601179E0,2.691034239E0,-1.883316826E0,3.488299796E0
1.045499342E1,-6.486069278E-1,6.282316325E0,-1.564806125E0,6.506674078E0
1.046496442E1,-1.352070825E0,6.988878077E0,2.494223392E-1,7.122831164E0
1.047493542E1,-1.130919335E0,1.579503686E0,1.074364480E0,2.219925556E0
1.048490642E1,-3.410927935E-1,-3.169577092E0,-1.154445022E-1,3.189967190E0
1.049487742E1,-2.149290293E-2,-2.902582116E0,-2.041694509E0,3.548797170E0
1.050484842E1,-9.535012903E-1,3.148909816E-1,-1.294619154E0,1.638401597E0
1.051481942E1,-2.042865852E0,1.138379797E-1,6.156293625E-1,2.136646786E0
1.052479042E1,-1.536512618E0,-1.518100321E0,2.552723030E0,3.343933983E0
1.053476142E1,-9.141656088E-1,-1.505682881E0,3.022151536E0,3.498025101E0
1.054473142E1,-1.960177598E0,-1.955222960E0,2.860937954E0,3.981225818E0
1.055470242E1,-1.590807231E0,-1.607714748E0,1.849899988E0,2.921907651E0
1.056467342E1,-1.720737187E0,-3.643502984E0,2.587516887E0,4.788663081E0
1.057464442E1,-1.370164449E0,-3.721297265E0,2.414998298E0,4.643018493E0
1.058461542E1,1.181451850E-1,-2.817943085E0,1.855937823E0,3.376280011E0
1.059458642E1,5.336534455E-3,-2.470212678E0,1.547227641E0,2.914771436E0
1.060455742E1,-4.090832669E-1,-2.164993868E0,6.174911159E-1,2.288196418E0
1.061452842E1,4.147087269E-1,-2.141821645E0,5.637136889E-1,2.253254626E0
1.062449942E1,1.325556479E-1,-1.293518415E0,-1.446607000E-1,1.308314797E0
1.063447042E1,8.869904548E-2,-3.640552479E-1,-1.852668645E0,1.890181169E0
1.064444142E1,-2.104122745E-1,-2.109429240E0,1.576846127E0,2.642046319E0
1.065441242E1,3.582051086E-1,-1.872410307E0,2.695571094E0,3.301565504E0
1.066438342E1,4.834135108E-1,2.245946522E0,-8.390193129E-1,2.445795946E0
1.067435442E1,5.359592950E-1,3.976124770E0,-1.251760232E0,4.202823364E0
1.068432542E1,3.864962769E-1,2.299388027E0,-3.874943966E-1,2.363623612E0
1.069429642E1,3.403586025E-1,5.593019646E-1,-1.128377550E0,1.304568343E0
1.070426742E1,4.647287332E-1,1.080656962E0,-2.734480221E0,2.976772471E0
1.071423842E1,5.205433302E-1,2.248549995E0,-3.170438679E0,3.921558856E0
1.072420942E1,6.257384674E-1,1.986224313E0,-3.376147819E0,3.966737923E0
1.073418042E1,4.755768532E-1,9.803614256E-1,-2.526612874E0,2.751554921E0
1.074415142E1,1.092829987E-2,7.210847738E-1,-1.050002056E-1,7.287713784E-1
1.075412242E1,-4.966929761E-1,1.678644397E0,1.202891543E0,2.124028952E0
1.076409242E1,-4.945667823E-1,2.142637624E0,7.997540903E-1,2.339892924E0
1.077406342E1,-1.353328561E-1,1.274083732E0,-5.594376200E-1,1.398061082E0
1.078403442E1,-3.068327875E-1,2.464309037E-2,2.184566545E-1,3.774611918E-1
1.079400542E1,-2.283953132E-1,8.854444510E-1,8.617082638E-1,1.256470225E0
1.080397642E1,-2.115249997E-1,9.498132321E-1,-8.620374620E-2,9.768925669E-1
1.081394742E1,-5.104763983E-1,4.463729346E-1,-7.270299304E-1,9.941868384E-1
1.082391842E1,-1.174967287E-1,-1.202088428E0,-3.942613792E-1,1.270536936E0
1.083388942E1,8.917060149E-1,-1.718501650E0,7.749496168E-1,2.085409899E0
1.084386042E1,3.116882423E-1,-3.630887032E0,2.261096658E0,4.288711729E0
1.085383142E1,4.260035741E-1,-3.952703455E0,1.982424207E0,4.442448580E0
1.086380242E1,-3.912230198E-1,-2.924091099E0,9.464461130E-1,3.098245382E0
1.087377342E1,-6.652991205E-1,-2.765519288E0,1.797169213E0,3.364600575E0
1.088374442E1,-3.805230537E-1,-3.779288780E0,2.536945488E0,4.567703350E0
1.089371542E1,-1.743553900E0,-2.752177404E0,1.263982667E0,3.494583358E0
1.090368642E1,-9.258055148E-1,-1.268819484E0,3.205221426E-1,1.603044971E0
1.091365742E1,2.650023184E-1,-1.438837512E0,1.907109731E0,2.403652874E0
1.092362842E1,-1.585843091E-1,2.258975288E-1,1.511546761E0,1.536539062E0
1.093359942E1,-6.366633321E-1,6.940694681E-1,5.193923789E-1,1.075565464E0
1.094357042E1,-7.324194552E-1,3.207700646E-1,-3.708298320E-1,8.813889363E-1
1.095354237E1,-1.444632833E-1,7.827787462E-1,-1.312053797E0,1.534632650E0
1.096351337E1,-2.333612072E-1,5.331906384E-1,-7.072470456E-1,9.159410972E-1
1.097348437E1,-4.109518178E-1,6.219624817E-1,-1.133079296E0,1.356313908E0
1.098345537E1,-5.067798617E-1,1.082452641E0,-1.431097845E0,1.864556406E0
1.099342537E1,-5.361878481E-1,1.331146710E0,-9.233437639E-1,1.706462035E0
1.100339637E1,-6.946788941E-1,1.262962036E0,4.402035373E-1,1.507126745E0
1.101336737E1,-1.034273266E0,9.475939214E-1,5.910377276E-1,1.522163271E0
1.102333837E1,-5.546694349E-1,1.613200898E0,-1.691141067E0,2.402089388E0
1.103330937E1,-1.890295916E-1,1.200920154E0,-1.628595740E0,2.032305461E0
1.104328037E1,-9.461788952E-2,6.259359571E-1,-8.539998794E-1,1.063044760E0
1.105325137E1,1.993024186E-1,-4.759630617E-1,-9.501760519E-1,1.081247807E0
1.106322237E1,4.838674740E-1,-1.253286648E0,7.328847474E-1,1.530351335E0
1.107319337E1,6.473005868E-1,-2.469910669E-1,-6.161573660E-1,9.271744909E-1
1.108316437E1,5.419582459E-1,-6.643001238E-1,1.128161203E0,1.416954867E0
1.109313537E1,3.747513402E-1,-6.085989627E-1,1.320622891E0,1.501624482E0
1.110310637E1,3.079659779E-1,-8.853520650E-1,4.065592432E-1,1.021754247E0
1.111307737E1,7.262293003E-1,-6.880175999E-1,5.111799645E-1,1.123424306E0
1.112304837E1,6.822764381E-1,-8.841431531E-1,9.991470677E-1,1.498500956E0
1.113301937E1,1.838233039E-1,-5.020065603E-1,9.080749297E-1,1.053755983E0
1.114299037E1,-3.064570308E-1,-1.614407471E-1,5.134907842E-2,3.501653244E-1
1.115296137E1,-3.431673856E-1,1.499462906E-1,-3.840930712E-1,5.364468585E-1
1.116293237E1,-5.357275260E-1,9.552368170E-1,-6.385440159E-1,1.267761736E0
1.117290337E1,-4.573240386E-1,1.265900554E0,-1.350836624E0,1.906937092E0
1.118287437E1,-2.148267762E-1,7.930464569E-1,-1.349730915E0,1.580141377E0
1.119284537E1,-1.390009168E0,4.072588626E-1,7.985367000E-2,1.450641885E0
1.120281637E1,-2.172860127E0,3.293391591E-1,3.389782941E-1,2.223666274E0
1.121278737E1,-1.750289161E0,3.985330626E-1,2.879987597E-2,1.795318964E0
1.122275837E1,-1.816899472E0,8.183868277E-1,-7.812745500E-1,2.140390295E0
1.123272837E1,-8.898178759E-1,4.580249736E-1,-1.474726260E-2,1.000889709E0
1.124269937E1,-8.003818620E-1,-9.134151918E-1,1.308479978E0,1.785233400E0
1.125267037E1,-4.247345091E-1,5.530355036E-2,-2.899148923E-1,5.172122685E-1
1.126264137E1,-2.012534883E-1,-2.672706726E-1,-1.407547599E-1,3.629717364E-1
1.127261237E1,-1.676005695E-1,-1.190794823E0,6.120017499E-1,1.349306638E0
1.128258337E1,4.089725353E-2,-8.387634972E-1,-1.251725149E-1,8.490376600E-1
1.129255437E1,2.913645633E-1,-1.087640876E0,-2.483172154E-1,1.153047017E0
1.130252537E1,1.277505523E-1,-1.542422399E0,-3.012286699E-1,1.576745310E0
1.131249637E1,3.070467956E-1,-5.035712752E-1,1.589758533E-1,6.108478418E-1
1.132246737E1,1.029819661E-1,-7.096259853E-1,1.145790558E0,1.351669460E0
1.133243837E1,-2.589000911E-2,-7.620997757E-1,6.978488159E-1,1.033663064E0
1.134240937E1,4.396484904E-2,-6.798171723E-1,7.988185358E-1,1.049854918E0
1.135238037E1,2.909608130E-1,-8.750755835E-1,3.788375938E-1,9.969620825E-1
1.136235137E1,4.500212317E-1,-6.907315850E-1,-1.978668541E-1,8.478092495E-1
1.137232237E1,4.770773218E-1,-4.480923083E-1,-2.333980447E-1,6.948842602E-1
1.138229337E1,9.466990051E-1,-4.306070870E-1,4.187150198E-1,1.121152861E0
1.139226437E1,9.754840437E-1,-4.303264207E-1,2.202353776E-2,1.066412202E0
1.140223537E1,-3.080227690E-1,-1.297310335E0,8.665690541E-2,1.336189189E0
1.141220637E1,4.399491835E-1,-6.273115146E-1,5.418497801E-2,7.681217561E-1
1.142217737E1,3.981202492E-1,9.702051044E-2,5.251407766E-1,6.660972508E-1
1.143214837E1,4.403657245E-1,-2.919435838E-1,-3.648446220E-1,6.420783641E-1
1.144211937E1,2.307119069E-1,-9.168159324E-1,5.427619457E-2,9.469558296E-1
1.145209037E1,5.964174584E-2,-8.802398443E-3,2.154582024E-2,6.402220267E-2
1.146206037E1,2.533238208E-1,5.148224875E-1,-3.255829078E-1,6.597115898E-1
1.147203137E1,-2.323917389E-1,1.285557139E-1,-2.937723005E-1,3.960235554E-1
1.148200237E1,-3.289742198E-1,-2.139730096E-2,-5.340168500E-1,6.275793797E-1
1.149197337E1,-3.283291257E-1,1.082158234E0,-5.540371317E-1,1.259294883E0
1.150194437E1,-2.268153224E-1,1.718272147E0,-3.955495209E-1,1.777741203E0
1.151191537E1,-4.190560587E-2,1.269522319E0,-1.349934399E0,1.853581905E0
1.152188637E1,-6.835824868E-1,-1.249079284E-1,-1.614158379E0,1.757382793E0
1.153185737E1,-9.635481955E-1,-1.130472315E0,-4.435393739E-1,1.550199973E0
1.154182837E1,-1.007036423E0,4.070857850E-1,4.223794699E-1,1.165437948E0
1.155179937E1,-1.149848745E0,1.583420736E0,5.842239672E-1,2.042226973E0
1.156177037E1,6.402150770E-1,4.718703032E-2,9.850710654E-1,1.175783553E0
1.157174137E1,3.924974936E-1,2.022306311E-1,3.998103869E-1,5.956507837E-1
1.158171237E1,6.707403202E-1,-2.300002277E-3,1.140169630E0,1.322832058E0
1.159168337E1,5.223419338E-1,3.561796331E-1,7.634984297E-1,9.912794152E-1
1.160165437E1,1.365851104E-2,2.355062583E-1,-1.620707846E-1,2.862109219E-1
1.161162537E1,-3.097026741E-1,-5.938142779E-1,-6.323512298E-1,9.210858922E-1
1.162159637E1,-2.170464523E-1,-1.237852630E0,-4.949182731E-1,1.350678494E0
1.163156737E1,1.160081738E-1,-7.124572071E-1,1.469481307E-1,7.366457232E-1
1.164153837E1,-7.453657023E-1,-6.313925788E-1,1.377637922E0,1.688819961E0
1.165150937E1,-8.740195032E-1,-9.606954852E-1,2.167590909E0,2.526914374E0
1.166148037E1,-1.207837703E0,1.313667628E-1,3.032412815E-1,1.252231775E0
1.167145137E1,-9.699449033E-2,-8.356957555E-2,-2.119598132E-1,2.476262658E-1
1.168142237E1,2.131464326E-1,-6.434012979E-1,-5.205208915E-1,8.545985200E-1
1.169139237E1,5.179774258E-1,-1.404362913E0,-6.909140182E-1,1.648604860E0
1.170136437E1,4.621884835E-1,-7.974292374E-1,-6.640530789E-1,1.135992110E0
1.171133437E1,4.593947569E-1,2.130745849E-1,3.020010871E-1,5.896176541E-1
1.172130537E1,1.280494912E-1,2.705936453E-1,1.454004897E0,1.484502554E0
1.173127637E1,-1.917696700E-2,-4.058134308E-1,8.454565126E-1,9.380026713E-1
1.174124737E1,-3.747474664E-1,-7.790645948E-1,4.179905498E-1,9.602569480E-1
1.175121837E1,-4.449383933E-1,3.290204859E-1,-1.004549310E0,1.146884463E0
1.176118937E1,-3.234576642E-1,-1.509599054E-1,-2.448316902E-1,4.328467513E-1
1.177116037E1,-9.825455068E-1,-1.301995416E0,-6.338492864E-1,1.749957901E0
1.178113137E1,-7.140890919E-1,-1.475171525E0,-1.288455604E0,2.084747491E0
1.179110237E1,-5.805454838E-1,-1.622052121E0,-7.469408691E-1,1.877766440E0
1.180107337E1,-7.942697675E-1,-1.180283284E0,8.628326833E-1,1.663854961E0
1.181104437E1,2.038128877E-1,-4.409195289E-1,5.780709422E-1,7.550600892E-1
1.182101537E1,1.145476855E-1,-4.539251983E-1,1.443737186E0,1.517743826E0
1.183098637E1,5.974789473E-1,-7.937773588E-1,1.962077066E0,2.199274881E0
1.184095737E1,1.439113208E0,-7.028654346E-1,9.061359930E-1,1.840149201E0
1.185092837E1,8.862625495E-1,-1.026226108E0,-1.847872174E-1,1.368483704E0
1.186089937E1,1.254076315E0,-7.674260044E-1,-2.040555471E-1,1.484347918E0
1.187087037E1,9.630549829E-1,6.011741683E-1,-7.954435229E-1,1.386223531E0
1.188084137E1,1.281088843E0,1.183997143E0,-6.784676349E-1,1.871725458E0
1.189081238E1,1.715018172E0,8.818144995E-1,3.858729637E-1,1.966667762E0
1.190078337E1,1.356133324E0,8.422577932E-1,-2.478149396E-1,1.615520977E0
1.191075437E1,1.361386755E0,1.194603407E0,2.060909629E-1,1.822889103E0
1.192072537E1,4.347548825E-1,1.991163748E0,5.201741517E-1,2.103408193E0
1.193069637E1,-8.775618196E-2,1.635196369E0,9.036193514E-1,1.870319824E0
1.194066737E1,8.637609288E-2,1.330100643E0,-5.949308038E-2,1.334229357E0
1.195063654E1,-4.483308747E-2,1.364026481E0,-4.228431541E-1,1.428766803E0
1.196060754E1,4.623319595E-1,2.147498122E0,4.837693870E-2,2.197234478E0
1.197057854E1,-9.699375942E-2,4.860211498E-1,8.711889392E-1,1.002294625E0
1.198054954E1,-1.467095643E-2,1.999858850E-1,-2.426752371E-1,3.148028937E-1
1.199052054E1,1.901301107E-1,-2.722288191E-2,-9.474050564E-1,9.666782738E-1
1.200049154E1,8.878076032E-2,-1.090694000E0,-2.119270688E-1,1.114633799E0
1.201046254E1,9.790103533E-1,-1.562496475E0,8.239498687E-1,2.019591516E0
1.202043354E1,2.661135817E-1,-2.245143407E0,5.035616273E-1,2.316259845E0
1.203040454E1,6.648753436E-1,-1.536201839E0,-1.127840191E-1,1.677705441E0
1.204037554E1,1.375114556E-1,-1.972504991E0,6.611750793E-1,2.084907150E0
1.205034654E1,7.920755267E-2,-1.463460722E0,4.102698863E-1,1.521943659E0
1.206031754E1,-4.402661026E-3,-1.375075087E0,1.148752758E0,1.791782291E0
1.207028854E1,5.625598870E-2,-8.139353424E-1,5.645574421E-1,9.921595554E-1
1.208025954E1,-4.796069004E-2,-9.186455262E-1,3.262348723E-1,9.760322856E-1
1.209023054E1,-1.801730333E-1,-3.180347371E-1,1.143230063E0,1.200243055E0
1.210020154E1,-3.700462320E-1,-2.520012537E-1,6.203533280E-1,7.650340497E-1
1.211017254E1,3.749969233E-1,-2.286737868E-1,-3.230879009E-1,5.452524048E-1
1.212014354E1,9.271779294E-1,-6.850729421E-1,-5.482823020E-1,1.276556827E0
1.213011454E1,9.370964152E-1,-2.790835100E-1,-3.855420113E-1,1.051037554E0
1.214008554E1,5.948832951E-1,8.607101440E-2,2.293891937E-1,6.433612955E-1
1.215005654E1,2.922702239E-1,-5.877562702E-2,5.354997039E-1,6.128918265E-1
1.216002754E1,5.148895112E-1,-4.233351973E-1,3.194240355E-1,7.391587194E-1
1.216999854E1,-2.014354098E-1,-1.367401201E0,1.448595053E-1,1.389728947E0
1.217996954E1,6.132150471E-2,-7.033738500E-1,-8.690658152E-2,7.113704054E-1
1.218994054E1,-3.632322523E-1,5.392030379E-1,-6.496765298E-1,9.191067286E-1
1.219991154E1,-1.533469581E-1,3.962660971E-1,-1.301467413E-1,4.443875376E-1
1.220988254E1,2.246025898E-1,-4.539816239E-1,-4.329664385E-1,6.663374334E-1
1.221985254E1,-2.000814139E-1,-5.966168484E-1,-9.395779735E-1,1.130836418E0
1.222982354E1,1.782316846E-1,1.122551385E-1,-1.131003535E-1,2.390804038E-1
1.223979454E1,-4.650862905E-1,5.074713680E-1,8.697633880E-1,1.109198268E0
1.224976554E1,-8.228520539E-1,1.461639606E0,5.778253591E-1,1.774079476E0
1.225973654E1,-5.757584415E-1,7.959870216E-1,-1.081845993E-1,9.883304250E-1
1.226970754E1,-6.411760669E-1,1.034964480E0,-2.622850442E-1,1.245412248E0
1.227967854E1,-7.792593071E-1,1.070348320E0,-4.678971201E-1,1.404214481E0
1.228964954E1,-1.072602203E0,2.480125755E-1,-2.699495745E-1,1.133515988E0
1.229962054E1,-1.195952652E0,1.471048361E-1,-6.015030742E-2,1.206466178E0
1.230959154E1,-1.049237241E0,5.507650298E-1,-4.160884506E-1,1.255934116E0
1.231956254E1,-5.511007331E-1,2.851900497E-1,-4.308813214E-1,7.554495983E-1
1.232953354E1,-3.418019146E-1,-6.177779219E-1,1.459453332E-1,7.209564133E-1
1.233950454E1,-6.798141756E-1,-1.793725203E0,5.034359121E-1,1.983190645E0
1.234947554E1,-6.891689897E-1,-3.564822266E-1,-2.575949925E-1,8.175503987E-1
1.235944654E1,-7.982009967E-1,-7.514774314E-1,1.530474783E0,1.882603576E0
1.236941754E1,-7.829330396E-1,-6.402724528E-1,1.335603458E0,1.675341623E0
1.237938854E1,-1.220713345E0,-5.577425122E-1,3.814010131E-1,1.395236364E0
1.238935954E1,-1.036697887E0,-2.513039732E-1,-4.173882866E-1,1.145473342E0
1.239933054E1,-9.662090441E-1,-4.106210116E-1,4.746787208E-1,1.152167271E0
1.240930154E1,-6.383030375E-1,6.311379325E-1,1.122612780E-1,9.046371936E-1
1.241927254E1,-5.146570844E-1,-6.930236936E-2,-5.989887714E-2,5.227452615E-1
1.242924354E1,-1.501173216E-1,-6.042883953E-1,-1.099200529E-1,6.322832380E-1
1.243921454E1,1.059130291E-1,-6.923489249E-1,-3.247362310E-1,7.720221650E-1
1.244918554E1,1.774490348E-1,-2.749717480E-1,-3.069636190E-1,4.486917489E-1
1.245915654E1,4.422895315E-1,-5.532614985E-1,4.581995130E-2,7.098012281E-1
1.246912754E1,2.511839591E-2,-8.341479975E-1,3.294461632E-1,8.972004180E-1
1.247909754E1,1.859597303E-1,-7.192092794E-1,-9.618611276E-2,7.490625990E-1
1.248906854E1,-6.441861404E-1,-1.118715026E0,-1.146179983E0,1.726333585E0
1.249903954E1,-7.456496577E-1,-1.729310229E0,4.582404435E-2,1.883774700E0
1.250901054E1,-7.986778372E-1,-1.301004313E0,4.707154781E-1,1.597520445E0
1.251898154E1,-1.024296088E0,-6.679379690E-1,5.659718835E-1,1.347459751E0
1.252895254E1,-2.253398506E-1,-1.881131136E-1,1.188049555E0,1.223775444E0
1.253892354E1,-1.859111253E-1,-4.726187468E-1,6.520733035E-1,8.265174042E-1
1.254889454E1,-3.561862843E-1,-7.249331188E-1,3.487630248E-2,8.084633896E-1
1.255886554E1,-2.987191180E-1,-1.434086649E0,-6.222022176E-3,1.464880999E0
1.256883654E1,-5.203568041E-1,-7.334358475E-1,9.035877764E-2,9.038053190E-1
1.257880754E1,-3.247618856E-1,-5.520166263E-1,-2.269520742E-1,6.794850124E-1
1.258877854E1,4.206558569E-1,2.149986112E-1,3.574280137E-1,5.923939042E-1
1.259874954E1,2.643984472E-1,4.493895131E-1,7.007595599E-2,5.260875526E-1
1.260872054E1,4.982688738E-1,-9.973449558E-2,4.673445582E-1,6.903837892E-1
1.261869154E1,4.621305960E-1,1.824129555E-1,1.095134375E0,1.202563293E0
1.262866254E1,5.921953301E-1,8.549588227E-1,1.992216539E-1,1.058933031E0
1.263863354E1,1.084632410E0,1.602333263E0,-4.809878665E-1,1.993802568E0
1.264860454E1,1.226058869E0,1.537499043E0,-2.332261366E-1,1.980282326E0
1.265857554E1,1.006244199E0,1.720247044E0,-8.357173902E-1,2.161064746E0
1.266854654E1,5.212761325E-1,1.933549378E0,-1.102137001E0,2.285836384E0
1.267851754E1,2.829216955E-1,1.498068637E0,-1.157663915E0,1.914272725E0
1.268848854E1,9.855138458E-2,1.754616393E0,-9.489884824E-1,1.997240647E0
1.269845954E1,-5.290008160E-1,1.024212619E0,-1.657714874E-1,1.164617336E0
1.270843054E1,-5.870548967E-1,-9.752395570E-2,2.079708427E-1,6.303937222E-1
1.271840154E1,-7.912903918E-1,-9.562732360E-1,3.439203608E-1,1.287975233E0
1.272837254E1,-4.550271792E-1,-6.395257634E-1,6.358437717E-2,7.874553377E-1
1.273834354E1,-5.432371051E-1,-1.448916942E0,6.550740945E-1,1.680353810E0
1.274831454E1,-6.220669276E-1,-1.493512194E0,4.365151137E-1,1.675736071E0
1.275828554E1,-6.639579155E-2,-1.784260899E0,-1.585004747E-1,1.792517157E0
1.276825654E1,-3.654298552E-1,-2.148331642E0,4.816029936E-1,2.231772674E0
1.277822654E1,-3.918948649E-1,-2.289310058E0,3.672279471E-1,2.351463054E0
1.278819754E1,-4.193264924E-1,-2.060371100E0,8.896141005E-1,2.283063080E0
1.279816854E1,-1.481674945E-1,-1.864766534E0,1.501304778E0,2.398587891E0
1.280813954E1,-1.216862880E0,-2.887946243E0,5.261590692E0,6.124159157E0
1.281811054E1,-1.512150633E0,-1.009336718E0,7.236675475E0,7.461556947E0
1.282808154E1,4.122414212E-1,2.265858338E0,1.355396283E0,2.672294161E0
1.283805254E1,1.446924503E0,3.329813898E0,-3.276319476E0,4.890349724E0
1.284802354E1,2.211022273E0,2.980471998E-2,-4.432706943E0,4.953624800E0
1.285799454E1,7.964287057E-1,-3.000979938E0,-7.331174081E0,7.961550896E0
1.286796554E1,-4.882006263E-1,-2.903955919E0,-6.205631261E0,6.868854284E0
1.287793654E1,-5.555253942E-1,-2.101917906E0,-8.650774294E-1,2.339877413E0
1.288790754E1,-1.309716665E0,-1.045728326E0,4.241778980E0,4.560876493E0
1.289787854E1,-4.312992512E-1,2.407959419E-1,3.156896528E0,3.195308658E0
1.290784954E1,5.682576332E-1,1.271664155E0,2.523154246E0,2.882074566E0
1.291782054E1,8.051244655E-1,7.653923428E-1,4.075969486E0,4.224639404E0
1.292779154E1,1.481219154E0,7.884183857E-1,3.356369027E0,3.752442775E0
1.293776254E1,8.154881436E-1,1.574686458E0,-3.711005580E-1,1.811732314E0
1.294773362E1,1.028009143E0,2.211592669E0,-4.121336278E0,4.788878537E0
1.295770462E1,1.487096922E0,1.882131595E0,-5.536133839E0,6.033461236E0
1.296767562E1,1.361833482E0,9.070010886E-1,-6.061751164E0,6.278699593E0
1.297764662E1,9.726835929E-2,1.262981039E-1,-3.036074926E0,3.040257111E0
1.298761762E1,-6.711668745E-1,1.803500870E0,3.731114155E-1,1.960176648E0
1.299758862E1,-1.578275771E0,6.207009450E-1,3.058951573E0,3.497629025E0
1.300755962E1,-2.729342272E0,-2.867672484E0,5.820213795E0,7.039015793E0
1.301753062E1,-2.337164987E0,-3.936792012E0,3.185913336E0,5.577698029E0
1.302750162E1,-6.006962315E-1,1.108266052E0,-1.835621672E0,2.226790634E0
1.303747262E1,-1.452704184E-1,2.912878186E0,-2.638979402E0,3.933214347E0
1.304744362E1,-1.243138513E-1,1.953206840E0,9.971853268E-1,2.196553999E0
1.305741462E1,8.745015331E-2,1.950132667E0,7.166394281E-1,2.079479987E0
1.306738562E1,-2.436680943E-1,2.958017521E0,-2.199796788E0,3.694367023E0
1.307735562E1,-1.443198073E-1,1.378612360E0,-3.541959068E0,3.803534446E0
1.308732662E1,5.188725615E-1,-2.848854098E-1,-2.039784223E0,2.123936936E0
1.309729762E1,1.227622926E-3,-1.339292174E0,-3.183934053E0,3.454148388E0
1.310726862E1,1.185046133E0,-1.332809658E0,-8.066899990E0,8.261694220E0
1.311723962E1,1.237757028E0,-4.415010053E0,-1.200123471E1,1.284733400E1
1.312721062E1,2.556668732E-1,-1.048826298E1,-6.429422330E0,1.230473476E1
1.313718162E1,-2.715888414E0,-1.287382757E1,1.276583534E1,1.833243132E1
1.314715262E1,-3.905275812E0,-2.104492728E0,3.193095938E1,3.223765246E1
1.315712362E1,-2.211725400E0,1.138648418E1,8.245634170E0,1.423145229E1
1.316709462E1,-1.626585028E0,8.299264247E0,1.505279716E0,8.590077586E0
1.317706562E1,-4.195636701E-1,-7.497731434E0,1.195469555E1,1.411760447E1
1.318703662E1,-1.163202982E0,-3.052822814E0,5.618188986E0,6.498985751E0
1.319700762E1,-1.296873109E0,5.616264668E0,-1.246515514E1,1.373333176E1
1.320697862E1,-2.256501185E-1,2.835489117E0,-7.846222563E0,8.345904686E0
1.321694962E1,1.784148487E-1,-2.986518897E0,-8.488784201E0,9.000587991E0
1.322692062E1,-1.555519431E-1,-6.126749398E0,-8.208190355E0,1.024381001E1
1.323689162E1,-8.422214674E-1,-2.310868158E0,-1.333207269E0,2.797657996E0
1.324686262E1,-1.637024355E0,1.146170627E0,4.078867950E0,4.542105195E0
1.325683362E1,4.294635909E-1,-1.688409832E-1,3.036539780E0,3.071403602E0
1.326680462E1,1.592054589E0,-2.680281209E0,2.046028465E-1,3.124165088E0
1.327677562E1,-3.166731399E-1,-2.747467764E0,-5.406054926E-1,2.817998454E0
1.328674662E1,5.213625982E-2,-3.547592568E0,-1.374265248E-1,3.550636177E0
1.329671762E1,-3.222137421E-2,-6.263925662E0,-2.854283237E0,6.883657147E0
1.330668862E1,2.704001024E-2,2.862462030E0,-5.586356744E0,6.277085447E0
1.331665962E1,-9.222474841E-1,1.331766281E1,-3.289258779E0,1.374881473E1
1.332663063E1,-1.924515430E0,1.958820752E1,-1.090529693E0,1.971270881E1
1.333660162E1,-1.797065425E0,5.341002898E0,3.143932081E0,6.452911360E0
1.334657262E1,4.106962945E-1,-9.544163357E0,4.911413811E0,1.074158793E1
1.335654362E1,4.069803012E0,-1.140736225E1,3.712981355E0,1.266796908E1
1.336651462E1,2.428650815E0,-2.978380449E0,4.695068586E-1,3.871631642E0
1.337648462E1,-7.635612872E-1,-1.840144786E0,5.246876174E-1,2.060207700E0
1.338645562E1,-6.568830769E-1,-4.279747290E0,3.172323237E0,5.367622096E0
1.339642662E1,-1.635921204E-1,1.016917341E0,1.904965557E0,2.165589304E0
1.340639762E1,-1.067634628E0,6.504406439E0,2.214492595E-1,6.595163879E0
1.341636862E1,1.900354589E-1,5.386726370E0,-1.182098844E0,5.518178335E0
1.342633962E1,-9.353029279E-1,2.740560740E-1,-3.243469818E0,3.386738071E0
1.343631062E1,-1.920167002E0,-1.352082373E0,-1.833965156E0,2.979697343E0
1.344628162E1,-1.706932057E0,1.059011739E0,7.007063502E-1,2.127466169E0
1.345625262E1,-2.503497661E0,2.256785798E0,1.088359791E-1,3.372303063E0
1.346622363E1,-1.312492045E0,1.191452927E0,-1.088277345E0,2.080034381E0
1.347619462E1,-1.305518656E0,-3.564167377E-1,-1.471728977E0,1.999349403E0
1.348616562E1,-7.164009348E-1,6.168520153E-3,-6.153791016E-1,9.444362280E-1
1.349613662E1,2.415645584E-2,1.850921497E-1,-6.184307635E-2,1.966397832E-1
1.350610762E1,-8.897162805E-1,-9.005478090E-1,2.875300469E0,3.141645143E0
1.351607862E1,-1.059034250E0,-1.061925991E0,4.258833554E0,4.515185887E0
1.352604962E1,-1.811261149E0,2.352408824E0,8.306911236E-1,3.082943718E0
1.353602062E1,-1.944722092E0,5.042825890E0,-2.358576175E0,5.897026245E0
1.354599162E1,-6.178017493E-1,3.121735758E0,-4.474455478E0,5.490688934E0
1.355596262E1,9.306150690E-2,-7.707495618E-1,-5.024204847E0,5.083832184E0
1.356593362E1,5.035450723E-1,-2.648997729E0,-2.764416211E0,3.861702162E0
1.357590462E1,-5.825924478E-1,-1.385204219E0,1.327094005E0,2.004839940E0
1.358587562E1,-1.005235627E0,-1.244991203E0,2.933706552E0,3.341726485E0
1.359584662E1,-7.303175274E-1,-2.247831372E0,1.961836161E0,3.071629973E0
1.360581762E1,-1.190349996E0,-1.998750218E0,4.003126627E-1,2.360547770E0
1.361578862E1,-1.286871885E0,-1.085860106E-1,1.016207489E0,1.643322193E0
1.362575962E1,-1.304848565E0,-5.885064679E-1,2.484149224E0,2.867048484E0
1.363573062E1,-7.829769668E-1,-3.435357310E0,1.395992916E0,3.789924669E0
1.364570162E1,-6.003117040E-2,-3.275216399E0,-9.697724104E-2,3.277201670E0
1.365567262E1,-3.571929191E-1,-1.280916496E0,1.146084089E0,1.755517756E0
1.366564362E1,-6.567921527E-1,-8.416394502E-2,2.687849845E0,2.768211750E0
1.367561462E1,-1.176674382E0,-1.902645966E-1,2.343483342E0,2.629197100E0
1.368558562E1,-1.446161296E0,-1.923169693E0,1.410037344E0,2.788936979E0
1.369555662E1,-1.481196058E0,-1.271267421E0,5.390407777E-1,2.025000636E0
1.370552662E1,-1.511119768E0,-1.734703993E0,3.934977329E-1,2.333992580E0
1.371549762E1,-1.329519868E0,-1.629038081E0,-5.502861428E-1,2.173523175E0
1.372546862E1,-9.441541506E-1,-3.145497966E-1,-6.866671854E-1,1.209082486E0
1.373543962E1,-1.074749812E0,1.502996963E0,-5.128300488E-2,1.848436359E0
1.374541062E1,-1.110898322E0,2.243010051E0,-2.064885736E-2,2.503121161E0
1.375538162E1,-1.602897373E0,5.461568391E-1,-3.363330138E-1,1.726466674E0
1.376535262E1,-1.332526945E0,4.611783770E-1,-2.403403269E0,2.786514100E0
1.377532362E1,-1.159404265E0,1.168633291E0,-3.007107235E0,3.428208854E0
1.378529462E1,-7.212292732E-1,1.285139063E0,-1.559969308E0,2.145986561E0
1.379526562E1,-6.432014693E-1,2.037503225E-1,-6.763111818E-1,9.553110167E-1
1.380523662E1,-1.890530901E-1,-5.993279099E-2,-7.531447649E-2,2.121444807E-1
1.381520762E1,6.005192801E-2,9.181072900E-1,3.026998293E-1,9.685837169E-1
1.382517862E1,1.469870878E-1,1.092278303E0,7.184573275E-1,1.315620776E0
1.383514962E1,-2.796804377E-1,-1.213686088E-1,1.695218915E-1,3.488397313E-1
1.384512062E1,-2.755468217E-1,-7.111024073E-1,-9.416163129E-1,1.211707046E0
1.385509162E1,-2.211724669E-1,-5.050783950E-1,-1.373196961E0,1.479760568E0
1.386506262E1,6.813394949E-3,-6.892078006E-1,-3.628659242E-1,7.789258590E-1
1.387503362E1,1.187210626E-1,-1.218006011E0,4.883003944E-1,1.317600322E0
1.388500462E1,1.589570691E-1,-1.249231019E0,1.091212648E0,1.666310455E0
1.389497562E1,-1.459652138E-1,-7.044678640E-1,2.385062308E0,2.491205135E0
1.390494662E1,1.666112937E-1,4.950743937E-1,2.036170059E0,2.102105252E0
1.391491762E1,4.918842991E-1,2.454260597E-1,1.796436557E0,1.878661336E0
1.392488862E1,-4.811103657E-2,-9.028744161E-1,1.220216258E0,1.518691740E0
1.393485962E1,5.546123515E-1,-1.112389801E0,1.298934984E0,1.797842602E0
1.394483062E1,-2.468353117E-1,-9.043946922E-1,1.376583084E0,1.665484439E0
1.395480200E1,-7.382224513E-1,-4.252630243E-1,6.981809378E-1,1.101488833E0
1.396477300E1,-4.924947484E-1,-1.988746217E-1,2.315035468E-1,5.793928585E-1
1.397474400E1,-8.505438825E-1,-6.062752792E-1,-1.985743672E-1,1.063215119E0
1.398471500E1,-2.328991310E-1,-9.117273930E-1,-8.381258583E-1,1.260136421E0
1.399468600E1,-2.429108799E-2,-1.346839467E0,-1.022890272E0,1.691410984E0
1.400465700E1,2.600256801E-1,-1.989716562E0,-1.046281473E0,2.263026795E0
1.401462700E1,2.716185891E-1,-1.567308441E0,-1.009787246E0,1.884118544E0
1.402459800E1,1.375001266E-1,-5.657988060E-1,-2.418700755E-2,5.827688950E-1
1.403456900E1,1.448542428E-1,3.710906178E-2,1.878119820E-1,2.400691041E-1
1.404454000E1,6.993946736E-1,-1.282443497E-1,2.638111675E-1,7.584166762E-1
1.405451100E1,7.642372254E-1,-4.168903962E-1,3.592447436E-1,9.417605454E-1
1.406448200E1,5.686363866E-1,-3.732599348E-1,6.356157303E-2,6.831620545E-1
1.407445300E1,8.068705172E-1,-3.798591024E-1,-5.727026135E-1,1.059868507E0
1.408442400E1,8.909265811E-1,-6.903304660E-1,-1.030505100E0,1.527169633E0
1.409439500E1,8.620035481E-1,-6.117199141E-1,-1.056015918E0,1.494128839E0
1.410436600E1,1.039203053E0,-1.229561278E-1,-1.768958151E-2,1.046601221E0
1.411433700E1,8.425542471E-1,8.306998944E-1,2.865901655E-1,1.217412788E0
1.412430800E1,1.212411614E0,5.528176948E-1,1.395615771E0,1.929583557E0
1.413427900E1,1.442372154E0,7.029762393E-1,2.391227027E0,2.879683962E0
1.414425000E1,9.355296537E-1,8.772636116E-1,2.124975817E0,2.482001087E0
1.415422100E1,8.603416964E-1,1.946298940E0,-1.091920745E-1,2.130772232E0
1.416419200E1,6.011879092E-1,1.680095969E0,-2.069292197E0,2.732420093E0
1.417416300E1,3.598111926E-1,9.705185151E-1,-2.346301115E0,2.564468601E0
1.418413400E1,-2.223774319E-1,-6.338820308E-2,-5.139556378E-1,5.635780196E-1
1.419410500E1,-5.783188641E-1,-5.047839877E-1,7.475320226E-1,1.071477348E0
1.420407600E1,-6.519730237E-1,9.264375257E-1,5.235246062E-1,1.247971685E0
1.421404700E1,-7.285849243E-1,-3.522020647E-1,1.264705968E0,1.501453786E0
1.422401800E1,-1.540391222E-1,-1.151496271E0,9.798898476E-1,1.519820985E0
1.423398900E1,3.022558795E-1,-1.477118648E0,-3.121881062E-1,1.539707612E0
1.424396000E1,6.696410436E-1,-1.295794736E0,-2.870982885E-3,1.458599112E0
1.425393100E1,4.077998762E-1,-1.248813528E0,7.263364506E-1,1.501133108E0
1.426390200E1,-2.797604714E-1,-2.297545277E0,6.440900999E-1,2.402463793E0
1.427387300E1,1.161550851E-1,-1.411067915E0,7.580885857E-1,1.606020850E0
1.428384400E1,-7.435165934E-1,-3.668332601E-1,1.456332673E0,1.675794862E0
1.429381500E1,-1.002340671E0,-2.083555895E-1,1.904310084E0,2.162058225E0
1.430378600E1,-7.623916979E-1,-8.292497849E-1,1.124487398E0,1.591655809E0
1.431375700E1,-2.721859883E-1,-1.930467018E-1,-6.755288243E-3,3.337632023E-1
1.432372800E1,1.957212914E-1,-5.545581186E-1,-2.639561784E-1,6.446040606E-1
1.433369900E1,2.513214418E-1,-1.495500540E0,-5.485132670E-1,1.612622441E0
1.434366900E1,7.461984920E-1,-1.915478851E0,-1.586712719E0,2.596830504E0
1.435364000E1,6.503852854E-1,-7.054455185E-1,-2.666124516E0,2.833526836E0
1.436361100E1,9.126452596E-1,2.724372724E-1,-6.572919434E-1,1.157227781E0
1.437358200E1,6.405302420E-1,-1.976189321E-1,9.424150425E-1,1.156493989E0
1.438355300E1,5.911195155E-1,-7.400899789E-1,4.283781284E-1,1.039549556E0
1.439352400E1,-1.489400578E-1,-1.249579221E0,5.316194916E-1,1.366107849E0
1.440349500E1,1.558567292E-1,-8.889057103E-1,3.996109968E-1,9.869820822E-1
1.441346600E1,9.945024781E-2,-1.214583635E-1,5.308114064E-1,5.535370222E-1
1.442343700E1,-8.057682440E-2,1.057392937E-1,-2.761832911E-1,3.065136753E-1
1.443340800E1,2.403601782E-1,1.668824583E-1,-5.138913184E-1,5.913603447E-1
1.444337900E1,2.291820560E-1,4.915090540E-1,-9.225929815E-1,1.070179132E0
1.445335000E1,7.760600761E-1,5.545087096E-1,-9.871421492E-1,1.372661201E0
1.446332100E1,3.382414719E-1,-1.338211316E-1,-2.669253945E-1,4.511812882E-1
1.447329200E1,-3.280808383E-1,-3.884711739E-1,9.614149851E-1,1.087596278E0
1.448326300E1,-5.978902989E-1,-4.054400861E-1,1.115162843E0,1.328699605E0
1.449323400E1,-8.457846145E-1,8.645780772E-1,3.378579676E-1,1.255784564E0
1.450320500E1,-7.434514701E-1,1.111180012E0,5.454943496E-1,1.443954706E0
1.451317600E1,-2.594066061E-1,2.981454331E-1,8.600681198E-1,9.465197606E-1
1.452314700E1,-5.635524519E-1,5.239780578E-1,1.842340708E-2,7.697296883E-1
1.453311800E1,-4.901640482E-1,8.165920249E-1,2.456859684E-1,9.835877817E-1
1.454308900E1,-2.116707415E-1,8.101223731E-1,4.510080224E-1,9.510578313E-1
1.455306000E1,5.865992524E-2,2.962684768E-1,2.003314555E-1,3.624205972E-1
1.456303100E1,-5.361715490E-1,-5.848414332E-2,-5.689399302E-2,5.423442185E-1
1.457300200E1,-5.115864922E-1,5.461182475E-2,-4.876209480E-1,7.088563883E-1
1.458297300E1,-5.855194909E-1,4.616537556E-1,-3.426386511E-1,8.205842489E-1
1.459294400E1,-9.060618065E-1,-3.569386017E-1,-9.525406659E-2,9.784817319E-1
1.460291500E1,-7.941393015E-1,-3.066420221E-1,-6.540332901E-1,1.073520426E0
1.461288600E1,-1.554467956E0,-8.450203103E-1,-7.103256047E-2,1.770727414E0
1.462285700E1,-1.417281898E0,-8.980779451E-1,-4.242248511E-1,1.730664236E0
1.463282800E1,-1.623635254E0,-6.742944771E-1,2.722843677E-1,1.779045603E0
1.464279800E1,-1.193992300E0,-1.023563578E0,1.104761231E0,1.921925438E0
1.465276900E1,-8.348362148E-1,4.746389598E-2,-4.468383729E-2,8.373774371E-1
1.466274000E1,-3.641852754E-1,1.615977448E-1,-3.554504853E-1,5.339380053E-1
1.467271100E1,2.457885139E-1,-3.176426813E-1,-9.116241896E-1,9.961764551E-1
1.468268200E1,6.788497505E-1,-1.072882504E0,-2.175562418E0,2.518925502E0
1.469265300E1,9.535905334E-1,-2.055530483E0,-1.002996290E0,2.478011709E0
1.470262400E1,2.220899682E-1,-1.786028220E0,-3.761928982E-1,1.838679378E0
1.471259500E1,-9.903005227E-2,-1.573343352E0,2.979641694E-1,1.604368693E0
1.472256600E1,8.632244468E-2,-7.084542033E-1,4.748740178E-1,8.572422385E-1
1.473253700E1,-1.616071004E-1,-1.242532449E0,5.320282120E-1,1.361270642E0
1.474250800E1,-1.296349637E-2,-1.525275439E0,1.788610643E-1,1.535781396E0
1.475247900E1,-8.135560043E-2,-1.298617187E0,9.258247375E-2,1.304452700E0
1.476245000E1,1.199999218E-1,-1.466554483E0,8.109251958E-1,1.680113600E0
1.477242100E1,1.620769241E-1,-9.702758557E-1,2.361604448E0,2.558296256E0
1.478239200E1,6.079690714E-1,-4.548183605E-1,8.049651289E-1,1.106550944E0
1.479236300E1,6.737036160E-1,-3.919555297E-1,-3.049574393E-1,8.369616116E-1
1.480233400E1,4.638121822E-1,-7.265036809E-1,3.594610906E-1,9.338852255E-1
1.481230500E1,4.201081190E-1,-6.982774168E-2,9.221947861E-1,1.015780473E0
1.482227600E1,2.738005507E-1,2.574692774E-1,1.310865642E0,1.363681012E0
1.483224700E1,3.296333472E-1,3.473450750E-2,6.168204403E-1,7.002371635E-1
1.484221800E1,1.152045690E0,5.191751549E-1,-2.657577056E-1,1.291270410E0
1.485218900E1,1.252901609E0,3.487364200E-1,-7.845530838E-1,1.518849260E0
1.486216000E1,4.108925416E-1,3.646364611E-1,-4.675649983E-1,7.213941067E-1
1.487213100E1,2.217150886E-1,1.705269109E0,5.186129451E-2,1.720403996E0
1.488210200E1,-1.467526875E-2,1.745197406E0,4.359952962E-1,1.798894451E0
1.489207300E1,-2.014642073E-1,2.416974364E0,1.147656405E-1,2.428070027E0
1.490204400E1,-2.193171454E-1,1.831307012E0,-9.871111590E-1,2.091930645E0
1.491201500E1,6.217242077E-2,1.671634755E0,-1.232050438E0,2.077540961E0
1.492198600E1,-1.511008233E-2,1.050844640E0,-1.255453334E0,1.637273907E0
1.493195600E1,-5.024139650E-2,8.690403798E-1,-1.460622776E0,1.700345339E0
1.494192700E1,-7.149395695E-1,-2.273719043E-2,-6.348637784E-1,9.564034634E-1
1.495189775E1,-8.175357655E-1,-1.536852926E-2,-4.165977430E-1,9.176898163E-1
1.496186875E1,-4.662552951E-1,-1.529556478E0,7.443295026E-1,1.763792343E0
1.497183975E1,-5.046150763E-1,-1.527525448E0,1.329788986E0,2.087177308E0
1.498181075E1,8.883703977E-2,-7.014246807E-1,3.742563003E-1,7.999727374E-1
1.499178175E1,4.590477978E-1,7.403452098E-3,5.145789510E-1,6.896166968E-1
1.500175275E1,1.074275603E0,1.274809957E-2,4.030093986E-1,1.147452465E0
1.501172375E1,6.913872041E-1,-1.734683820E0,-8.159497082E-2,1.869171463E0
1.502169475E1,4.281527913E-1,-1.937581618E0,-4.368162453E-1,2.031833106E0
1.503166575E1,2.003393492E-1,-1.417993942E0,-2.010763907E-1,1.446123919E0
1.504163675E1,-3.597226073E-1,-6.367044818E-1,1.166560453E0,1.376828327E0
1.505160775E1,1.531024714E-1,-3.939827594E-1,8.416417891E-1,9.418193471E-1
1.506157875E1,1.343340786E-1,-9.296625575E-1,1.205436836E0,1.528200275E0
1.507154975E1,3.199856606E-1,-9.607033789E-1,1.473331699E0,1.787749451E0
1.508152075E1,6.377735721E-1,-7.556912273E-1,1.036823017E0,1.432768763E0
1.509149175E1,1.280723830E0,-6.376075843E-1,3.096165007E-1,1.463782545E0
1.510146275E1,1.323313195E0,-1.369292775E0,8.314682186E-1,2.077849830E0
1.511143375E1,1.219158351E0,-1.151400962E0,7.309808940E-1,1.829317995E0
1.512140475E1,8.228486918E-1,-9.807128432E-1,4.960339218E-1,1.372926547E0
1.513137575E1,8.730561014E-1,-1.165025559E-1,2.246950489E-1,9.090036670E-1
1.514134675E1,2.954656541E-1,1.387959427E-1,4.733490640E-1,5.749987851E-1
1.515131775E1,4.011415055E-1,-2.409769133E-1,2.254458314E-1,5.194325780E-1
1.516128875E1,4.579654782E-1,-5.677900752E-1,-2.222111517E-1,7.625586828E-1
1.517125975E1,9.534301735E-2,-2.891658640E-1,-5.698889333E-1,6.461273746E-1
1.518123075E1,-4.668614320E-2,-8.437181354E-2,-7.545638841E-1,7.607002393E-1
1.519120175E1,1.667299191E-1,-6.715030164E-2,-8.157742918E-1,8.353416810E-1
1.520117275E1,2.207684974E-1,1.440914735E-1,-7.018600059E-1,7.497389879E-1
1.521114275E1,2.965885388E-1,8.044330323E-1,-4.194745731E-1,9.544821540E-1
1.522111375E1,2.195351735E-1,9.671043259E-1,-4.196850729E-1,1.076857479E0
1.523108475E1,4.088906743E-1,7.934019676E-1,-6.090132380E-1,1.080544025E0
1.524105575E1,1.521250362E-1,9.379056698E-1,-5.255869192E-1,1.085841002E0
1.525102675E1,2.824124030E-1,6.186181667E-1,-1.763619643E-1,7.025302442E-1
1.526099775E1,-1.283691146E-1,4.128710201E-1,2.905732888E-1,5.209356438E-1
1.527096875E1,-5.770348886E-1,2.682839951E-1,6.249679506E-2,6.394148998E-1
1.528093975E1,-3.347859867E-1,1.288919288E-1,-1.255824047E-1,3.800864725E-1
1.529091075E1,-6.237473443E-1,-8.522229105E-2,2.316409564E-1,6.708063216E-1
1.530088175E1,-1.581560006E-1,-3.420913517E-2,2.655700099E-1,3.109839476E-1
1.531085275E1,1.253537055E-1,2.146808150E-1,2.478260493E-1,3.510258602E-1
1.532082375E1,1.972081652E-1,-2.770214894E-1,-1.263863969E-1,3.627747061E-1
1.533079475E1,-5.835185006E-2,-5.159097773E-1,-7.012992579E-1,8.725757765E-1
1.534076575E1,-3.767440713E-1,-1.442617444E0,-2.147547823E-1,1.506386671E0
1.535073675E1,-8.463516482E-1,-1.700448372E0,6.645828366E-1,2.012338472E0
1.536070775E1,-9.245529681E-1,-1.144001603E0,1.348384886E0,1.995414659E0
1.537067875E1,-8.115237314E-1,-1.852590877E-1,1.854895849E0,2.033108533E0
1.538064975E1,-9.936148708E-1,3.434072676E-1,8.343421251E-1,1.342134809E0
1.539062075E1,-3.896509228E-1,-4.943984556E-1,2.491340715E-1,6.769973856E-1
1.540059175E1,-3.839096148E-1,-9.679664978E-1,3.748035997E-1,1.106717431E0
1.541056275E1,-2.707048155E-1,-7.397756910E-1,3.727249146E-1,8.714774995E-1
1.542053375E1,3.706719571E-1,-4.395112270E-1,6.935937971E-1,9.009107469E-1
1.543050475E1,-8.358828664E-2,-1.330411130E-1,4.412648070E-1,4.684032123E-1
1.544047575E1,-4.916923642E-2,-3.137288475E-1,2.714008534E-1,4.177341580E-1
1.545044675E1,-2.577242891E-1,-6.497314936E-1,-1.048288822E-1,7.067969422E-1
1.546041775E1,-3.109951280E-2,-9.559408218E-2,-7.141695642E-1,7.212097994E-1
1.547038775E1,-1.216955412E-1,-5.646884197E-1,-7.469835538E-1,9.442813382E-1
1.548035875E1,-5.055283383E-2,-1.251195684E0,-2.619084835E-1,1.279313207E0
1.549032975E1,7.363420598E-2,-1.229383523E0,3.840509713E-2,1.232185373E0
1.550030075E1,1.956259087E-3,-8.760754573E-1,1.245977336E-1,8.848935694E-1
1.551027175E1,-4.140287688E-1,-3.985418335E-1,3.301864207E-1,6.627808739E-1
1.552024275E1,-4.702458736E-1,-3.157908681E-1,-4.139331669E-1,7.015666188E-1
1.553021375E1,-8.706731417E-1,-9.916585386E-3,-1.023705373E0,1.343928104E0
1.554018475E1,-9.710390635E-1,1.965249181E-1,-5.386250407E-1,1.127677188E0
1.555015575E1,-7.886342941E-1,-3.513121185E-1,5.761015999E-1,1.037910067E0
1.556012675E1,-8.874333814E-1,-9.847453755E-1,1.101751084E0,1.723692813E0
1.557009775E1,-3.066784211E-1,-1.038918659E-1,5.718167603E-2,3.288083299E-1
1.558006875E1,-5.283478282E-1,4.629606083E-1,3.835755926E-1,8.003837753E-1
1.559003975E1,-2.975122527E-1,6.542318031E-1,7.143917584E-1,1.013355010E0
1.560001075E1,2.272264548E-2,3.711751100E-1,1.526006341E-2,3.721829530E-1
1.560998175E1,1.032396090E-1,3.009982896E-1,-4.460104072E-1,5.478901993E-1
1.561995275E1,2.714556710E-1,1.009987221E0,-4.351486194E-1,1.132747407E0
1.562992375E1,1.140198281E-1,1.523091212E0,-4.064189100E-1,1.580501088E0
1.563989475E1,1.239106858E-1,1.457856458E0,-1.708006775E-1,1.473048601E0
1.564986575E1,3.034911769E-1,8.781947806E-1,-2.720715290E-1,9.681714126E-1
1.565983675E1,3.529678307E-1,8.673938039E-1,6.393655497E-1,1.133907671E0
1.566980775E1,-2.111184720E-1,4.132285774E-1,1.018584967E0,1.119305231E0
1.567977875E1,-8.665456653E-2,3.993990353E-1,3.896450025E-1,5.646696656E-1
1.568974975E1,-1.427892255E-1,-8.196276069E-2,-3.015362334E-1,3.435560466E-1
1.569972075E1,5.284516894E-1,-6.280698985E-1,-7.239145339E-1,1.094433752E0
1.570969175E1,3.316808228E-1,-1.133576017E0,-5.149028867E-1,1.288460996E0
1.571966175E1,5.370785252E-1,-8.727010292E-1,-1.739230907E-1,1.039379464E0
1.572963275E1,6.000828586E-1,-8.048323971E-1,-3.141024846E-1,1.051910165E0
1.573960375E1,4.573762250E-1,-8.897123337E-1,1.815946376E-1,1.016738737E0
1.574957475E1,5.055566972E-1,-1.992001362E0,1.313681077E0,2.439142261E0
1.575954575E1,1.629310562E-1,-2.082354292E0,9.663447726E-1,2.301427415E0
1.576951675E1,-4.679161236E-2,-8.879830196E-1,1.016132060E0,1.350269477E0
1.577948775E1,-8.711071513E-1,-9.995756686E-2,4.408063853E-1,9.813915903E-1
1.578945875E1,-6.677898882E-1,-2.458666474E-1,-2.047420102E-1,7.404816229E-1
1.579942975E1,-2.144934849E-1,-8.781442022E-1,-4.387288696E-1,1.004802327E0
1.580940075E1,8.717175275E-3,-6.648056155E-1,-2.027381694E-1,6.950865133E-1
1.581937175E1,6.357187875E-2,-5.215815765E-1,1.948251325E-1,5.603976775E-1
1.582934275E1,-2.034611776E-2,-5.344486669E-1,1.046853915E0,1.175564742E0
1.583931375E1,4.711249293E-1,-5.330374414E-1,7.990898466E-1,1.069874851E0
1.584928475E1,3.904046289E-1,-3.411964354E-1,-1.879318500E-1,5.514972004E-1
1.585925575E1,3.813909998E-1,-7.636951885E-1,-1.121343935E-1,8.609666415E-1
1.586922675E1,2.575244605E-1,-1.350892757E0,-3.824342161E-1,1.427405345E0
1.587919775E1,2.229487049E-1,-9.892687815E-1,-2.717639655E-1,1.049864039E0
1.588916875E1,-5.205719816E-1,-3.121413285E-1,2.802453518E-2,6.076288106E-1
1.589913975E1,-2.654614710E-1,3.840831310E-2,1.322302212E0,1.349232422E0
1.590911075E1,-4.345565888E-1,-2.692768523E-1,2.167568105E0,2.227038603E0
1.591908175E1,-7.223021641E-1,3.911687869E-1,4.356491411E-1,9.297976179E-1
1.592905275E1,-5.496754012E-1,6.678362274E-1,-3.919178152E-1,9.496040476E-1
1.593902375E1,-6.449559264E-1,6.288677511E-1,-1.162322391E0,1.470522403E0
1.594899338E1,-5.933494974E-1,1.344590628E-1,-1.819342439E0,1.918371647E0
1.595896437E1,-6.824669842E-1,5.576086110E-1,-2.001049343E0,2.186523959E0
1.596893537E1,-1.260081697E0,5.681289214E-1,-1.197099291E0,1.828557647E0
1.597890637E1,-9.513294151E-1,1.054048330E-2,5.830977935E-1,1.115859218E0
1.598887737E1,-1.587976887E0,4.194178551E-1,1.426475621E0,2.175411370E0
1.599884837E1,-1.952213106E0,9.705831268E-1,4.454748023E-1,2.225222554E0
1.600881937E1,-9.363022902E-1,1.459895090E0,9.320216167E-1,1.968913392E0
1.601879037E1,-5.068386993E-1,1.340779413E0,4.267847621E-1,1.495566827E0
1.602876137E1,-7.205675876E-1,4.259079722E-1,-1.242981808E0,1.498538963E0
1.603873237E1,-2.358366260E-1,2.556306204E-1,-3.084789834E0,3.104334751E0
1.604870337E1,2.843131135E-1,-2.383930287E-1,-4.527538256E0,4.542715910E0
1.605867437E1,-1.685324695E-1,-9.937872174E-1,-3.055577729E0,3.217541218E0
1.606864537E1,-8.146560118E-2,-2.336406749E0,-7.523173839E-1,2.455893847E0
1.607861637E1,1.306411234E-1,-2.162363206E0,2.354584281E0,3.199523226E0
1.608858737E1,-8.190987993E-1,-1.411989144E0,4.896974112E0,5.161878693E0
1.609855837E1,-5.202070422E-1,4.405146092E-2,3.916295475E0,3.950939906E0
1.610852937E1,-4.600081299E-1,-3.387324187E-1,2.722638440E0,2.781925089E0
