"Time (s)","Linear Acceleration x (m/s^2)","Linear Acceleration y (m/s^2)","Linear Acceleration z (m/s^2)","Absolute acceleration (m/s^2)"
7.034791633E-3,-6.386755051E-1,-7.372888702E-1,3.785195053E-1,1.046316537E0
1.700579165E-2,-4.153548443E-1,-8.802521235E-1,4.298235601E-1,1.064007397E0
2.697579161E-2,-3.081804246E-2,-1.047597097E0,1.110402625E0,1.526893388E0
3.694579162E-2,-2.302132673E-1,-1.352334096E0,7.056343836E-1,1.542635906E0
4.691679165E-2,-2.763715349E-1,-1.297179357E0,1.491545191E0,1.995936514E0
5.688679166E-2,-2.648115713E-1,1.205982381E-1,2.007267272E-1,3.534972735E-1
6.685679161E-2,-9.440435652E-1,-6.667942536E-1,1.880862164E-1,1.170986445E0
7.682779164E-2,-3.409443108E-1,-1.104111313E0,1.837370574E-2,1.155699964E0
8.679779165E-2,8.668042218E-2,-1.158455628E0,7.915551245E-2,1.164387621E0
9.676779166E-2,-4.511053055E-1,-4.823605004E-1,6.693641049E-1,9.403275780E-1
1.067387916E-1,-1.449674230E-1,3.211694294E-1,6.036519259E-1,6.989713898E-1
1.167087916E-1,-6.110590691E-2,1.133768098E0,-6.760047877E-1,1.321418369E0
1.266787917E-1,9.483491259E-2,6.421409306E-1,-5.099707603E-1,8.254749008E-1
1.366497916E-1,8.336765657E-1,5.538076285E-1,-1.201000553E-1,1.008039448E0
1.466197916E-1,6.865961418E-1,3.120547897E-1,-2.162943542E-1,7.845863249E-1
1.565897916E-1,1.087302761E0,3.532574871E-1,-4.507425588E-1,1.228896660E0
1.665607917E-1,7.011861143E-1,6.169052249E-1,-5.942630517E-1,1.106970008E0
1.765307916E-1,7.626788693E-1,1.481424245E-1,4.136864144E-1,8.802054789E-1
1.865007916E-1,-8.535358845E-2,-3.003819931E-1,8.293491876E-1,8.861910922E-1
1.964717917E-1,-5.735591209E-1,-1.531415015E-2,3.854034323E-1,6.911876692E-1
2.064417916E-1,-1.140103264E0,3.503718862E-1,-1.921032536E-1,1.208097501E0
2.164117916E-1,-1.055079559E0,4.988926256E-1,-2.852359504E-1,1.201435090E0
2.263817916E-1,-8.326725257E-1,3.628717715E-1,-5.887087816E-1,1.082403569E0
2.363527917E-1,-6.797764610E-1,5.539541012E-1,-7.982835156E-1,1.185840527E0
2.463227916E-1,-4.031577717E-1,2.859724072E-1,-1.396532030E0,1.481424354E0
2.562927916E-1,-3.927221363E-1,6.246826065E-1,-9.191150576E-1,1.178656661E0
2.662637917E-1,5.162040293E-2,4.137986809E-2,6.972044528E-2,9.611399467E-2
2.762337917E-1,-3.448606296E-1,7.239616039E-1,6.097324455E-1,1.007384193E0
2.862037916E-1,-7.801741771E-1,6.261356395E-1,7.066763574E-1,1.224789394E0
2.961747916E-1,-1.146577301E0,6.565315130E-1,-1.086775196E-1,1.325701301E0
3.061447917E-1,-8.597916926E-1,1.372373381E0,-8.049738997E-1,1.808489268E0
3.161147916E-1,-7.226322395E-1,5.661639646E-1,-5.487430626E-1,1.069512944E0
3.260857916E-1,-2.364295702E-1,4.598077896E-1,-4.883705610E-1,7.112158251E-1
3.360557916E-1,-3.439941088E-1,1.100800035E0,-1.115655178E0,1.604611835E0
3.460257917E-1,-1.030003921E0,2.745682901E-1,-8.105591601E-1,1.339142254E0
3.559967916E-1,-1.212063339E0,-1.913460392E-1,-6.470183855E-1,1.387207135E0
3.659667916E-1,-7.539055607E-1,-9.527979434E-2,-2.526336300E-1,8.007968436E-1
3.759367917E-1,-8.897202274E-1,-9.310960025E-1,-5.882298946E-3,1.287857310E0
3.859077916E-1,-9.521630088E-1,-9.907636222E-1,8.956267923E-1,1.640236051E0
3.958777916E-1,-2.981595029E-1,-9.721004793E-1,4.805721295E-1,1.124645723E0
4.058477916E-1,-3.014846866E-1,-1.403356900E0,6.167485195E-1,1.562268332E0
4.158187917E-1,-3.534373986E-1,-1.423582419E0,4.590035051E-1,1.536941481E0
4.257887916E-1,-6.129183375E-1,-1.245334435E0,9.290266728E-1,1.670214747E0
4.357587916E-1,-9.305163972E-1,-1.425363480E0,1.006176590E0,1.977350032E0
4.457287916E-1,-1.176547132E0,-1.015471324E-1,5.835608929E-1,1.317238889E0
4.556997917E-1,-1.011311615E0,-6.020071042E-1,8.274207759E-1,1.438676085E0
4.656697916E-1,-1.395881965E0,-1.712164146E-1,2.598508483E-1,1.430148239E0
4.756397916E-1,-5.894925643E-1,-1.865141925E-1,6.664714873E-1,9.091057533E-1
4.856107917E-1,-4.996981526E-1,2.226356596E-2,2.892980111E-1,5.778297754E-1
4.955807916E-1,-1.981934759E-1,3.652261528E-1,-1.293047422E-1,4.351902032E-1
5.055507916E-1,1.370149721E-1,-2.922338980E-1,-4.331862938E-1,5.402074777E-1
5.155217916E-1,-4.371657992E-2,-1.395843520E0,1.225798595E-1,1.401897319E0
5.254917917E-1,-2.047618177E-2,-8.166844109E-1,-6.142739779E-1,1.022118007E0
5.354617916E-1,-8.335356478E-1,-8.144689009E-1,6.066486239E-3,1.165408971E0
5.454327916E-1,-6.968924307E-1,-6.320790419E-1,1.233610475E-1,9.488945796E-1
5.554027917E-1,-6.251752344E-1,-2.492153478E-1,3.793907404E-1,7.725863687E-1
5.653727917E-1,-1.372581615E-1,-4.334248602E-3,1.223808787E0,1.231489560E0
5.753437916E-1,-7.428266951E-1,3.574946719E-1,4.619499171E-1,9.449823624E-1
5.853137916E-1,-4.949212332E-1,6.905222547E-1,7.535891533E-1,1.135634018E0
5.952837917E-1,-3.286247025E-1,1.052516359E-1,8.213116050E-2,3.547078086E-1
6.052547916E-1,3.607556641E-2,1.716391683E-2,-9.502444643E-1,9.510839019E-1
6.152247916E-1,9.531984776E-3,4.553159586E-1,-1.720044438E0,1.779313449E0
6.251947916E-1,1.013258153E-1,1.226222226E0,-2.020262709E0,2.365449066E0
6.351657917E-1,3.685425474E-1,6.798256508E-1,-1.705166198E0,1.872318960E0
6.451357916E-1,7.875605626E-2,1.970806959E-1,4.370840478E-1,4.858865937E-1
6.551057916E-1,2.953314788E-1,1.571500602E-1,1.472490869E0,1.510015292E0
6.650767917E-1,8.078092877E-3,6.757963344E-1,1.277223102E0,1.445013770E0
6.750467916E-1,-3.541305130E-1,1.050854288E0,1.180614821E0,1.619739025E0
6.850167916E-1,2.071460016E-1,4.965812212E-1,2.371630669E-1,5.880039928E-1
6.949877916E-1,6.610436266E-2,2.999279568E-1,-1.117074882E0,1.158526158E0
7.049577917E-1,3.777911615E-1,-1.517378774E-1,-1.870775133E0,1.914562650E0
7.149277916E-1,4.900491139E-1,-2.169860798E-1,-1.217366910E0,1.330117772E0
7.248977916E-1,1.695837075E-1,1.105036050E-1,6.060603940E-1,6.389670428E-1
7.348687917E-1,-4.013949092E-1,2.795866629E-1,5.954833657E-1,7.706406517E-1
7.448387917E-1,-1.557567784E-1,8.353612947E-1,-3.038084614E-1,9.024346226E-1
7.548087916E-1,-2.901020215E-1,4.516661265E-1,-3.558527738E-1,6.440439964E-1
7.647809166E-1,2.194954307E-1,-3.814428207E-1,-4.194734037E-1,6.079759913E-1
7.747509166E-1,2.401743829E-4,-4.660625562E-1,5.832504058E-1,7.465891774E-1
7.847209167E-1,-3.644246092E-2,6.843312228E-1,8.573889256E-1,1.097612429E0
7.946919166E-1,2.003898363E-1,1.145052347E0,4.111580783E-1,1.233025519E0
8.046619166E-1,-6.849379079E-2,-4.572809154E-1,-2.748705912E-1,5.379136332E-1
8.146319166E-1,2.590550605E-1,2.161820877E-1,-9.537954783E-1,1.011716380E0
8.246029167E-1,-5.528041732E-1,-6.114570817E-1,-8.150346190E-1,1.159203885E0
8.345729166E-1,-4.487035616E-1,-8.155898121E-1,-7.211102092E-1,1.177506502E0
8.445429166E-1,-7.026792739E-1,-4.679517916E-1,6.174075007E-3,8.442601260E-1
8.545139167E-1,-1.612943291E-1,-4.550420165E-1,2.302703691E-1,5.348864742E-1
8.644839167E-1,-8.329368199E-1,-3.041136861E-1,4.203703666E-1,9.813155074E-1
8.744539166E-1,3.284724921E-1,-4.723795956E-1,1.451684137E0,1.561545226E0
8.844249166E-1,1.371223234E-2,-6.790315989E-1,1.715812808E0,1.845341576E0
8.943949167E-1,-6.198589459E-2,-5.821511292E-1,6.992369449E-1,9.119618926E-1
9.043649166E-1,-6.022885014E-1,-8.833488089E-1,6.261566895E-1,1.239003130E0
9.143359166E-1,-6.467760915E-1,-5.216733778E-1,-1.210139751E-2,8.310288018E-1
9.243059166E-1,-7.583204278E-1,-6.557997340E-1,3.411002487E-1,1.058996007E0
9.342759167E-1,-1.013634860E0,1.639766845E-1,-2.373086625E-1,1.053878259E0
9.442469166E-1,-5.226821321E-1,6.148285863E-1,4.640291870E-1,9.308780200E-1
9.542169166E-1,-3.172572767E-1,-1.328923014E-1,-4.126906335E-2,3.464327914E-1
9.641869167E-1,2.110741793E-1,-1.010397695E0,-6.408957660E-1,1.214991027E0
9.741569167E-1,-5.614585640E-1,-1.132471478E0,-5.918504906E-1,1.395712854E0
9.841279166E-1,-4.213366555E-2,-2.989456245E-1,4.429195690E-1,5.360237652E-1
9.940979166E-1,-5.985633865E-2,2.603800213E-1,9.744314718E-1,1.010394591E0
1.004067917E0,3.599272598E-1,-1.960743901E-1,1.337103269E0,1.398512763E0
1.014038917E0,3.029986221E-1,1.183827281E-2,3.694563210E-2,3.054722400E-1
1.024008917E0,5.812091793E-1,-3.407488310E-1,1.974856156E-1,7.020786597E-1
1.033978917E0,9.812561227E-1,-1.831611067E-2,1.601154757E-1,9.944023450E-1
1.043949917E0,8.534614970E-1,4.915011603E-1,2.084690255E-1,1.006692233E0
1.053919917E0,6.900066034E-1,4.713382065E-1,-1.604721558E-1,8.508937245E-1
1.063889917E0,1.037187335E-2,1.198285399E0,-1.660212219E0,2.047510705E0
1.073860917E0,-4.305447776E-1,-1.555944085E-3,-1.708197979E0,1.761621856E0
1.083830917E0,-1.006559875E0,-1.034643175E0,-9.401071465E-1,1.722629017E0
1.093800917E0,-1.054850568E0,-7.789116901E-1,-3.060356659E-1,1.346503238E0
1.103771917E0,-7.573063745E-1,5.957114071E-1,-9.846652687E-2,9.685456531E-1
1.113741917E0,-6.916367340E-1,7.021462271E-1,1.026044260E0,1.422721870E0
1.123711917E0,-3.825039807E-1,2.985743263E-1,9.250517356E-1,1.044594006E0
1.133682917E0,-3.918704528E-1,-6.547858268E-2,-2.913375199E-2,3.983700190E-1
1.143652917E0,-2.633458479E-2,1.066397064E0,-3.592213547E-1,1.125582601E0
1.153622917E0,1.110682907E-1,7.736538738E-1,-5.189462364E-1,9.381799816E-1
1.163593917E0,-1.849253761E-1,1.244863442E-1,-8.916308051E-1,9.190754796E-1
1.173563917E0,-3.905963445E-1,-7.079104123E-1,-7.752419776E-1,1.120135161E0
1.183533917E0,-1.527509806E-1,4.081318519E-1,-5.913043606E-1,7.345374854E-1
1.193503917E0,-1.255467002E-1,5.796277633E-1,3.213337362E-2,5.939384410E-1
1.203474917E0,1.218386701E-1,1.025223018E0,-6.295580149E-2,1.034355032E0
1.213444917E0,-5.009394617E-2,5.112673804E-1,1.149550903E-1,5.264203743E-1
1.223414917E0,-4.578381916E-1,6.931055546E-2,7.648158073E-4,4.630554478E-1
1.233385917E0,-2.343284098E-1,3.456175151E-1,-1.796475148E-1,4.545706766E-1
1.243355917E0,-7.675417793E-1,1.572351372E-1,-1.670549512E-1,8.010933953E-1
1.253325917E0,-6.446336717E-1,-3.253732851E-1,2.870421553E-1,7.770544024E-1
1.263296917E0,-4.428648975E-1,-8.240542415E-1,2.667780447E-1,9.728130527E-1
1.273266917E0,2.586817341E-3,-7.722917649E-1,1.154547933E0,1.389036426E0
1.283236917E0,2.219904193E-1,-5.286248401E-1,8.173015845E-1,9.983515652E-1
1.293207917E0,6.016505702E-1,-9.186458185E-1,1.098977165E0,1.553590795E0
1.303177917E0,3.120482115E-1,-5.817394853E-2,1.067467690E-2,3.176039095E-1
1.313147917E0,7.383002193E-1,-2.127570811E-1,4.076006323E-1,8.697649480E-1
1.323118917E0,3.925212479E-1,-6.585660517E-2,-3.592815810E-1,5.361839954E-1
1.333088917E0,1.755525818E-1,-7.834657940E-1,-1.307326323E-1,8.134668896E-1
1.343058917E0,1.278305587E-1,-8.944170034E-1,-6.960969901E-1,1.140558393E0
1.353029917E0,1.721511651E-2,-4.348878336E-1,1.155187619E-1,4.502980928E-1
1.362999917E0,3.700850429E-1,-7.124732870E-1,9.955042523E-1,1.278909629E0
1.372969917E0,-1.554256798E-1,-3.178411943E-1,5.403178096E-1,6.458509906E-1
1.382940917E0,3.569736485E-1,1.959510139E-1,9.561717868E-1,1.039274493E0
1.392910917E0,2.429732806E-1,5.280936205E-1,3.679459852E-1,6.879703011E-1
1.402880917E0,3.528452584E-1,2.505292171E-1,-2.215866691E-1,4.861741632E-1
1.412851917E0,1.656688322E-1,-4.739919654E-1,-1.205868945E0,1.306229099E0
1.422821917E0,1.624577606E-1,-5.244467121E-1,-1.147830067E0,1.272379952E0
1.432791917E0,-1.079127768E-1,-8.190320680E-1,-1.479404032E-2,8.262430389E-1
1.442761917E0,1.795282316E-1,-1.788490775E-1,-1.593459821E-1,2.993468231E-1
1.452732917E0,-4.555291627E-1,-2.714745283E-1,2.759856552E-1,5.978070922E-1
1.462702917E0,-1.882056276E-1,-9.631793824E-1,1.152340609E0,1.513613148E0
1.472672917E0,-3.666814517E-1,-5.266607603E-1,1.021486355E0,1.206342081E0
1.482643917E0,-6.694852884E-1,-5.840491354E-2,8.110310304E-1,1.053277275E0
1.492613917E0,-6.578127842E-1,1.221834183E-2,9.285448623E-1,1.138008132E0
1.502583917E0,-3.629795064E-1,-1.147235405E-1,5.609935641E-1,6.779597273E-1
1.512554917E0,-3.993450216E-1,-7.932733288E-1,2.917012167E-1,9.347987058E-1
1.522524917E0,-5.828039709E-1,-1.522936553E-1,-3.297730225E-1,6.867343535E-1
1.532494917E0,-4.402503882E-1,-1.645549741E-1,-3.750035745E-1,6.012706750E-1
1.542465917E0,1.544041347E-1,-4.617932117E-1,-7.801051068E-1,9.195964250E-1
1.552435917E0,7.560856220E-1,-4.793605864E-1,-8.513054824E-1,1.235383772E0
1.562405917E0,6.543837576E-1,-4.838147029E-1,-3.526280344E-2,8.145785624E-1
1.572376917E0,7.204162178E-1,1.205602312E-1,-1.182868338E-1,7.399500465E-1
1.582346917E0,3.889613168E-1,5.176920086E-1,-5.070261025E-1,8.224180144E-1
1.592316917E0,2.699177254E-1,7.550784391E-1,-2.557203752E-1,8.416602272E-1
1.602287917E0,-2.802996213E-2,2.385681528E-1,-9.127790147E-1,9.438569659E-1
1.612257917E0,-4.824668466E-1,6.214049497E-1,-1.110961034E0,1.361305545E0
1.622227917E0,-1.161328200E-1,1.266286178E0,-6.710516113E-1,1.437803109E0
1.632198917E0,-6.485186349E-1,1.522991517E0,-7.490751028E-2,1.657012587E0
1.642168917E0,-6.882656680E-1,1.276001327E0,1.529491282E-1,1.457834851E0
1.652138917E0,-3.027048543E-1,1.239931315E0,-2.282583421E-1,1.296596223E0
1.662108917E0,1.756466671E-1,1.232341045E0,3.455236673E-2,1.245275097E0
1.672079917E0,6.985832993E-2,1.012989181E0,1.446203542E-1,1.025642391E0
1.682049917E0,3.418750961E-2,7.469554871E-1,6.571767533E-1,9.954860977E-1
1.692019917E0,-2.185988150E-1,7.142827079E-1,1.187670071E0,1.403048619E0
1.701990917E0,1.226358466E-1,1.316215845E0,-1.997338700E-1,1.336920835E0
1.711960917E0,6.511828456E-1,6.196285656E-1,-7.302611017E-1,1.158127771E0
1.721930917E0,5.813173163E-1,-5.709066412E-1,-5.907594001E-1,1.006409899E0
1.731901917E0,5.669980333E-1,-1.240813368E0,-5.932146460E-1,1.487618298E0
1.741871917E0,7.114685526E-2,-1.445569996E0,-3.598844290E-2,1.447767128E0
1.751841917E0,-1.929487975E-1,-1.323278989E0,1.045679210E0,1.697569301E0
1.761812167E0,-2.190152829E-1,-1.106403714E0,1.291428913E0,1.714609433E0
1.771782167E0,-7.062898382E-2,-3.622578138E-1,8.772799838E-1,9.517559282E-1
1.781752167E0,-1.156185848E-1,-7.879672730E-1,7.899506485E-1,1.121731745E0
1.791723167E0,1.575009297E-1,-6.576857534E-1,3.156748009E-1,7.463294668E-1
1.801693167E0,2.537372737E-1,-4.365300241E-1,-4.059827077E-1,6.478912139E-1
1.811663167E0,6.021967001E-1,-1.060535523E0,-6.186453563E-1,1.367515462E0
1.821634167E0,5.624107830E-4,-8.432907039E-1,-2.502245772E-1,8.796316653E-1
1.831604167E0,4.592720019E-1,-5.183205843E-1,-5.637318152E-1,8.929616786E-1
1.841574167E0,-5.002183355E-2,-5.007745519E-1,6.357402760E-1,8.108286096E-1
1.851544167E0,-2.104047462E-2,-5.133630225E-1,2.730626321E-1,5.818483441E-1
1.861515167E0,-2.099407879E-1,-2.411476520E-1,3.627869868E-1,4.835718378E-1
1.871485167E0,-1.880201977E-1,-1.776006970E-1,8.360758245E-2,2.718158019E-1
1.881455167E0,4.878868501E-1,8.731471717E-2,3.715788603E-1,6.194580597E-1
1.891426167E0,5.268608082E-1,-4.837366426E-1,4.713709509E-1,8.566061079E-1
1.901396167E0,4.493947025E-1,-6.117193294E-1,1.595640832E-1,7.756396285E-1
1.911366167E0,6.495723762E-1,-6.611148530E-1,3.367370564E-1,9.861079890E-1
1.921337167E0,1.086676670E0,-4.907916006E-1,5.232299066E-1,1.302118319E0
1.931307167E0,1.141030486E0,-3.359777954E-1,-1.609574747E-1,1.200307860E0
1.941277167E0,1.251451499E0,-7.461456478E-2,4.268455732E-1,1.324347134E0
1.951248167E0,9.965805785E-1,-5.343478024E-2,4.040876251E-1,1.076714881E0
1.961218167E0,1.076533724E0,2.001946306E-1,-1.043213439E-1,1.099948041E0
1.971188167E0,2.527237137E-1,2.226587561E-1,-6.829957187E-2,3.436728512E-1
1.981159167E0,5.104421556E-1,8.090207577E-3,-2.229601800E-2,5.109929139E-1
1.991129167E0,-7.462647848E-2,9.776369154E-2,-1.227410672E0,1.233557380E0
2.001099167E0,-2.646608045E-1,-2.540433937E-1,-8.847340143E-1,9.577774602E-1
2.011069167E0,-2.878807922E-1,-3.709532082E-2,-5.358014202E-1,6.093722797E-1
2.021040167E0,-1.987488335E-1,3.507393837E-1,7.760892391E-2,4.105391079E-1
2.031010167E0,4.198476255E-2,3.962371534E-1,2.430728477E-1,4.667451246E-1
2.040980167E0,7.487448813E-1,8.602195626E-1,7.725949430E-1,1.377497564E0
2.050951167E0,7.385453638E-1,8.774995467E-1,1.933019328E-1,1.163108054E0
2.060921167E0,1.047777191E0,5.686265194E-1,-1.255707103E-1,1.198724807E0
2.070891167E0,7.444404535E-1,5.365311527E-1,-7.345588052E-1,1.175429243E0
2.080862167E0,6.386644685E-1,8.366777954E-1,-4.907345903E-1,1.161353725E0
2.090832167E0,7.350912673E-1,9.581393749E-1,-5.612894332E-1,1.331704194E0
2.100802167E0,8.151860619E-1,7.824802458E-1,-1.128682190E-1,1.135580418E0
2.110773167E0,6.064737922E-1,3.434938064E-1,6.296866536E-3,6.970208793E-1
2.120743167E0,5.053879320E-1,4.387259459E-1,4.071650147E-2,6.704888149E-1
2.130713167E0,3.348725620E-1,-3.892754585E-2,-5.037013757E-1,6.061106026E-1
2.140684167E0,1.804800487E-1,-5.497742191E-1,3.486145055E-1,6.755418665E-1
2.150654167E0,2.642038080E-1,-6.397359708E-1,5.332280606E-1,8.737264613E-1
2.160624167E0,5.799143500E-1,-2.358123600E-1,1.382555430E0,1.517684960E0
2.170594167E0,9.518708673E-1,-3.865386692E-1,1.098374317E0,1.503960249E0
2.180565167E0,7.894360936E-1,4.765714645E-2,1.443724322E-1,8.039427521E-1
2.190535167E0,6.942230306E-1,-4.352331117E-1,-3.121758270E-1,8.768279333E-1
2.200505167E0,1.656297655E-1,-6.719573450E-1,-1.754094529E-1,7.139526377E-1
2.210476167E0,3.373652666E-1,-3.368545854E-1,-2.270748657E-1,5.280618614E-1
2.220446167E0,-4.304740994E-1,-2.587948412E-2,-7.793753743E-2,4.382373303E-1
2.230416167E0,-1.667652947E-1,-3.391355842E-1,5.922001541E-2,3.825318526E-1
2.240387167E0,-7.602223809E-1,-5.772681195E-1,1.539466631E-1,9.668899241E-1
2.250357167E0,1.116830250E-1,-3.640602180E-1,4.522236586E-3,3.808324974E-1
2.260327167E0,2.355690062E-1,-6.110653183E-1,7.003771520E-1,9.588648158E-1
2.270298167E0,8.858987796E-1,-4.467410168E-1,3.958342803E-1,1.068212976E0
2.280268167E0,7.453887257E-1,-7.747718614E-1,5.029388988E-1,1.186938636E0
2.290238167E0,6.911807974E-1,-9.335337067E-1,1.586909185E0,1.966595240E0
2.300209167E0,9.511111678E-1,-6.675219396E-1,2.447075538E0,2.708943832E0
2.310179167E0,9.129139392E-1,-3.106342086E-1,1.386650820E0,1.688995550E0
2.320149167E0,1.030516356E0,-5.273328978E-1,7.281479180E-2,1.159890486E0
2.330119167E0,5.757175110E-1,-1.065812343E0,-1.201314549E0,1.706037294E0
2.340090167E0,6.886790662E-1,-1.481531542E0,-2.329049490E0,2.844940437E0
2.350060167E0,2.159915050E-1,-1.325708799E0,-1.609149070E0,2.096071774E0
2.360030167E0,9.716782372E-2,-4.248908490E-1,-1.721220313E0,1.775548700E0
2.370001167E0,-4.902717832E-1,3.352588803E-1,7.647976810E-1,9.683390062E-1
2.379971167E0,-5.658309656E-1,-1.686167425E-1,2.858627134E0,2.918963066E0
2.389941167E0,8.937977102E-2,-4.112291220E-1,2.305589876E0,2.343681465E0
2.399912167E0,-4.313338228E-1,5.275150385E-1,6.355677831E-1,9.318086657E-1
2.409882167E0,-4.287691975E-1,8.038328156E-1,-5.855752587E-2,9.129179613E-1
2.419852167E0,-2.151523930E-1,3.820602867E-1,-4.576089442E-2,4.408567504E-1
2.429823167E0,1.213620672E-1,2.315988564E-1,-1.007961161E0,1.041322468E0
2.439793167E0,2.877873829E-1,-1.696730420E-1,-3.120811021E-1,4.571707922E-1
2.449763167E0,4.140079381E-1,-3.141404915E-1,-4.090583432E-1,6.613739860E-1
2.459733167E0,4.559720527E-1,3.531358650E-1,-4.597051710E-1,7.375257936E-1
2.469704167E0,7.376999295E-1,8.845112354E-2,-7.181234515E-1,1.033308317E0
2.479674167E0,4.455171580E-1,2.042797878E-1,-3.432759976E-1,5.983762866E-1
2.489644167E0,5.139348437E-1,3.474073479E-1,-4.622399390E-2,6.220591182E-1
2.499615167E0,2.901659571E-1,6.982540280E-1,1.087219584E-1,7.639210918E-1
2.509585167E0,3.547445802E-1,2.642073163E-1,9.039906496E-1,1.006403655E0
2.519555167E0,-4.369568709E-1,-1.219129845E-1,8.580338734E-1,9.705751958E-1
2.529526167E0,-1.137447349E-1,1.862317720E-1,5.492096704E-1,5.909749569E-1
2.539496167E0,-5.680669774E-1,7.905777624E-1,-2.129743052E-1,9.965296503E-1
2.549466167E0,4.195105335E-1,1.077581326E0,-1.456008153E0,1.859335995E0
2.559437167E0,2.688873912E-1,1.799760991E0,-1.244816079E0,2.204769177E0
2.569407167E0,5.230759786E-1,2.242010177E0,-1.009742222E0,2.513920736E0
2.579377167E0,-6.378170608E-1,1.931172485E0,-3.666291922E-1,2.066556250E0
2.589347167E0,-5.248310021E-2,1.729436236E0,-2.614097160E-1,1.749868341E0
2.599318167E0,-9.303890741E-1,8.776141521E-1,1.930592734E-1,1.293484562E0
2.609288167E0,-4.599476112E-1,5.251910627E-2,-6.230769610E-1,7.762312548E-1
2.619258167E0,-2.692378952E-1,-7.009466708E-1,-3.685798234E-1,8.364606181E-1
2.629229167E0,9.940174516E-1,-3.048150596E-1,-3.061672282E-1,1.083845601E0
2.639199167E0,3.264479303E-1,-3.347949037E-1,6.604354066E-1,8.092161670E-1
2.649169167E0,7.891089419E-1,-7.736600134E-1,1.575699488E0,1.924596481E0
2.659140167E0,6.706208177E-1,-1.109021512E0,7.143455654E-1,1.479848162E0
2.669110167E0,3.358526650E-1,-8.119060662E-1,-4.549800360E-1,9.894419165E-1
2.679080167E0,-7.586305495E-2,-1.940262859E0,1.075209403E-1,1.944720010E0
2.689051167E0,8.819253042E-2,-1.972174915E0,1.153287274E-1,1.977511703E0
2.699021167E0,-1.782885305E-1,-1.242970698E0,9.481084764E-1,1.573427036E0
2.708991167E0,-6.478633082E-1,-1.280378845E0,1.178634953E0,1.856953744E0
2.718961167E0,-5.494050040E-1,-6.911908838E-1,7.724698126E-1,1.173158262E0
2.728932167E0,-1.458405219E0,-1.058442512E0,7.979227424E-1,1.970768134E0
2.738902167E0,-9.615102947E-1,-1.334743625E0,2.825971019E-1,1.669102667E0
2.748872167E0,-9.118778857E-1,-1.490878316E0,-4.826800507E-1,1.813069073E0
2.758843792E0,-1.040666465E0,-1.370711602E0,-7.546346354E-1,1.879178124E0
2.768813792E0,-7.000086312E-1,-1.263600259E0,1.560592622E-1,1.452946039E0
2.778783792E0,-4.943234285E-1,-4.222201332E-1,8.006066144E-2,6.550077881E-1
2.788754792E0,-6.030262738E-1,6.262660325E-2,1.652013838E-1,6.283743117E-1
2.798724792E0,7.283639726E-1,3.269885784E-1,1.313326151E0,1.536964927E0
2.808694792E0,5.125274554E-2,-6.230398312E-1,1.704358113E0,1.815390330E0
2.818664792E0,6.769384144E-2,-1.865285182E-1,1.414870652E0,1.428717714E0
2.828635792E0,-3.349612935E-1,5.268858781E-1,6.189137435E-1,8.791257126E-1
2.838605792E0,9.640455195E-2,1.189411664E0,5.013946491E-1,1.294368780E0
2.848575792E0,4.076198185E-1,1.953126149E0,-1.150940786E0,2.303371521E0
2.858546792E0,2.804546456E-1,8.653624812E-1,-3.196528371E0,3.323447105E0
2.868516792E0,-1.512825255E-1,-7.190443879E-1,-2.040852510E0,2.169098938E0
2.878486792E0,-1.851633395E-1,-1.487370571E0,5.035505176E-2,1.499697406E0
2.888457792E0,-7.669341074E-1,-1.461555406E-1,-1.838791448E-1,8.020978164E-1
2.898427792E0,-9.036633517E-1,1.463953934E0,1.301970273E-1,1.725317316E0
2.908397792E0,-8.351500641E-1,1.390736269E0,1.041318356E0,1.927684341E0
2.918368792E0,-8.100816619E-1,5.439281729E-1,4.687256706E-1,1.082494300E0
2.928338792E0,-2.579595299E-1,1.633361220E-2,-7.408480704E-1,7.846437213E-1
2.938308792E0,8.248456987E-2,1.080922425E0,-1.042908799E0,1.504279148E0
2.948278792E0,1.272809112E-1,8.425182867E-1,-7.307411581E-1,1.122506184E0
2.958249792E0,-4.720845305E-1,7.909812203E-1,-3.265050137E-1,9.773027263E-1
2.968219792E0,-2.058209860E-1,5.887084892E-1,-6.265642405E-2,6.267900694E-1
2.978189792E0,-2.261706486E-1,7.206181660E-1,7.637457669E-2,7.591289610E-1
2.988160792E0,-6.709898501E-1,3.803780428E-1,-1.113321555E-1,7.793007655E-1
2.998130792E0,-5.497160758E-1,7.137321925E-1,-9.562396145E-1,1.313771520E0
3.008100792E0,-2.635055774E-1,1.046011332E-1,-2.545427459E-1,3.810099682E-1
3.018071792E0,3.920466367E-1,-5.064255935E-1,7.988705760E-1,1.023895329E0
3.028041792E0,4.082233608E-1,-6.850001442E-1,7.377940696E-1,1.086375441E0
3.038011792E0,6.051199790E-1,-9.646941036E-2,6.440047306E-1,8.889424218E-1
3.047981792E0,3.527663210E-1,-1.434862867E0,1.635723495E-1,1.486617448E0
3.057952792E0,4.995449921E-1,-2.682278033E0,9.861685878E-1,2.901153069E0
3.067922792E0,6.673738588E-1,-1.167505363E0,5.443389398E-1,1.450779626E0
3.077892792E0,5.477851425E-1,-9.588486421E-1,1.076600456E0,1.542247653E0
3.087863792E0,5.193434816E-2,7.269287735E-2,3.031921649E-1,3.160805590E-1
3.097833792E0,7.758087189E-1,-2.657597521E-1,2.023048908E-1,8.446506278E-1
3.107803792E0,-1.225718196E-1,-1.806570658E0,-1.471100986E-2,1.810783755E0
3.117774792E0,1.423707110E-1,-3.384786496E-1,-1.046456890E0,1.109012731E0
3.127744792E0,3.223875872E-1,1.177243316E-1,-5.768172991E-1,6.712011406E-1
3.137714792E0,3.830770444E-2,-1.785327432E-1,-4.682783586E-1,5.026191816E-1
3.147684792E0,5.169608508E-1,-9.078182369E-1,1.114812595E-1,1.050623883E0
3.157655792E0,-9.707072340E-3,-3.445036206E-1,5.763313955E-1,6.715168273E-1
3.167625792E0,4.365174891E-1,-2.549035192E-2,1.696814035E0,1.752248597E0
3.177595792E0,-3.415470491E-1,2.493945649E-1,2.901619372E0,2.932276763E0
3.187566792E0,-8.311868213E-1,1.270435070E0,-1.682360888E-1,1.527475100E0
3.197536792E0,1.143352562E0,6.347064883E-2,-7.541949248E-1,1.371165048E0
3.207506792E0,1.766870695E0,-4.743787587E-1,-7.539867640E-1,1.978727698E0
3.217477792E0,-4.045577047E-1,-2.711380211E-1,-9.872497380E-2,4.969198963E-1
3.227447792E0,-1.863521150E-1,2.836355674E-1,-4.331208050E-1,5.502452886E-1
3.237417792E0,-1.291072671E0,-1.664483026E-1,6.044921708E-1,1.435264597E0
3.247387792E0,-1.354001429E0,-1.003538327E0,4.966063643E-1,1.756993718E0
3.257358792E0,-2.480110772E-1,-5.727306801E-1,-1.128927773E-1,6.342512952E-1
3.267328792E0,-3.134848724E-1,-1.611220738E-1,6.532100022E-2,3.584688564E-1
3.277298792E0,-1.805437468E-2,4.226235911E-1,-2.456871378E-1,4.891817964E-1
3.287269792E0,4.606680978E-1,-1.704387349E-1,-4.549835443E-1,6.695330345E-1
3.297239792E0,5.265509058E-1,-1.409495599E0,3.884322900E-1,1.553966970E0
3.307209792E0,3.903709709E-1,-1.090724697E0,1.193956413E0,1.663611065E0
3.317180792E0,7.735174875E-1,1.499459982E-1,-5.621980906E-2,7.899201053E-1
3.327150792E0,8.878785007E-1,1.115444971E0,-1.295134878E-1,1.431544431E0
3.337120792E0,1.330708461E0,6.042805016E-2,-1.675414395E-1,1.342574650E0
3.347090792E0,8.565298965E-1,-1.599649099E-1,-2.265702510E-1,9.003145642E-1
3.357061792E0,1.029191085E0,2.322277245E-1,-9.922648948E-1,1.448362395E0
3.367031792E0,3.238028692E-1,8.334492552E-1,-9.073972374E-1,1.273913539E0
3.377001792E0,9.167261776E-1,1.519817063E0,-1.021861162E0,2.048031011E0
3.386972792E0,6.915611587E-1,-1.864659530E-1,7.543200552E-1,1.040204371E0
3.396942792E0,2.054224800E-1,-9.321169263E-1,7.829503620E-1,1.234524860E0
3.406912792E0,-7.762339577E-1,-1.016465351E-1,3.719975209E-1,8.667487126E-1
3.416883792E0,-5.862720276E-1,1.510214181E0,9.198664248E-2,1.622628517E0
3.426853792E0,-8.175924104E-2,1.673035163E0,1.119271681E0,2.014571996E0
3.436823792E0,8.085075183E-1,3.129681247E-1,5.080066806E-1,1.004840406E0
3.446793792E0,1.547806223E0,1.462034878E-1,-1.071389417E0,1.888108801E0
3.456764792E0,1.612709732E0,-4.299071753E-1,1.541442990E-2,1.669098698E0
3.466734792E0,1.416182182E0,4.212585586E-1,5.394804883E-1,1.572917653E0
3.476704792E0,1.217856176E0,-6.433208987E-1,4.871022999E-2,1.378190165E0
3.486675792E0,1.258625448E0,-1.181365603E-1,-8.007264823E-1,1.496414771E0
3.496645792E0,1.377254929E0,4.554633084E-1,-4.394504160E-1,1.515715881E0
3.506615792E0,1.157955179E-1,-1.799015763E-1,6.271659189E-1,6.626539587E-1
3.516585792E0,5.071155649E-1,3.618461698E-2,7.185789496E-1,8.802449826E-1
3.526556792E0,-3.487916031E-1,-1.151253027E0,6.748979098E-1,1.379320958E0
3.536526792E0,1.125695359E-1,-9.739344585E-1,-1.422857949E0,1.727930835E0
3.546496792E0,2.785836827E-1,-1.184480123E0,-5.366375721E-1,1.329880413E0
3.556467792E0,6.555657723E-1,-1.591851252E0,8.158310097E-1,1.905081921E0
3.566437792E0,1.905332031E-1,-1.012221150E0,1.218305973E0,1.595357013E0
3.576407792E0,4.769029286E-2,-1.156082243E0,2.081561995E-1,1.175640047E0
3.586378792E0,-5.969742229E-1,-6.254392362E-1,-3.998729521E-1,9.526021409E-1
3.596348792E0,2.219880439E-1,8.229689983E-1,-2.176117319E-1,8.797224162E-1
3.606318792E0,-8.582524862E-2,1.070588056E0,-5.792912561E-1,1.220288129E0
3.616288792E0,-1.741667003E-1,-3.476678413E-1,-1.672128260E-1,4.232813445E-1
3.626259792E0,3.029805871E-1,-1.386178657E0,1.663211256E-1,1.428618641E0
3.636229792E0,-4.419495890E-1,-2.228335294E0,3.908787650E-1,2.305121218E0
3.646199792E0,3.391212586E-1,-1.523778552E0,-5.460118282E-1,1.653793584E0
3.656170792E0,-1.599214212E-1,-7.523027658E-1,8.831616980E-1,1.171114383E0
3.666140792E0,7.226152825E-1,3.177011535E-1,1.696445661E0,1.871105221E0
3.676110792E0,6.959256667E-1,7.200457236E-1,2.114123969E0,2.339294452E0
3.686080792E0,8.559995540E-1,2.769516152E-1,7.258400220E-1,1.155976285E0
3.696051792E0,2.984203801E-1,-7.182953596E-2,1.240036565E-1,3.310454838E-1
3.706021792E0,-4.251849639E-1,2.956644595E-2,-4.210527366E-1,5.991175472E-1
3.715991792E0,-8.639493553E-1,3.310626259E-1,-9.166346687E-1,1.302393975E0
3.725962792E0,-1.205827722E0,6.998421317E-1,-9.572903591E-1,1.691213865E0
3.735932792E0,-1.141311372E0,-2.841431057E-1,-1.068548255E0,1.589063978E0
3.745902792E0,-8.364869568E-1,7.009349763E-3,-6.808451128E-1,1.078568323E0
3.755872792E0,-4.838038125E-1,4.840740269E-1,-5.589903080E-1,8.836650706E-1
3.765843167E0,6.536569487E-2,6.203574210E-1,-1.746756274E-1,6.477866768E-1
3.775813167E0,2.550015331E-1,5.236301485E-1,9.653168321E-2,5.903665642E-1
3.785783167E0,7.034236975E-1,9.290108854E-1,1.414008772E-1,1.173822956E0
3.795754167E0,4.238093334E-1,8.302677852E-1,-1.950023031E-1,9.523575192E-1
3.805724167E0,2.053818053E-1,8.666950616E-1,-3.553703785E-1,9.589734729E-1
3.815694167E0,-1.416920503E-1,5.479349774E-1,-1.137178195E0,1.270229752E0
3.825665167E0,-4.266610204E-1,5.598238286E-1,-1.626780764E0,1.772528702E0
3.835635167E0,-7.378581697E-1,6.225764394E-1,-6.170935053E-1,1.145792519E0
3.845605167E0,-1.078076147E0,4.871990713E-1,-1.989854264E-1,1.199669252E0
3.855575167E0,-1.493121015E0,7.039655882E-1,-2.152944803E-3,1.650752117E0
3.865546167E0,-8.494763272E-1,8.776352021E-1,2.639187562E-1,1.249602612E0
3.875516167E0,-1.279548248E0,3.902741629E-1,-3.542202312E-1,1.383845950E0
3.885486167E0,-1.077516934E0,-1.804906833E-1,2.119463646E-1,1.112897520E0
3.895457167E0,-9.818807515E-1,-8.198919010E-1,3.577004939E-1,1.328255315E0
3.905427167E0,-9.619746367E-1,-5.840789562E-1,-8.798480809E-2,1.128842219E0
3.915397167E0,-8.129114950E-1,-9.343622571E-1,-2.275648624E-1,1.259223448E0
3.925367167E0,2.963924378E-1,-1.067956809E0,1.717293323E0,2.043887615E0
3.935338167E0,3.888274156E-2,-1.048939033E0,1.632624471E0,1.940939882E0
3.945308167E0,4.149606688E-1,4.546327114E-2,7.998745430E-1,9.022519328E-1
3.955278167E0,1.203374888E-1,5.568236223E-1,6.289458114E-1,8.485908857E-1
3.965249167E0,4.244976237E-1,1.650815159E-1,5.147034967E-1,6.872916622E-1
3.975219167E0,2.207887800E-1,-2.905399597E-1,-4.372524476E-1,5.695180914E-1
3.985189167E0,-1.656667674E-1,-3.036599422E-1,-5.241894346E-1,6.280361468E-1
3.995159167E0,-1.697785294E-1,-1.233636788E-1,-7.317767000E-1,7.612755644E-1
4.005130167E0,-4.778997692E-1,-3.787425765E-1,2.662389314E-1,6.653700454E-1
4.015100167E0,-1.054056735E-1,-7.317579889E-1,7.630154496E-1,1.062437145E0
4.025070167E0,-6.973880005E-2,-5.459945789E-1,6.924787331E-1,8.845905133E-1
4.035041167E0,1.868828229E-1,1.670546588E-1,1.375557482E-1,2.859266207E-1
4.045011167E0,2.234529907E-1,-1.039827901E-1,1.397572249E-1,2.833297401E-1
4.054981167E0,1.552627983E-1,-4.417013016E-1,-5.613981915E-1,7.310092378E-1
4.064952167E0,-5.154035180E-1,-9.478596774E-1,-4.420705533E-1,1.165978185E0
4.074922167E0,-5.024191910E-1,-7.402899536E-1,-5.162834144E-1,1.032958287E0
4.084892167E0,-6.251644718E-2,-4.771348438E-1,3.279346579E-1,5.823290351E-1
4.094862167E0,-1.551570551E-1,-9.075773317E-1,-1.493055527E0,1.754133726E0
4.104833167E0,3.552434574E-1,-1.510305105E0,-1.933218133E-1,1.563519347E0
4.114803167E0,4.136741718E-1,-1.006190916E0,2.056273956E0,2.326329526E0
4.124773167E0,8.600171759E-1,8.589618266E-2,1.443385769E0,1.682370403E0
4.134744167E0,1.908425756E-1,4.806396648E-1,1.299250733E0,1.398387587E0
4.144714167E0,3.507755999E-1,-3.588675982E-1,1.416475128E0,1.502741249E0
4.154684167E0,1.693149549E-1,-7.521384591E-1,3.261383933E-1,8.371057682E-1
4.164654167E0,-1.022868509E-1,-7.798592314E-1,-7.483699286E-1,1.085679774E0
4.174625167E0,-1.168759554E-1,-5.031146076E-1,-8.786143184E-1,1.019189589E0
4.184595167E0,-1.845986081E-1,-7.030265254E-1,3.561772943E-2,7.277304200E-1
4.194565167E0,1.547640673E-1,-4.304310858E-1,4.373021489E-1,6.328159335E-1
4.204535167E0,4.756823223E-1,1.462420794E-1,3.301595235E-1,5.972149768E-1
4.214506167E0,6.418257657E-1,7.810795453E-1,-2.084216630E-1,1.032213718E0
4.224476167E0,8.716423177E-1,3.422585821E-1,-2.688567299E-1,9.742613655E-1
4.234446167E0,9.651352029E-1,2.470971939E-1,-3.239129430E-1,1.047598481E0
4.244417167E0,7.197780673E-1,9.390417838E-1,-8.847685128E-1,1.477394754E0
4.254387167E0,2.927921244E-1,1.413282256E0,-1.035905004E0,1.776567798E0
4.264357167E0,2.875955029E-1,1.540430253E0,-8.498980576E-1,1.782684281E0
4.274328167E0,2.278693013E-1,1.133457611E0,-8.450735199E-1,1.432061391E0
4.284298167E0,-7.431184346E-2,8.680343664E-1,-9.495246720E-1,1.288643866E0
4.294268167E0,5.159491729E-2,6.514537910E-1,-1.487818176E-1,6.702164624E-1
4.304238167E0,3.395443412E-1,1.744817629E0,-4.738583565E-3,1.777554886E0
4.314209167E0,2.506698792E-1,1.999271205E0,-1.063029653E-1,2.017726706E0
4.324179167E0,-4.948982829E-4,1.203153206E0,9.361678773E-1,1.524463242E0
4.334149167E0,1.473777366E-1,5.804984137E-1,3.189492416E-1,6.785478792E-1
4.344120167E0,-8.908186452E-2,-5.073298654E-1,-6.947550541E-1,8.648721039E-1
4.354090167E0,-1.338755107E-1,-1.275363688E0,-6.902065051E-1,1.456317345E0
4.364060167E0,-4.956410620E-1,-1.945872093E0,1.451641452E-1,2.013243873E0
4.374030167E0,-2.939743949E-1,-1.681189983E0,9.727235001E-1,1.964436741E0
4.384001167E0,-6.420674019E-1,-1.491452220E0,1.505360407E0,2.214224521E0
4.393971167E0,-2.886592576E-1,-8.010255674E-1,1.764238279E0,1.958954525E0
4.403941167E0,-1.901401012E-2,-8.323558259E-1,2.285218177E0,2.432159507E0
4.413912167E0,2.270734039E-1,-1.676846086E0,1.466951802E0,2.239491620E0
4.423882167E0,-5.448651892E-1,-1.456125097E0,-1.259079777E0,2.000614970E0
4.433852167E0,-9.044098949E-1,-9.434204713E-1,-1.197893343E0,1.772836119E0
4.443822167E0,-1.376761862E0,-5.523022628E-1,-5.987472814E-1,1.599690383E0
4.453793167E0,-1.099375726E0,-6.634069616E-1,-6.675953221E-1,1.447210868E0
4.463763167E0,-8.024058757E-1,-6.366004014E-1,-3.324487084E-1,1.076864617E0
4.473733167E0,-5.711597891E-1,-8.519872677E-1,5.969422460E-2,1.027457644E0
4.483704167E0,1.234179208E-1,-6.131624222E-1,9.335804844E-1,1.123731578E0
4.493674167E0,8.559117727E-2,-4.995413741E-1,1.256844971E0,1.355185122E0
4.503644167E0,1.083704384E0,-7.041597158E-2,6.078408712E-1,1.244525663E0
4.513614167E0,6.384881750E-2,2.659003776E-1,2.676358312E-1,3.826337942E-1
4.523585167E0,7.319125747E-1,5.145646253E-1,-5.878615201E-2,8.966206457E-1
4.533555167E0,5.309340334E-2,5.259818986E-1,4.969864333E-1,7.255834769E-1
4.543525167E0,-2.492866107E-1,-2.338231373E-1,3.039885557E-1,4.574124132E-1
4.553496167E0,-6.077647112E-2,4.061628020E-1,-5.466018122E-1,6.836925788E-1
4.563466167E0,-3.656066239E-1,7.662217703E-1,-8.319330722E-1,1.188644876E0
4.573436167E0,-2.856524183E-1,-1.641313434E-2,1.221752322E-1,3.111165094E-1
4.583406167E0,-1.856206101E-1,-1.184257051E-1,-3.803613782E-1,4.394933862E-1
4.593377167E0,1.001764172E-1,3.407602331E-1,-5.112144631E-1,6.224894202E-1
4.603347167E0,-1.263756526E-1,5.315034243E-1,-5.140345752E-2,5.487340076E-1
4.613317167E0,-1.677182813E-1,5.704382792E-1,-1.115894330E-1,6.049640103E-1
4.623288167E0,-8.250172779E-1,-3.527774307E-1,-5.961739218E-1,1.077278409E0
4.633258167E0,-9.209236745E-1,9.492983848E-2,-7.541323596E-1,1.194080275E0
4.643228167E0,-9.418371914E-1,1.049639529E0,-1.233370739E-1,1.415631474E0
4.653199167E0,-1.060747192E0,7.995017830E-1,-6.085203177E-1,1.461056017E0
4.663169167E0,-3.789531494E-1,1.110979745E0,-2.137940848E-1,1.193142654E0
4.673139167E0,4.638515778E-2,7.787760347E-1,2.123708725E-3,7.801590897E-1
4.683109167E0,2.923250050E-1,1.608941494E0,-4.317642510E-2,1.635851718E0
4.693080167E0,8.052547853E-1,1.751234071E0,-2.478798437E-1,1.943373474E0
4.703050167E0,3.301643474E-1,8.843945834E-1,-3.981895387E-1,1.024557067E0
4.713020167E0,6.809583295E-2,-2.980778977E-1,-5.965504825E-1,6.703431612E-1
4.722990167E0,-5.920318639E-1,-6.990074417E-1,-4.798061442E-1,1.034082718E0
4.732961167E0,-2.857584722E-1,-6.186441869E-1,1.423066109E-1,6.961535074E-1
4.742931167E0,-3.531421873E-1,-1.775705838E-1,8.101024926E-1,9.013915715E-1
4.752901167E0,-5.704678807E-1,-4.284784082E-1,1.387441363E0,1.560134893E0
4.762872458E0,-5.498649971E-1,-9.891217241E-1,2.182210118E0,2.458201435E0
4.772842458E0,-4.192833326E-1,-6.084674004E-1,1.398231815E0,1.581481362E0
4.782812458E0,-4.393552525E-1,-1.806830567E-1,3.924195063E-1,6.161756842E-1
4.792783458E0,-6.109690220E-1,-5.101695657E-4,-4.645946127E-1,7.675490605E-1
4.802753458E0,-1.121731970E0,-2.712447327E-1,-5.998062122E-1,1.300624393E0
4.812723458E0,-1.320065067E0,-1.071001454E0,-8.528128946E-1,1.901816429E0
4.822693458E0,-1.180355643E0,-8.866206184E-1,-6.088325590E-1,1.596875903E0
4.832664458E0,-1.019745785E0,-6.531041676E-1,3.615590715E-1,1.263784587E0
4.842634458E0,-6.101867741E-1,2.062459141E-2,7.628061193E-1,9.770498702E-1
4.852604458E0,-4.238148517E-1,-9.701039475E-1,1.386062005E0,1.744101081E0
4.862575458E0,3.477798886E-1,-6.580333704E-1,8.475112242E-1,1.127933528E0
4.872545458E0,2.766361762E-1,-2.857534289E-1,5.396927422E-1,6.704109577E-1
4.882515458E0,4.572620216E-1,-4.116200083E-1,5.312470239E-1,8.128609894E-1
4.892485458E0,3.687831238E-1,-1.036677129E0,-2.203932524E-1,1.122173626E0
4.902456458E0,-2.291128214E-1,-1.229933746E0,-8.820431256E-1,1.530761177E0
4.912426458E0,-4.766309600E-1,-8.813274264E-1,-5.652900982E-1,1.150420792E0
4.922396458E0,-8.220639955E-1,-1.436503011E-1,-2.022855949E-1,8.586874190E-1
4.932367458E0,-8.089793155E-1,1.448250067E-1,2.558320570E-1,8.607391341E-1
4.942337458E0,-6.455108272E-1,-6.860275000E-2,1.276897413E0,1.432430650E0
4.952307458E0,-2.145902928E-1,6.348684561E-1,2.006852120E-1,6.995580781E-1
4.962277458E0,-5.237526476E-1,2.637611738E-1,1.012162385E0,1.169768988E0
4.972248458E0,8.748261449E-2,2.105289996E-1,7.894004256E-1,8.216621565E-1
4.982218458E0,1.294540655E-1,-2.548967949E-1,-2.450661635E-1,3.765476804E-1
4.992188458E0,-7.273662914E-1,-7.161614183E-1,-8.437286603E-1,1.324321317E0
5.002158458E0,-2.233666163E-1,-5.392612177E-1,-7.551047516E-1,9.543995453E-1
5.012129458E0,-1.493303503E-1,-2.834642440E-1,-1.162265089E0,1.205616717E0
5.022099458E0,-8.005678765E-2,-3.675358030E-1,-7.225708437E-1,8.146166460E-1
5.032069458E0,2.879040349E-1,-3.804315448E-1,4.198926491E-1,6.355523033E-1
5.042040458E0,4.293465004E-1,-1.172697106E-1,1.144150999E0,1.227669382E0
5.052010458E0,6.796848059E-1,1.058078231E0,1.187986405E0,1.729974762E0
5.061980458E0,6.232193407E-1,9.538308540E-1,1.869647205E-1,1.154621779E0
5.071950458E0,5.251558698E-1,1.185777327E-1,-1.091550032E0,1.217099354E0
5.081921458E0,4.296915227E-1,-5.625913158E-1,-7.367702222E-1,1.021750534E0
5.091891458E0,2.054235398E-1,-4.059020162E-2,-4.370349312E-1,4.846090447E-1
5.101861458E0,1.566332395E-1,9.870617500E-1,-1.438648939E-2,9.995158033E-1
5.111832458E0,6.278929745E-2,1.785438236E0,-1.567334461E-1,1.793403904E0
5.121802458E0,8.084563186E-2,1.166353462E0,1.074729931E-1,1.174081283E0
5.131772458E0,2.010243140E-1,8.581364921E-1,-2.753559101E-1,9.233796029E-1
5.141742458E0,1.167909515E-1,1.215063107E0,-5.519958687E-1,1.339670825E0
5.151713458E0,1.985416228E-1,1.024451186E0,-6.848451930E-1,1.248171441E0
5.161683458E0,-1.352436130E-1,4.494336596E-1,-6.477194667E-1,7.998887152E-1
5.171653458E0,-3.696265755E-2,-5.418012482E-1,-5.497832823E-1,7.727719509E-1
5.181624458E0,-7.860253030E-2,-1.033877482E0,-2.365812689E-1,1.063509146E0
5.191594458E0,-6.441604767E-2,-1.361770625E0,7.910563570E-1,1.576178550E0
5.201564458E0,9.391899194E-2,-1.088558889E0,1.521479427E0,1.873147319E0
5.211534458E0,-1.459683018E-1,-7.877453712E-1,1.524902387E0,1.722549507E0
5.221505458E0,-3.950044142E-1,-1.223354751E0,1.232742164E0,1.781089154E0
5.231475458E0,-2.307592694E-1,-5.912827259E-1,3.810665524E-1,7.403221054E-1
5.241445458E0,-9.739263455E-1,-8.385146981E-1,1.506125808E-1,1.293956558E0
5.251416458E0,-9.694326872E-1,-1.163352086E0,4.054652292E-1,1.567670202E0
5.261386458E0,-1.115737186E0,-1.351579805E0,3.013122851E-1,1.778321267E0
5.271356458E0,-1.182156147E0,-5.719269803E-1,-2.273906153E-1,1.332779096E0
5.281326458E0,-7.928567147E-1,-4.977410164E-1,1.033834505E-1,9.418365184E-1
5.291297458E0,-4.780134976E-1,-5.356321433E-1,4.579282022E-1,8.515262387E-1
5.301267458E0,-1.929943327E-1,-4.504978529E-1,3.113928849E-1,5.806553682E-1
5.311237458E0,2.076379534E-1,-3.619926426E-1,3.832908332E-1,5.666251458E-1
5.321208458E0,3.755386313E-1,-3.214506805E-1,-2.709845316E-1,5.637308045E-1
5.331178458E0,1.297266919E-2,-9.972060844E-1,-3.956115013E-1,1.072891758E0
5.341148458E0,4.834984417E-1,-5.499300474E-1,-5.347161770E-2,7.342022977E-1
5.351118458E0,6.469203168E-2,3.000463629E-1,-6.463874710E-1,7.155624651E-1
5.361089458E0,-1.631766575E-1,-2.665181360E-1,-7.002952909E-1,7.668585482E-1
5.371059458E0,6.586604294E-2,-3.171468374E-1,-2.220597088E-2,3.246745405E-1
5.381029458E0,-3.930800590E-1,-4.808723840E-1,3.110280186E-1,6.946140013E-1
5.391000458E0,1.935842802E-1,-2.495003995E-1,2.850891852E-1,4.254423186E-1
5.400970458E0,3.811363535E-1,3.614476821E-1,3.173751712E-1,6.137070524E-1
5.410940458E0,8.423150229E-1,1.149388058E0,4.094799274E-1,1.482653471E0
5.420910458E0,1.290773952E-1,5.481092244E-1,3.464229691E-1,6.611305237E-1
5.430881458E0,-4.297347921E-1,6.517452747E-2,1.355209172E-2,4.348601726E-1
5.440851458E0,-9.550361113E-1,-1.314740592E-1,-9.525640547E-1,1.355270335E0
5.450821458E0,-1.465054088E0,-3.447196752E-2,-1.341475816E0,1.986738323E0
5.460792458E0,-1.457373916E0,-1.934124452E-1,2.188332152E-1,1.486349583E0
5.470762458E0,-9.512562519E-1,-1.846147245E-1,5.398816073E-1,1.109253444E0
5.480732458E0,-3.866993945E-1,1.140240381E0,-1.352349883E-1,1.211599377E0
5.490702458E0,-9.113912512E-2,1.061930669E0,-2.952089614E-1,1.105961761E0
5.500673458E0,1.416759339E-1,7.931435207E-1,3.327211887E-1,8.716949604E-1
5.510643458E0,2.164669567E-1,4.576340872E-1,5.907792807E-2,5.096833357E-1
5.520613458E0,3.553852523E-1,1.189128074E0,-9.388482410E-1,1.556200589E0
5.530583458E0,2.701972406E-1,1.153699210E0,-1.697881737E0,2.070466326E0
5.540554458E0,-7.098550865E-2,3.135277033E-1,-1.411255903E0,1.447405191E0
5.550524458E0,-2.927549763E-1,-5.796955910E-1,-1.318092216E0,1.469394278E0
5.560494458E0,-2.887459243E-1,-4.059321293E-1,-1.668146306E0,1.740938598E0
5.570465458E0,1.081521564E-2,-5.199616054E-1,1.078096758E0,1.196983567E0
5.580435458E0,1.275377411E-1,-1.005783950E0,4.338405388E0,4.455292195E0
5.590405458E0,2.720653712E-1,3.748766899E-2,2.826506040E0,2.839817121E0
5.600375458E0,3.330415795E-1,5.463325480E-1,1.112426931E0,1.283311974E0
5.610346458E0,4.654385487E-2,4.604720333E-1,1.092906586E0,1.186863779E0
5.620316458E0,-2.610561056E-1,-7.962823060E-1,5.246934646E-1,9.886956220E-1
5.630286458E0,-4.650354928E-1,-4.727929938E-1,-6.841721785E-1,9.528288379E-1
5.640257458E0,-9.598160639E-1,5.550466534E-1,-8.281136709E-1,1.383869906E0
5.650227458E0,-3.896399958E-1,6.125645444E-1,-8.772811532E-1,1.138717203E0
5.660197458E0,-2.277759834E-1,2.827564386E-1,-1.853079704E0,1.888316047E0
5.670167458E0,-1.948189564E-1,-5.488936284E-1,-1.240677420E0,1.370590786E0
5.680138458E0,3.898567813E-1,-9.914334208E-1,-6.362940073E-3,1.065349250E0
5.690108458E0,6.101350628E-1,-6.460430700E-1,5.850735676E-1,1.063930225E0
5.700078458E0,4.306548880E-1,-3.462735727E-1,8.558873606E-1,1.018779757E0
5.710048458E0,9.058227284E-1,-4.702158335E-1,7.439295530E-2,1.023304479E0
5.720019458E0,4.404335887E-1,-1.313100448E0,-9.042871034E-1,1.654070645E0
5.729989458E0,1.063132783E0,-1.960948261E0,-8.459915328E-1,2.385638504E0
5.739959458E0,9.520739119E-1,-2.277841622E0,-3.893953264E-1,2.499327091E0
5.749930458E0,2.698857485E-1,-2.113379034E0,5.636405987E-1,2.203837558E0
5.759900083E0,2.136334874E-1,-1.031702026E0,1.264135280E0,1.645626428E0
5.769870083E0,2.626404087E-1,5.292051762E-1,1.180695512E0,1.320257549E0
5.779840083E0,5.524063798E-2,1.636963982E0,1.819650003E0,2.448229715E0
5.789811083E0,5.944004613E-1,1.197416210E0,9.685485882E-1,1.650819147E0
5.799781083E0,-8.613168658E-1,-1.312060521E0,-7.891343772E-2,1.571495111E0
5.809751083E0,-1.406533107E-1,-2.485890817E0,-7.066430283E-1,2.588200317E0
5.819721083E0,3.780441997E-1,-1.184309384E0,-6.574328613E-1,1.406315790E0
5.829692083E0,8.415688451E-1,3.723653108E-2,2.599847496E-1,8.815989736E-1
5.839662083E0,8.945312434E-1,1.525906938E-1,1.044624957E0,1.383730959E0
5.849632083E0,9.788592759E-1,-1.104973777E0,1.144149245E0,1.867675032E0
5.859603083E0,1.389717538E0,-8.578754139E-1,9.527236837E-1,1.890753151E0
5.869573083E0,1.357445586E0,6.642322960E-1,7.047181249E-2,1.512887748E0
5.879543083E0,1.582950328E0,9.472477663E-1,-1.344812822E-1,1.849620309E0
5.889513083E0,1.675498011E0,2.478047070E-1,-2.873731077E-2,1.693967706E0
5.899484083E0,9.482012279E-1,1.215682912E-1,-8.179132032E-1,1.258112247E0
5.909454083E0,1.034067078E0,2.515700215E-1,-1.259931132E0,1.649244874E0
5.919424083E0,3.252380683E-1,3.885387093E-2,3.211875558E-2,3.291216170E-1
5.929395083E0,2.413730439E-1,7.082150522E-1,-2.560326165E-1,7.908111071E-1
5.939365083E0,6.397148112E-2,1.933262865E0,-1.170731857E0,2.261019844E0
5.949335083E0,3.234789334E-2,2.139149760E0,-1.603317057E0,2.673505875E0
5.959305083E0,-2.826191021E-1,1.308040853E0,-5.611262959E-1,1.451105492E0
5.969276083E0,-2.108251976E-1,1.671236560E-1,5.473274517E-1,6.098728718E-1
5.979246083E0,-5.504577952E-1,1.092631182E-1,3.446278739E-1,6.585670693E-1
5.989216083E0,-3.867146704E-1,4.215968201E-1,1.520159125E-1,5.919467481E-1
5.999186083E0,-2.762888881E-1,-6.700938374E-2,-3.902151060E-1,4.827977177E-1
6.009157083E0,-5.917649750E-1,-3.877911428E-1,-2.282054248E0,2.389213123E0
6.019127083E0,-7.032200682E-1,-1.445310380E0,-2.299914569E-1,1.623679965E0
6.029097083E0,-7.011738351E-1,-2.438511998E0,2.306787386E0,3.429176805E0
6.039068083E0,-8.199492768E-1,-7.258490852E-1,2.579289270E0,2.802125416E0
6.049038083E0,-7.841916528E-1,-3.870885998E-1,1.890656251E-1,8.947289774E-1
6.059008083E0,-1.227184824E0,-6.086837474E-1,1.006796980E-1,1.373541007E0
6.068978083E0,-1.011408898E0,-1.276527869E0,6.737541944E-1,1.762502787E0
6.078949083E0,-1.530041505E0,-4.865161166E-1,-4.526657081E-1,1.668122052E0
6.088919083E0,-1.729820398E0,-5.242362124E-1,-1.051755052E0,2.091241474E0
6.098889083E0,-1.635049896E0,-2.681752369E-1,-1.613182479E-1,1.664731119E0
6.108859083E0,-1.814585145E0,-5.703666508E-3,6.570030910E-1,1.929871716E0
6.118830083E0,-2.145509338E0,-4.638224879E-1,1.319426551E0,2.561098991E0
6.128800083E0,-1.431942037E0,6.229477376E-2,1.058997413E0,1.782081411E0
6.138770083E0,-1.579521228E0,5.611797979E-1,1.019223483E0,1.961791677E0
6.148741083E0,-9.947048648E-1,1.761035174E-2,1.109799192E0,1.490436895E0
6.158711083E0,-7.641682282E-1,3.089402702E-1,-2.371513724E-2,8.245966161E-1
6.168681083E0,-5.762338566E-1,5.350173086E-2,-8.382650220E-1,1.018624632E0
6.178651083E0,-4.879780301E-1,2.282448936E-1,-7.867627466E-1,9.535270886E-1
6.188622083E0,-2.968922651E-1,-6.864704266E-1,-4.889500201E-1,8.935652107E-1
6.198592083E0,1.170021091E-1,-1.124533591E0,-5.439688110E-1,1.254658263E0
6.208562083E0,1.709831472E-1,-1.014513258E0,-1.375253427E-1,1.037971872E0
6.218532083E0,3.891036234E-1,1.765429357E-1,-1.558587027E-1,4.548197149E-1
6.228503083E0,-1.404941751E-1,1.100073811E0,6.592852592E-2,1.110966954E0
6.238473083E0,-2.071070811E-1,1.186134008E0,1.197703893E0,1.698323244E0
6.248443083E0,-4.499989392E-1,6.417611539E-3,1.166139454E0,1.249968582E0
6.258414083E0,-2.404229261E-1,-5.223384985E-1,1.910408145E-1,6.059185451E-1
6.268384083E0,3.284402959E-2,-3.363189805E-1,-5.001521158E-1,6.036069299E-1
6.278354083E0,-5.473478073E-2,1.084366143E-3,-4.854919767E-1,4.885688606E-1
6.288324083E0,-2.713682917E-1,-1.719938019E-1,-3.353290468E-1,4.644008907E-1
6.298295083E0,1.653199544E-1,9.776582578E-1,-4.982845151E-1,1.109699876E0
6.308265083E0,-3.916428499E-1,6.793511492E-1,-1.953104514E-1,8.081140255E-1
6.318235083E0,-5.095076609E-1,3.223148990E-1,3.048837644E-1,6.756027386E-1
6.328205083E0,-3.929252905E-1,5.967095268E-1,4.719884169E-1,8.562859388E-1
6.338176083E0,-5.526306936E-1,7.917887208E-1,-7.920989156E-2,9.688159107E-1
6.348146083E0,-6.324531175E-1,9.003346780E-1,-7.488529086E-1,1.330932063E0
6.358116083E0,-3.746949146E-1,1.263285679E0,-1.355064746E0,1.890102497E0
6.368086083E0,-4.736808204E-1,6.867779902E-1,-7.038878202E-1,1.091556499E0
6.378057083E0,-2.195632401E-1,3.938245922E-1,-4.198411936E-1,6.160945168E-1
6.388027083E0,4.042163735E-2,4.213021204E-1,-2.482903183E-1,4.906908065E-1
6.397997083E0,2.488277505E-1,2.484753826E-1,-3.359155226E-1,4.863070054E-1
6.407968083E0,4.379751635E-1,2.448322749E-1,-5.664478469E-1,7.567220427E-1
6.417938083E0,1.509480922E-1,-1.010977447E0,-5.762787706E-1,1.173438514E0
6.427908083E0,-8.291987680E-2,-1.326868302E0,4.268964440E-1,1.396315069E0
6.437878083E0,4.524290055E-1,-1.085461619E0,6.361449033E-1,1.337011319E0
6.447849083E0,5.930426648E-1,-2.525535232E-1,7.916118425E-1,1.020848761E0
6.457819083E0,1.527008773E-1,-1.438850376E0,7.248834175E-1,1.618352227E0
6.467789083E0,6.761299912E-1,-1.263013784E0,2.731193501E-1,1.458406583E0
6.477759083E0,7.360816760E-2,-6.596852088E-1,7.812388819E-1,1.025152149E0
6.487730083E0,5.960846787E-1,-5.329237130E-1,1.383661723E0,1.598075215E0
6.497700083E0,3.344945030E-1,1.465601680E-1,1.187032725E0,1.241939268E0
6.507670083E0,5.998246309E-1,4.701442051E-1,9.563056880E-1,1.222843298E0
6.517641083E0,2.942240344E-1,-1.247328043E-1,8.513733101E-1,9.093748226E-1
6.527611083E0,3.302057165E-1,5.890485048E-2,-2.632650375E-2,3.364501173E-1
6.537581083E0,4.009487667E-1,-3.709350818E-1,-5.350845516E-2,5.488313978E-1
6.547551083E0,7.558986573E-1,-4.061291805E-1,-1.256322230E0,1.521403706E0
6.557522083E0,8.436596632E-1,-7.474919692E-1,-1.145883529E0,1.607344062E0
6.567492083E0,1.280035613E0,-9.533572295E-1,-4.850838411E-1,1.668138936E0
6.577462083E0,1.609185907E0,-8.335164982E-1,4.066317487E-1,1.857304072E0
6.587432083E0,1.463164268E0,-8.876014888E-1,1.416206156E0,2.221334273E0
6.597403083E0,1.515875748E0,-2.519892669E-1,5.800683510E-1,1.642515499E0
6.607373083E0,6.683912744E-1,-1.129793161E-1,1.481713682E-1,6.938774934E-1
6.617343083E0,-2.691956856E-1,-5.745947725E-1,-2.022160131E-1,6.659705591E-1
6.627313083E0,1.977819964E-1,-3.583837411E-1,-1.293333936E-1,4.292828329E-1
6.637284083E0,-1.478713330E-1,2.835984376E-1,-7.561794698E-2,3.286519114E-1
6.647254083E0,-6.549473561E-1,6.150595513E-1,-2.580896670E-1,9.348072353E-1
6.657224083E0,-4.974571341E-1,2.424118200E-1,5.796461821E-2,5.564054167E-1
6.667194083E0,-5.977433145E-2,-7.262575132E-1,2.827485448E-1,7.816454988E-1
6.677165083E0,4.148106512E-1,-6.638168514E-2,-1.694248277E-1,4.529670813E-1
6.687135083E0,9.885459926E-2,1.153301307E0,-2.589235969E0,2.836197990E0
6.697105083E0,6.971287313E-1,5.788743496E-2,-3.035231758E0,3.114798749E0
6.707075083E0,8.086536987E-1,-2.571284432E0,1.809179978E0,3.246314314E0
6.717046083E0,6.564169076E-1,-2.937535602E0,5.346530271E0,6.135583469E0
6.727016083E0,9.839758819E-1,1.309221113E0,2.646284328E0,3.112087596E0
6.736986083E0,1.177150053E0,3.464298981E0,1.185979056E-1,3.660753357E0
6.746957083E0,1.085682424E0,-1.653715378E-1,2.985588312E-1,1.138064782E0
6.756927083E0,1.647071772E0,-1.129997229E0,-2.402358372E0,3.124270299E0
6.766897458E0,1.195376848E0,8.721508062E-1,-2.318729739E0,2.750650912E0
6.776867458E0,6.901539532E-1,2.137387117E0,-9.979501426E-1,2.457771481E0
6.786838458E0,4.630534329E-2,1.567880006E0,-3.328819871E-1,1.603496903E0
6.796808458E0,3.457425725E-2,1.768507916E-1,-7.884122461E-1,8.087431308E-1
6.806778458E0,-5.295272116E-1,1.135453266E-1,-1.493014596E0,1.588201559E0
6.816748458E0,-6.993905074E-1,5.766120619E-1,3.102941930E-2,9.069682335E-1
6.826719458E0,-6.860158056E-2,1.026019117E0,1.248781661E0,1.617676433E0
6.836689458E0,-4.282302304E-1,1.418019962E-1,4.593853283E-1,6.438352400E-1
6.846659458E0,-3.144727230E-1,-5.324182212E-3,8.420926094E-2,3.255958231E-1
6.856629458E0,8.149673760E-1,3.660801387E-1,1.287001401E-1,9.026351522E-1
6.866600458E0,9.508136176E-1,-5.017244321E-1,8.000616539E-1,1.340101709E0
6.876570458E0,6.920192150E-1,-1.727247331E0,8.758708048E-1,2.056556248E0
6.886540458E0,6.002634279E-1,-2.353684102E0,7.299371660E-2,2.430117923E0
6.896510458E0,9.511039319E-1,7.439120114E-2,-5.026874685E-1,1.078344764E0
6.906481458E0,7.491584987E-1,4.674644262E-2,1.024053283E0,1.269688470E0
6.916451458E0,3.787445500E-1,6.351871294E-1,1.180421863E0,1.392948634E0
6.926421458E0,-2.044440581E-1,-1.053521203E0,3.243748730E-1,1.121125932E0
6.936392458E0,-1.150090491E-1,-1.795933404E0,-2.883121705E-1,1.822560775E0
6.946362458E0,1.329131869E-1,-1.062295243E0,6.070398027E-1,1.230704847E0
6.956332458E0,-7.767843269E-4,3.157081300E-1,1.455875421E0,1.489713217E0
6.966302458E0,-4.011973464E-1,2.867147112E-1,9.563618213E-1,1.076007700E0
6.976273458E0,-4.840848443E-1,2.931966421E-1,-6.507951021E-4,5.659530289E-1
6.986243458E0,-3.411780898E-1,4.946422845E-2,1.585840899E-1,3.794708321E-1
6.996213458E0,-2.724972611E-1,-1.850994587E-1,-1.464294827E-1,3.604971017E-1
7.006183458E0,-3.070291809E-1,3.751485854E-2,-2.620020390E-1,4.053632334E-1
7.016154458E0,1.681078520E-1,-9.379694045E-2,-2.613845730E-1,3.246228749E-1
7.026124458E0,1.297251662E-1,-4.272715428E-1,-7.280666417E-1,8.540905249E-1
7.036094458E0,-1.929990836E-1,-1.140616650E0,-8.900818777E-1,1.459623491E0
7.046064458E0,7.806204658E-2,-1.460285391E0,-9.600882518E-1,1.749370332E0
7.056035458E0,1.989027980E-1,-1.550331050E0,-4.661347693E-1,1.631064166E0
7.066005458E0,4.696469725E-1,-1.480350696E0,2.213972193E-1,1.568764862E0
7.075975458E0,3.617320395E-1,-8.706618127E-1,1.095210974E0,1.445125994E0
7.085945458E0,1.384380382E-2,-5.120017907E-1,9.028615522E-1,1.038025273E0
7.095916458E0,-3.931970398E-1,3.319288909E-2,6.267560291E-1,7.406273017E-1
7.105886458E0,-6.554387415E-1,-9.912638515E-2,-1.714198977E-1,6.846975722E-1
7.115856458E0,-1.131374029E0,-2.341479501E-1,1.709983134E-1,1.167935306E0
7.125826458E0,-9.500557454E-1,-5.695451170E-2,4.309017867E-1,1.044761258E0
7.135797458E0,-1.336642508E0,7.881783575E-1,-1.209074389E0,1.967155102E0
7.145767458E0,-1.840522078E0,8.883753678E-1,-6.729045939E-1,2.151634938E0
7.155737458E0,-1.758551423E0,7.352905843E-1,-1.992105442E-1,1.916465547E0
7.165708458E0,-1.360329871E0,1.203121338E0,-8.159748513E-1,1.990932764E0
7.175678458E0,-1.602553849E0,1.424410969E0,-9.229771435E-1,2.334311945E0
7.185648458E0,-1.513172580E0,1.536680141E0,-5.998588371E-1,2.238505693E0
7.195618458E0,-1.378023107E0,1.548444739E0,-7.504579693E-1,2.204499026E0
7.205589458E0,-1.136014599E0,1.898546191E0,-7.864931899E-1,2.348101008E0
7.215559458E0,-3.706141428E-1,8.604657304E-1,6.167666459E-1,1.121676072E0
7.225529458E0,-3.999675491E-2,6.760258377E-1,9.739660335E-1,1.186263254E0
7.235499458E0,7.249145905E-2,2.008527347E-1,9.127357453E-1,9.373811250E-1
7.245470458E0,-3.336853214E-1,-3.612509233E-1,5.542178106E-1,7.409490569E-1
7.255440458E0,-3.045821942E-1,-5.186948061E-2,-3.812220883E-1,4.907046329E-1
7.265410458E0,-4.268923875E-1,5.257085413E-2,-1.851672864E-1,4.682816771E-1
7.275380458E0,-1.833314982E-1,-8.155427420E-1,7.359147745E-1,1.113683509E0
7.285351458E0,-5.529124380E-2,-8.446291316E-1,3.799930036E-1,9.278201196E-1
7.295321458E0,-6.946324088E-2,-7.338989469E-1,-5.220961314E-1,9.033366906E-1
7.305291458E0,-1.247854292E-1,-5.432338160E-1,1.102124137E-1,5.681735284E-1
7.315261458E0,8.861092154E-3,-3.399308056E-2,1.436245733E0,1.436675278E0
7.325232458E0,-2.060812053E-1,-4.410660017E-1,1.312954853E0,1.400306797E0
7.335202458E0,-1.217520034E-1,-7.147987247E-2,9.061722457E-2,1.677629396E-1
7.345172458E0,-1.158324741E-1,-3.711169302E-2,5.585810030E-1,5.716705141E-1
7.355142458E0,7.793396515E-2,3.363178110E-1,2.321490794E-1,4.160247204E-1
7.365113458E0,2.596674102E-1,6.796429253E-1,-2.963029169E0,3.051046301E0
7.375083458E0,5.944286376E-1,-4.064364517E-1,-3.737814479E0,3.806546082E0
7.385053458E0,3.623459240E-1,-2.613836374E0,1.098500032E0,2.858345235E0
7.395023458E0,8.105420570E-1,-2.622286186E0,2.879591156E0,3.978116199E0
7.404994458E0,1.273052576E0,5.103750953E-1,2.259516156E-1,1.390035874E0
7.414964458E0,7.057533744E-1,9.252104875E-1,1.280934915E0,1.730576935E0
7.424934458E0,7.574738972E-1,-5.841207638E-1,8.298286593E-1,1.266325146E0
7.434904458E0,2.573709345E-1,-1.729013482E0,-4.776613855E-1,1.812150054E0
7.444875458E0,-1.219164198E-1,-1.329128836E0,-6.127420074E-1,1.468638772E0
7.454845458E0,1.297659779E-2,-5.037545854E-1,-1.118999201E-1,5.161963449E-1
7.464815458E0,-4.862598623E-1,-8.421765170E-1,1.536519635E-1,9.845399257E-1
7.474785458E0,1.588420983E-1,-1.457382833E0,1.207081658E-1,1.470974506E0
7.484756458E0,-6.128276691E-1,-6.355870789E-1,5.172651619E-1,1.023275102E0
7.494726458E0,-1.104065412E-1,5.062150937E-1,2.674270856E-1,5.830613789E-1
7.504696458E0,1.617367258E-2,-1.940787354E-1,8.690003264E-1,8.905558436E-1
7.514666458E0,6.475105018E-1,-1.132365351E0,1.339876018E0,1.869970289E0
7.524637458E0,3.992733201E-1,-4.254840490E-1,-1.131512243E-1,5.943560042E-1
7.534607458E0,1.421220947E-1,4.793135163E-1,-3.492150146E-1,6.098288802E-1
7.544577458E0,7.232853734E-1,5.744655490E-2,3.398226321E-2,7.263584737E-1
7.554547458E0,8.645984694E-1,-1.418672804E0,-1.608650887E-1,1.669143677E0
7.564518458E0,5.560346867E-1,-1.188234620E0,-4.125894767E-1,1.375247673E0
7.574488458E0,1.543457064E0,1.643691204E0,-8.102147591E-1,2.395919122E0
7.584458458E0,1.156378770E0,2.450097671E0,1.999174726E-1,2.716644521E0
7.594428458E0,1.185988485E0,2.493990380E0,7.929689813E-1,2.873213621E0
7.604399458E0,3.133029144E-1,6.362934226E-1,3.521625960E-1,7.918626963E-1
7.614369458E0,2.582644804E-1,1.005131985E0,-1.559039601E0,1.872857530E0
7.624339458E0,2.453534628E-1,1.945977635E0,-1.715007062E0,2.605432114E0
7.634309458E0,-3.423946761E-3,2.312329669E0,-1.086644218E0,2.554931678E0
7.644280458E0,1.093587202E-1,1.359577627E0,-1.128910232E0,1.770550469E0
7.654250458E0,3.983136093E-2,1.147992035E0,-1.156817238E0,1.630244881E0
7.664220458E0,2.601974420E-1,5.365425548E-1,-6.376447141E-2,5.997053691E-1
7.674191458E0,2.495600777E-2,6.246869919E-1,9.383868957E-1,1.127575543E0
7.684161458E0,3.451113655E-1,-4.386133870E-1,8.035582888E-1,9.783606091E-1
7.694131458E0,2.934074525E-1,-9.269213828E-1,5.511357433E-1,1.117596435E0
7.704101458E0,1.668829151E-1,-8.719613564E-1,1.243821468E0,1.528155214E0
7.714072458E0,2.258985704E-1,-8.903771621E-1,1.097279719E0,1.431022165E0
7.724042458E0,3.733124866E-1,-6.048754558E-1,6.760135585E-1,9.809336680E-1
7.734012458E0,5.803077214E-1,-1.798511149E0,-2.649069357E-1,1.908291143E0
7.743982458E0,2.043725941E-1,-1.450172047E0,-3.715467006E-1,1.510898433E0
7.753953458E0,-1.050806049E-1,-1.420233718E0,9.952721179E-2,1.427589371E0
7.763923167E0,-6.726321137E-1,-1.063600049E0,5.440974498E-1,1.371029197E0
7.773893167E0,-1.548116491E-1,-8.551693225E-1,2.201581943E-1,8.965215264E-1
7.783863167E0,-4.879825252E-1,-7.079215220E-1,8.371300775E-1,1.200027747E0
7.793834167E0,-2.476298752E-1,-1.244832744E0,1.611653432E0,2.051427771E0
7.803804167E0,-6.977526292E-1,-8.383971691E-2,8.003657091E-1,1.065116472E0
7.813774167E0,-9.704353385E-1,-4.318083975E-1,5.305184609E-1,1.187288118E0
7.823744167E0,-4.272216953E-1,-3.439937434E-1,-7.708852172E-2,5.538887186E-1
7.833715167E0,-3.088605654E-1,-1.146281725E0,-4.147038299E-1,1.257511792E0
7.843685167E0,-3.050476691E-1,-4.551458046E-1,-5.977567631E-1,8.108791104E-1
7.853655167E0,4.560406113E-2,6.286049187E-2,-9.338132036E-1,9.370369635E-1
7.863625167E0,-3.783234408E-1,-6.129413974E-1,-1.647453010E-2,7.204839989E-1
7.873596167E0,5.494820045E-1,-2.611322656E-1,-2.103529984E-1,6.437149348E-1
7.883566167E0,-8.462558270E-2,-1.162853318E-1,-6.306075901E-1,6.467995828E-1
7.893536167E0,1.133858803E-1,-2.141019407E-1,3.033184648E-1,3.881985187E-1
7.903506167E0,3.875530514E-1,-2.158321318E-1,1.092064587E0,1.178722163E0
7.913476167E0,2.497141153E-2,5.241148826E-1,-2.549836260E-1,5.833837769E-1
7.923447167E0,-1.780388910E-1,-1.221933585E-1,-4.102055669E-1,4.635705671E-1
7.933417167E0,4.781045314E-1,-9.500515062E-1,7.539949501E-1,1.303721670E0
7.943387167E0,3.678570344E-1,-1.675391006E-1,7.455527401E-1,8.480784376E-1
7.953358167E0,1.943735447E-1,7.161716509E-1,8.339942157E-2,7.467518811E-1
7.963328167E0,-3.231818218E-1,1.285241097E0,-6.097441399E-1,1.458793708E0
7.973298167E0,-4.025930768E-1,9.792706275E-1,-2.587568343E-2,1.059113638E0
7.983268167E0,-7.437257045E-1,4.649141631E-1,1.026244819E-1,8.830656186E-1
7.993239167E0,-1.983853011E-1,1.378071785E0,-4.459057420E-1,1.461940663E0
8.003209167E0,-4.550866015E-2,1.673456163E0,-7.476934057E-1,1.833459025E0
8.013179167E0,2.753222703E-1,1.763337223E0,-2.278893828E-1,1.799192620E0
8.023149167E0,-1.369832327E-1,8.341833732E-1,1.911735463E-1,8.667027350E-1
8.033120167E0,1.686100182E-1,1.547651564E0,-1.629437739E-1,1.565313187E0
8.043090167E0,5.415448112E-2,1.718123336E0,-7.336402076E-1,1.868985944E0
8.053060167E0,-2.382554912E-1,7.239773914E-1,-9.592018139E-1,1.225143690E0
8.063030167E0,-3.906714081E-1,-1.039156348E0,-1.199962673E0,1.634741717E0
8.073001167E0,-1.570045011E-2,-8.236621857E-2,-5.496657532E-1,5.560244045E-1
8.082971167E0,1.049652868E-1,-8.779839885E-1,6.965782160E-1,1.125653058E0
8.092941167E0,2.730231817E-1,-8.522316813E-1,6.084963441E-1,1.082177572E0
8.102911167E0,-2.504018940E-1,-1.171257229E0,3.441659439E-1,1.246192121E0
8.112882167E0,-4.722942628E-1,-1.461487871E0,8.087143636E-1,1.735807475E0
8.122852167E0,-4.833505802E-1,-1.071409005E0,7.466578639E-1,1.392495244E0
8.132822167E0,-4.839009494E-1,-6.013188869E-2,6.371213883E-1,8.023089407E-1
8.142792167E0,-6.353979946E-1,-7.751814589E-1,1.213983711E0,1.574291382E0
8.152762167E0,-7.379436853E-1,-6.427151272E-1,2.058009410E-1,9.999988223E-1
8.162733167E0,-8.095310734E-1,-4.722021326E-1,2.014517820E-1,9.585917971E-1
8.172703167E0,-3.218692680E-1,2.379366535E-1,3.880697626E-1,5.575049932E-1
8.182673167E0,4.166377234E-1,3.601893613E-1,-3.090499055E-1,6.315340154E-1
8.192644167E0,7.645705166E-1,-9.971666157E-1,4.370004326E-1,1.330367886E0
8.202614167E0,8.628579725E-1,-1.134363345E0,6.111153120E-1,1.550730797E0
8.212584167E0,7.688407382E-1,-6.160433453E-1,1.698762327E-1,9.997416759E-1
8.222554167E0,1.108939944E0,1.092025995E-1,2.004150707E-1,1.132183380E0
8.232524167E0,1.409127224E0,-6.261204368E-1,2.278683329E-1,1.558714314E0
8.242495167E0,1.136073875E0,-1.850304908E0,-5.921598083E-1,2.250543343E0
8.252465167E0,8.189892371E-1,-1.984701113E0,-5.931427252E-1,2.227464965E0
8.262435167E0,5.997316602E-1,-5.844005531E-1,2.812294382E-1,8.833414219E-1
8.272405167E0,-2.583237200E-1,7.117885780E-1,9.033649975E-1,1.178746132E0
8.282376167E0,1.211462684E-1,-2.735701704E-1,1.547118298E0,1.575783007E0
8.292346167E0,-4.214708856E-1,-1.033367897E0,1.065660900E0,1.543087837E0
8.302316167E0,-3.788636139E-1,-6.969141385E-1,2.726404631E-1,8.387847021E-1
8.312286167E0,-7.931269292E-1,-6.295053899E-2,1.936650449E-1,8.188523956E-1
8.322257167E0,-9.041445775E-1,3.497959355E-1,8.387129188E-2,9.730719435E-1
8.332227167E0,-1.068072145E0,2.699571759E-1,-7.087141120E-1,1.309935371E0
8.342197167E0,-6.476377518E-1,1.054545343E-3,-4.259924644E-1,7.751808495E-1
8.352167167E0,3.305312237E-2,-8.677735806E-2,5.556024313E-2,1.082116416E-1
8.362138167E0,4.981708964E-2,-2.258720934E-2,2.157084632E-1,2.225355377E-1
8.372108167E0,5.436821513E-2,-1.218530506E-2,7.140514505E-1,7.162219338E-1
8.382078167E0,5.442652649E-1,7.310770807E-1,-1.930804988E0,2.135112708E0
8.392048167E0,4.970526530E-1,8.315699601E-1,-2.347936581E0,2.539955930E0
8.402019167E0,4.553658792E-1,-1.737359798E-1,-6.480369705E-1,8.108601542E-1
8.411989167E0,3.605470647E-1,-6.075186896E-1,1.223640972E0,1.412929713E0
8.421959167E0,7.519381189E-1,1.065078517E0,2.393984574E-1,1.325562071E0
8.431929167E0,5.810758263E-1,2.077389421E0,-4.340493429E-1,2.200362415E0
8.441900167E0,6.962874632E-1,1.331851592E0,-1.092967397E-1,1.506847926E0
8.451870167E0,5.915697877E-1,8.548275527E-1,-6.558710700E-1,1.229167124E0
8.461840167E0,-3.388800975E-1,1.233727127E0,-1.002326199E0,1.625293867E0
8.471810167E0,-6.970458470E-1,9.825629023E-1,-1.024128127E-1,1.209045555E0
8.481781167E0,-4.920524431E-1,8.850228667E-1,-1.438765883E-1,1.022781284E0
8.491751167E0,-7.672267605E-1,-3.294268674E-1,-5.706531644E-2,8.369082467E-1
8.501721167E0,-8.717048829E-1,-3.379959619E-1,-4.279506969E-1,1.028227831E0
8.511691167E0,-1.115090045E0,-6.545665562E-3,5.581015313E-1,1.246974728E0
8.521662167E0,-1.091559972E0,-8.402583379E-1,1.264453953E0,1.869861237E0
8.531632167E0,-5.867130173E-1,-5.769810212E-1,9.707909954E-1,1.272625012E0
8.541602167E0,-2.917161636E-1,-9.818834558E-1,4.510226405E-1,1.119202780E0
8.551572167E0,-3.898981138E-1,-8.453477544E-1,1.064234179E0,1.413940506E0
8.561543167E0,8.018475945E-2,-4.592043570E-1,3.103129041E-1,5.599931567E-1
8.571513167E0,-3.981609239E-1,-2.440836851E0,7.573383880E-1,2.586460533E0
8.581483167E0,6.141513325E-1,-1.998785301E0,-3.553206772E-1,2.120984989E0
8.591453167E0,4.040805719E-1,-8.976753643E-1,-4.549753582E-1,1.084483631E0
8.601424167E0,2.086012822E-1,3.912494785E-1,-1.535496372E-1,4.692207800E-1
8.611394167E0,-9.921095964E-2,2.751641214E-2,7.369696122E-1,7.441264522E-1
8.621364167E0,3.701670135E-1,-8.648982123E-1,-2.449521428E-1,9.721492106E-1
8.631334167E0,2.375989951E-1,-1.065498055E0,-1.577128547E-1,1.103001692E0
8.641305167E0,7.981132885E-1,-2.137701112E-1,1.337006789E-1,8.369936399E-1
8.651275167E0,-8.248578499E-2,-1.362108886E-1,8.262314522E-1,8.414367020E-1
8.661245167E0,3.625018985E-1,-4.739682841E-1,8.623695838E-1,1.048682440E0
8.671215167E0,2.163780059E-1,-2.344087359E-1,-2.233396643E-1,3.894194430E-1
8.681185167E0,5.119990498E-1,2.135441163E-1,-4.771012223E-1,7.316896152E-1
8.691156167E0,4.228979717E-1,2.609819922E-1,2.640175742E-1,5.627251320E-1
8.701126167E0,1.042056860E0,-2.503915152E-1,6.470926452E-1,1.251921444E0
8.711096167E0,9.982979789E-1,-3.346089622E-1,2.079380983E-1,1.073219579E0
8.721066167E0,1.014256419E0,6.962922871E-1,-3.675033510E-2,1.230808523E0
8.731037167E0,4.355226585E-1,2.894602713E-1,1.260039890E-1,5.379072782E-1
8.741007167E0,2.953339456E-1,-4.778683770E-1,3.820746124E-1,6.793830544E-1
8.750977167E0,3.296091543E-1,-9.361298704E-1,-2.891535848E-1,1.033726813E0
8.760947167E0,1.301434888E-1,-5.547025448E-1,-3.305483633E-1,6.587066581E-1
8.770918417E0,4.875421933E-1,7.534456041E-1,-6.719076437E-1,1.121087664E0
8.780888417E0,2.897593747E-1,4.401801485E-1,6.684256268E-1,8.511826342E-1
8.790858417E0,-7.406101618E-3,-5.285757235E-1,4.570750934E-1,6.988310145E-1
8.800828417E0,1.327611136E-1,2.051352355E-1,1.571146846E-3,2.443531187E-1
8.810799417E0,2.518302592E-2,1.235961933E0,9.407059014E-2,1.239792467E0
8.820769417E0,-4.808488855E-1,1.303804252E0,4.322630185E-1,1.455325564E0
8.830739417E0,-7.395614637E-1,1.067843665E0,-2.990809876E-1,1.332925613E0
8.840709417E0,-7.935291445E-1,1.275019872E0,-1.229650156E0,1.940980083E0
8.850680417E0,-1.085931954E0,1.728237849E0,-1.200143936E0,2.367783719E0
8.860650417E0,-6.805167186E-1,1.446522215E0,-9.356217474E-1,1.852273624E0
8.870620417E0,-9.653237025E-1,4.402166936E-1,-3.342186606E-1,1.112359070E0
8.880590417E0,-7.493996964E-1,4.371232241E-1,-8.514586794E-1,1.215589775E0
8.890561417E0,-2.364438959E-1,1.010556740E0,-7.846448851E-1,1.301075799E0
8.900531417E0,-2.123421846E-1,-8.323862314E-2,-1.777945322E-1,2.891863887E-1
8.910501417E0,-1.001425947E-1,-9.536276633E-1,2.164025277E-1,9.829874431E-1
8.920471417E0,-1.652376731E-1,-1.705880435E0,4.210948366E-1,1.764837786E0
8.930442417E0,-2.763280097E-1,-8.744230342E-1,1.232662641E0,1.536369096E0
8.940412417E0,9.342527680E-2,-5.932830584E-1,1.418922772E0,1.540796841E0
8.950382417E0,-5.331790171E-1,-7.663659042E-1,9.704571193E-1,1.346619317E0
8.960352417E0,-7.480990563E-1,-7.174939987E-1,3.762572175E-1,1.102732665E0
8.970323417E0,-6.660306072E-1,-1.833335996E-2,-1.314495009E-1,6.791258007E-1
8.980293417E0,-8.159800407E-1,-3.676840299E-1,-4.631205297E-1,1.007718015E0
8.990263417E0,-4.107915675E-2,-3.110616401E-1,-3.640219188E-1,4.805817292E-1
9.000233417E0,1.801420796E-1,-1.322533469E0,5.793538213E-1,1.455059035E0
9.010203417E0,5.156437655E-1,-1.405293205E0,1.104910335E0,1.860527972E0
9.020174417E0,5.108190086E-1,-8.962369493E-1,1.467938812E0,1.794163059E0
9.030144417E0,6.424110720E-1,4.030778110E-2,1.524446889E0,1.654767361E0
9.040114417E0,4.623922955E-1,-7.783784240E-2,1.622001250E0,1.688417430E0
9.050084417E0,3.973139547E-1,-8.232774389E-1,7.972789639E-1,1.212970678E0
9.060055417E0,5.892724897E-1,-1.146025032E-1,-1.117087162E-1,6.106182426E-1
9.070025417E0,3.155984947E-1,2.126179174E-1,-9.193243879E-1,9.949704110E-1
9.079995417E0,4.267811076E-1,-3.850713104E-1,-1.077186347E0,1.220963740E0
9.089965417E0,-4.982124482E-1,-1.706508426E0,-6.537344974E-1,1.894137124E0
9.099936417E0,-3.224100624E-1,-1.917863053E0,3.114911181E-1,1.969561792E0
9.109906417E0,-3.740691163E-1,-4.471213782E-1,9.244243294E-1,1.092888636E0
9.119876417E0,-2.536946439E-1,7.157582527E-1,-1.158321726E-1,7.681718173E-1
9.129846417E0,-3.295214461E-1,4.261389372E-1,-3.785993198E0,3.824123856E0
9.139817417E0,-3.271593171E-1,-2.058059988E0,-2.890054164E0,3.563012378E0
9.149787417E0,-2.128120997E-1,-2.994804986E0,-1.230721951E-1,3.004878144E0
9.159757417E0,1.763324907E-1,-1.326937007E0,1.466414443E0,1.985504038E0
9.169727417E0,-4.658632027E-1,9.013199338E-1,2.162072307E0,2.388297052E0
9.179698417E0,-4.774393741E-1,3.377913094E-1,2.530406547E0,2.597115442E0
9.189668417E0,-4.083917240E-1,-5.243464324E-1,1.194832910E0,1.367241261E0
9.199638417E0,9.210991823E-2,4.750219524E-2,-3.547622681E-2,1.095411259E-1
9.209608417E0,3.486696886E-1,1.735263571E0,-4.924115717E-2,1.770631216E0
9.219579417E0,1.480627653E-1,1.216372299E0,-6.148002273E-1,1.370935254E0
9.229549417E0,-2.777769132E-2,5.140407148E-1,-9.537264812E-1,1.083791335E0
9.239519417E0,7.769797701E-1,3.815086019E-1,-9.583025122E-1,1.291352036E0
9.249489417E0,7.150885273E-1,1.342334772E0,-6.804743993E-1,1.666211166E0
9.259460417E0,6.827111055E-1,1.013303761E0,4.761767775E-1,1.311344078E0
9.269430417E0,6.455495650E-1,4.928875351E-1,2.301200956E-1,8.441727439E-1
9.279400417E0,7.202671138E-1,7.585402831E-1,-3.601025301E-1,1.106273885E0
9.289370417E0,8.251013316E-2,1.012414692E0,-1.419271266E-1,1.025638699E0
9.299340417E0,4.140226110E-2,1.333981732E0,-2.162271112E-1,1.352026469E0
9.309311417E0,-7.363584320E-1,-1.947938499E-1,-3.735669136E-1,8.483634972E-1
9.319281417E0,-6.216765529E-1,-2.445840898E0,-3.273119295E-1,2.544749995E0
9.329251417E0,-2.961845693E-1,-6.687790909E-1,-4.549250722E-1,8.613637982E-1
9.339221417E0,-3.584520439E-1,-3.761662933E-1,1.886785394E-1,5.528006324E-1
9.349192417E0,-3.925898430E-1,8.736117330E-1,1.766098863E0,2.009086717E0
9.359162417E0,-4.728446320E-1,-4.534129822E-1,1.902065338E0,2.011720142E0
9.369132417E0,-7.214399191E-1,-1.171138238E0,6.155615348E-1,1.506969254E0
9.379102417E0,6.701915042E-2,-8.075949141E-1,-8.567159110E-1,1.179263865E0
9.389073417E0,-2.003666484E-1,-4.292967260E-1,-5.868534601E-1,7.542144631E-1
9.399043417E0,9.587641133E-2,-6.174700660E-1,-2.902949613E-1,6.890085146E-1
9.409013417E0,-3.225277376E-1,-3.855431807E-1,-4.997831565E-1,7.088377030E-1
9.418983417E0,2.464013387E-1,-4.602036461E-1,-3.866371948E-1,6.496070628E-1
9.428954417E0,-2.404365209E-1,4.767185220E-1,-3.238527167E-1,6.244604486E-1
9.438924417E0,-3.894173996E-1,-4.795263550E-1,4.160913742E-1,7.447976020E-1
9.448894417E0,-4.578546734E-1,-5.106548846E-1,7.198828787E-1,9.942990858E-1
9.458864417E0,-3.940044672E-1,-2.006559759E-2,3.512054068E-1,5.281925654E-1
9.468835417E0,-5.938194674E-1,1.079448634E-1,7.564472723E-1,9.677221343E-1
9.478805417E0,-4.466392821E-3,6.082361430E-2,6.118830514E-1,6.149148960E-1
9.488775417E0,4.662026336E-1,-3.321431914E-1,1.564475173E-1,5.934137012E-1
9.498745417E0,7.370123700E-1,-2.411941373E-1,-9.580545902E-2,7.813709307E-1
9.508715417E0,8.749827589E-1,-4.325916320E-1,-7.918591797E-2,9.792858408E-1
9.518686417E0,8.229871977E-1,-3.961006209E-1,-3.661842191E-1,9.840195688E-1
9.528656417E0,4.891568288E-1,-8.524281478E-1,-2.900517172E-1,1.024713691E0
9.538626417E0,5.137452477E-1,-1.010123461E0,-2.468805546E-1,1.159842056E0
9.548596417E0,4.898177834E-1,-1.226889101E0,1.099101126E-1,1.325616294E0
9.558567417E0,2.673269155E-1,-8.071034557E-1,9.457163805E-1,1.271715039E0
9.568537417E0,4.446487734E-3,-1.242426030E0,1.262812055E0,1.771535068E0
9.578507417E0,-7.908551945E-2,-7.156892556E-1,8.469797122E-1,1.111683526E0
9.588477417E0,-5.114735679E-1,4.022562772E-2,4.291025984E-1,6.688440414E-1
9.598448417E0,-5.133299126E-1,1.984577152E-1,4.080432665E-1,6.851221579E-1
9.608418417E0,-1.974885758E-1,5.810322645E-1,-6.484217173E-1,8.927771018E-1
9.618388417E0,-2.743192901E-2,2.375136074E-1,5.964159966E-3,2.391668783E-1
9.628358417E0,-5.289936715E-2,9.870474243E-1,-9.888419348E-1,1.398166418E0
9.638329417E0,-1.713365383E-1,1.641264317E0,-1.238353152E0,2.063158573E0
9.648299417E0,2.777522635E-1,1.450033760E0,-1.025605134E0,1.797667966E0
9.658269417E0,-2.451149512E-1,1.381990004E0,-1.145347924E0,1.811573785E0
9.668239417E0,-2.380844967E-1,1.676586762E0,-1.227237010E0,2.091348387E0
9.678209417E0,-1.698601529E-1,1.488056450E0,-2.087286419E-1,1.512194470E0
9.688180417E0,-3.396442920E-2,1.216270265E0,1.706866568E-1,1.228658160E0
9.698150417E0,-1.596971439E-1,2.182853311E-1,-1.602458686E-1,3.143730299E-1
9.708120417E0,4.204723639E-3,-3.822070518E-1,-1.853122973E-1,4.247829536E-1
9.718090417E0,-6.404531318E-1,-8.649867976E-1,8.540168363E-1,1.373945825E0
9.728061417E0,-4.002240409E-1,-1.446191847E-1,1.461218607E0,1.521924377E0
9.738031417E0,-1.077413876E0,-1.840127537E-1,9.395516610E-1,1.441332258E0
9.748001417E0,-1.056839206E0,-1.626721707E-1,1.112279581E0,1.542898962E0
9.757971417E0,-5.506780890E-1,-5.285441485E-1,6.778893453E-1,1.020852212E0
9.767941917E0,-2.231089551E-1,-1.365687382E-1,-4.663563788E-2,2.657132079E-1
9.777911917E0,-5.742129127E-1,-4.443495056E-1,-9.695355982E-1,1.211266374E0
9.787881917E0,-2.985814892E-2,-3.573835748E-1,-1.474678897E0,1.517660166E0
9.797851917E0,-2.767174160E-1,-1.712236359E0,1.602119547E-1,1.741836315E0
9.807822917E0,-3.799314251E-2,-1.519873196E0,1.497333934E0,2.133885405E0
9.817792917E0,-1.570343219E-1,-7.647260526E-1,1.697640831E0,1.868542241E0
9.827762917E0,6.101078002E-2,6.048932898E-1,1.541559935E-2,6.081577493E-1
9.837732917E0,4.701453014E-1,-3.345572144E-1,-1.424040256E0,1.536507658E0
9.847702917E0,5.172835806E-1,-2.013188748E0,-9.547918439E-2,2.080775699E0
9.857673917E0,5.779048812E-1,-2.144184797E0,5.944922626E-1,2.298896158E0
9.867643917E0,1.259394796E0,-3.602522188E-1,5.668594909E-1,1.427300457E0
9.877613917E0,1.034755003E0,-5.308687091E-2,1.118614454E0,1.524740774E0
9.887583917E0,6.130023547E-1,-5.844742280E-1,1.228999361E0,1.492588838E0
9.897554917E0,5.025513380E-1,-1.402618981E0,1.584759164E-1,1.498336567E0
9.907524917E0,5.522765350E-1,-8.972874016E-1,-6.116503322E-1,1.218298067E0
9.917494917E0,9.902119009E-2,1.755053473E-1,-5.334163409E-1,5.702107644E-1
9.927464917E0,-2.126617715E-1,-4.036283264E-1,-2.987459421E-1,5.453347530E-1
9.937435917E0,-1.795029790E-1,-9.466194829E-1,-1.092505467E-1,9.696625428E-1
9.947405917E0,-3.503025967E-1,-3.073802331E-1,-1.665591073E-1,4.949105507E-1
9.957375917E0,-9.954866376E-3,3.107818508E-1,9.795781910E-2,3.260064301E-1
9.967345917E0,7.734028090E-2,-7.870542303E-1,1.223652082E0,1.456969560E0
9.977316917E0,3.400967569E-1,-9.508762559E-1,7.283315206E-1,1.245109739E0
9.987286917E0,3.613597911E-1,2.779824793E-2,-2.495720279E-1,4.400452685E-1
9.997256917E0,7.086010415E-1,1.108903983E0,2.054653108E-1,1.331915716E0
1.000722692E1,4.082793479E-1,1.387926098E0,2.130549967E-2,1.446887972E0
1.001719692E1,1.041834044E-1,-4.811518809E-1,-6.281231081E-1,7.980601188E-1
1.002716792E1,2.892993267E-1,-1.014528461E0,-1.231483258E0,1.621577353E0
1.003713792E1,6.522812451E-1,1.061497390E0,-1.481047100E0,1.935393511E0
1.004710792E1,5.751554473E-1,1.202033464E0,-2.211066127E-1,1.350768808E0
1.005707792E1,7.991617674E-1,1.241873176E0,4.816567880E-1,1.553351788E0
1.006704892E1,2.841615793E-1,-1.978902429E-2,6.434077299E-1,7.036426049E-1
1.007701892E1,2.061806263E-1,4.546490836E-1,4.864830798E-1,6.970523846E-1
1.008698892E1,-5.895716479E-2,1.518401452E0,-1.345672363E-1,1.525492464E0
1.009695892E1,-6.747774571E-1,1.231866251E0,5.892169046E-1,1.523153189E0
1.010692992E1,-5.935576948E-1,5.435755858E-1,2.743922889E-1,8.503389223E-1
1.011689992E1,-3.771748649E-1,4.432505214E-1,-9.986629182E-1,1.155880412E0
1.012686992E1,-1.959429374E-1,7.057250154E-1,-6.207626331E-1,9.600977444E-1
1.013683992E1,-2.273118972E-1,2.092768183E-1,-3.974229687E-1,5.034009350E-1
1.014681092E1,-6.791094399E-1,-6.982592905E-1,1.615474588E-1,9.873465701E-1
1.015678092E1,-3.138310641E-1,-1.503068883E0,9.705097443E-1,1.816478783E0
1.016675092E1,-9.869023768E-2,-9.019979185E-1,1.439564613E0,1.701671614E0
1.017672092E1,2.425400202E-1,2.325548762E-1,1.176320041E0,1.223370864E0
1.018669092E1,4.426538862E-1,-4.120699516E-1,9.761675102E-1,1.148323611E0
1.019666192E1,1.136906957E0,-1.653861266E0,7.270012790E-1,2.134559762E0
1.020663192E1,7.212170671E-1,-8.874251953E-1,-3.972516453E-1,1.210572759E0
1.021660192E1,1.057604752E0,-5.691261640E-1,-4.670434266E-1,1.288627939E0
1.022657192E1,6.786273370E-1,-8.842586356E-1,4.195622814E-1,1.190999960E0
1.023654292E1,7.086792480E-1,-1.282083016E0,5.689615649E-1,1.571521682E0
1.024651292E1,4.595270502E-1,-3.449003541E-1,-1.313033205E-1,5.893741818E-1
1.025648292E1,1.411898202E-1,-1.244676331E-1,5.733493155E-1,6.034535563E-1
1.026645292E1,-3.731830804E-1,1.120668581E-1,8.763303959E-1,9.590513829E-1
1.027642392E1,-5.382790317E-1,-4.727880237E-1,1.176611817E0,1.377566042E0
1.028639392E1,-4.286079605E-1,1.666564634E-1,3.806005293E-1,5.969387938E-1
1.029636392E1,-6.519309969E-1,4.891745532E-1,-2.696595526E-1,8.584998791E-1
1.030633392E1,-1.927319937E-1,4.107630989E-1,-6.494929272E-1,7.922834135E-1
1.031630392E1,5.043343003E-1,-8.680937156E-1,-8.111269248E-1,1.290684576E0
1.032627492E1,1.393104337E-1,-1.361551354E0,3.787013537E-1,1.420085984E0
1.033624492E1,9.680192690E-1,-4.191526839E-1,-3.118173927E-1,1.099991074E0
1.034621492E1,2.961999182E-1,3.367373487E-1,5.527799803E-1,7.118231102E-1
1.035618492E1,2.407990483E-1,-2.573245588E-1,5.053292406E-1,6.160825850E-1
1.036615592E1,1.585740765E-1,-6.006517196E-1,-8.259004998E-1,1.033460140E0
1.037612592E1,2.468211140E-2,-2.118978328E-1,-1.328259355E0,1.345281685E0
1.038609592E1,-3.680133744E-1,-9.568091333E-3,-1.057304059E0,1.119561193E0
1.039606592E1,-3.093601003E-1,-7.680729988E-1,-4.153300667E-1,9.263578507E-1
1.040603692E1,-4.663353288E-1,-1.567608696E0,-8.641132236E-2,1.637782824E0
1.041600692E1,-2.504125652E-1,-7.480503783E-1,4.107411718E-1,8.893785085E-1
1.042597692E1,-5.830130819E-1,5.657379949E-1,1.087463998E0,1.357402548E0
1.043594692E1,-4.277523302E-1,1.162751869E0,1.605017427E0,2.027571184E0
1.044591792E1,-5.965867352E-1,9.187028289E-1,1.014283755E0,1.492883839E0
1.045588792E1,-4.157183218E-1,1.022679772E0,-6.644425035E-1,1.288479522E0
1.046585792E1,5.598142538E-2,1.895385186E0,-1.441858476E0,2.382136602E0
1.047582792E1,5.183285146E-1,1.579010181E0,-9.687713671E-1,1.923656821E0
1.048579792E1,4.143730237E-1,9.044274366E-1,-9.379629725E-1,1.367285094E0
1.049576892E1,2.862029336E-2,1.715116990E-1,-8.525562018E-1,8.701077297E-1
1.050573892E1,3.180418269E-1,6.546595269E-1,1.452676409E-1,7.421808320E-1
1.051570892E1,-3.130453080E-1,7.726770964E-1,1.204455673E0,1.464834710E0
1.052567892E1,-4.059816845E-1,6.995313522E-1,4.769410086E-1,9.389557852E-1
1.053564992E1,-2.649261584E-1,1.818472373E-1,-3.346712351E-1,4.639602599E-1
1.054561992E1,-3.479515044E-1,-1.028708836E0,-2.314684635E-1,1.110355694E0
1.055558992E1,-3.868511298E-1,-1.201133870E0,3.250186515E-1,1.303078468E0
1.056555992E1,-5.825621885E-1,-1.548128112E0,1.065983081E0,1.967841275E0
1.057553092E1,-7.915090777E-1,-1.236919122E0,1.543970742E0,2.130798251E0
1.058550092E1,-5.819155230E-1,-5.181592011E-1,1.025039708E0,1.287563993E0
1.059547092E1,-5.833246654E-1,-2.689681193E-1,9.200529510E-1,1.122100239E0
1.060544092E1,-2.346338172E-1,-4.407376805E-1,5.515339386E-1,7.439707095E-1
1.061541192E1,-4.530737706E-1,-6.398166624E-1,7.620676160E-2,7.876856439E-1
1.062538192E1,-1.414479108E-1,-5.380789107E-1,-3.952092129E-1,6.824417540E-1
1.063535192E1,7.017389685E-3,-4.205615705E-1,-1.039399885E0,1.121282034E0
1.064532192E1,1.679742431E-1,-1.023269171E0,-2.040806901E-1,1.056855747E0
1.065529192E1,7.609216348E-1,-1.371459461E0,-2.000981516E-1,1.581120507E0
1.066526292E1,6.032585545E-1,-1.047062953E0,-9.118674338E-2,1.211848478E0
1.067523292E1,2.949302867E-1,-6.543604419E-1,7.628382790E-1,1.047422408E0
1.068520292E1,7.319876383E-1,-1.990862909E-1,1.078353451E0,1.318441284E0
1.069517292E1,7.582651716E-1,-6.386188602E-1,6.695670033E-1,1.196294316E0
1.070514392E1,-8.907207957E-2,-8.335246843E-1,-4.429850578E-3,8.382820875E-1
1.071511392E1,1.308697678E-1,-6.302547106E-1,-6.794359338E-1,9.359386115E-1
1.072508392E1,-2.031574331E-1,-9.595883149E-1,-4.929027379E-1,1.097741220E0
1.073505392E1,-4.539797967E-1,-1.238933780E0,1.444858682E-1,1.327377389E0
1.074502492E1,-2.511210833E-1,-2.477471119E-1,-2.176164097E-1,4.144844167E-1
1.075499492E1,-1.611427218E-1,6.759600565E-1,-1.362032872E-1,7.081245019E-1
1.076496567E1,-2.218078948E-1,6.889394134E-2,5.160068411E-1,5.658693996E-1
1.077493567E1,1.186316368E-1,-1.079082014E0,1.431466804E0,1.796549100E0
1.078490567E1,-1.157809181E-1,-7.141973385E-1,8.981709158E-1,1.153340389E0
1.079487667E1,1.039963483E-1,4.570481962E-1,-5.262727976E-2,4.716756562E-1
1.080484667E1,2.569352804E-1,9.091233355E-1,-7.305943930E-1,1.194273480E0
1.081481667E1,7.940198721E-1,2.886837611E-1,-1.367853191E0,1.607740098E0
1.082478667E1,7.359171134E-1,-1.012911706E0,5.791672951E-1,1.379492253E0
1.083475767E1,9.212209323E-1,-2.672849983E-1,1.130685446E0,1.482747064E0
1.084472767E1,1.157349919E0,1.090159272E0,5.577775955E-1,1.684939737E0
1.085469767E1,9.114364940E-1,1.195132872E0,4.273338157E-1,1.562585439E0
1.086466767E1,4.048276268E-1,4.198794928E-1,-1.094253784E-1,5.934291107E-1
1.087463867E1,5.300810891E-1,9.208163050E-1,-1.051524671E0,1.494855432E0
1.088460867E1,1.908867404E-1,1.865799152E0,-1.381921007E0,2.329667335E0
1.089457867E1,2.801015651E-1,9.091101792E-1,-7.156144112E-1,1.190395812E0
1.090454867E1,2.476612858E-1,-1.149103591E-1,-4.967338336E-1,5.668200812E-1
1.091451867E1,-2.155151762E-1,3.284854656E-1,-5.938917536E-1,7.120792844E-1
1.092448967E1,-2.970518027E-1,9.487013841E-1,-4.841243130E-1,1.105735249E0
1.093445967E1,-7.423793100E-1,5.164260864E-1,3.349992639E-1,9.643896772E-1
1.094442967E1,-8.904262787E-1,-3.865021241E-1,2.570307362E-1,1.004145233E0
1.095439967E1,-1.430789112E0,-1.246078785E0,1.925488114E-3,1.897333268E0
1.096437067E1,-1.390986676E0,-7.920731878E-1,2.751214367E-1,1.624166147E0
1.097434067E1,-1.250301060E0,-3.663640210E-1,1.057134490E0,1.677798756E0
1.098431067E1,-9.087453130E-1,-9.111520270E-1,9.315199256E-1,1.588630049E0
1.099428067E1,-8.241389530E-1,-1.753757437E0,4.476189762E-1,1.988776737E0
1.100425167E1,-5.814493903E-1,-1.179935082E0,1.861718380E-1,1.328529316E0
1.101422167E1,-3.690060123E-1,-1.642696300E-1,8.600184184E-1,9.501482140E-1
1.102419167E1,-2.171520128E-1,-3.185908073E-1,7.698520142E-1,8.610036138E-1
1.103416167E1,-4.746770763E-1,-3.250642598E-2,1.245860392E-1,4.918299255E-1
1.104413167E1,-6.092945621E-1,-1.129309012E0,-8.666707957E-1,1.548449862E0
1.105410267E1,-3.686360663E-1,-1.357016838E0,-7.071295166E-1,1.573982021E0
1.106407267E1,-4.171943052E-1,-7.778337559E-1,3.415814745E-1,9.464429956E-1
1.107404267E1,-1.990024930E-1,-4.375658584E-1,4.527499080E-1,6.603395731E-1
1.108401267E1,-3.397870737E-1,-2.080184975E-1,-2.719306111E-1,4.823621130E-1
1.109398367E1,-4.567496958E-1,3.538062483E-2,9.272999901E-1,1.034290745E0
1.110395367E1,-3.462334097E-1,-8.404904723E-2,1.457353597E0,1.500273750E0
1.111392367E1,-7.255717079E-1,7.030984461E-3,2.251113707E-1,7.597228884E-1
1.112389367E1,-1.513663234E-1,-1.210110515E-2,-4.217947483E-1,4.482956729E-1
1.113386467E1,1.051705880E-1,-1.523360476E-1,-2.965479738E-1,3.495823576E-1
1.114383467E1,4.290304219E-1,-2.457011712E-1,4.389522332E-1,6.611469061E-1
1.115380467E1,7.605855661E-1,1.138277471E-1,5.679184216E-1,9.560222241E-1
1.116377467E1,3.475303221E-1,2.152754769E-1,-2.623961413E-1,4.857701007E-1
1.117374467E1,8.486106469E-1,-5.210249215E-2,-7.917761493E-1,1.161793514E0
1.118371567E1,7.190193180E-1,1.780067861E-2,-1.089666644E0,1.305633577E0
1.119368567E1,2.465077580E-1,-3.304352197E-1,-3.865027088E-1,5.650998612E-1
1.120365567E1,4.713470230E-2,-5.693752554E-1,-4.376459652E-1,7.196831612E-1
1.121362567E1,-1.282040313E-1,-4.742530435E-1,2.202447331E-1,5.383864461E-1
1.122359667E1,-3.650772681E-1,-6.092538509E-1,1.061760807E0,1.277422279E0
1.123356667E1,-1.810238397E-1,-1.517472330E-1,5.674032819E-1,6.146082798E-1
1.124353667E1,-1.387158724E-2,5.578875232E-1,1.671736497E-1,5.825615320E-1
1.125350667E1,5.138470532E-2,6.889049149E-1,6.538572890E-1,9.511885849E-1
1.126347667E1,1.138783712E-1,6.418205032E-1,2.510870415E-1,6.985317059E-1
1.127344767E1,9.754205466E-2,1.276220013E0,-8.423510563E-1,1.532255617E0
1.128341767E1,4.531759507E-1,1.352566523E0,-1.116688381E0,1.811573234E0
1.129338767E1,7.958137979E-1,1.380873478E0,-1.085588211E0,1.928375723E0
1.130335767E1,6.219512989E-1,9.804947421E-1,-4.985306829E-1,1.263616318E0
1.131332867E1,6.017244644E-1,4.286073393E-1,-7.066968226E-1,1.022348757E0
1.132329867E1,7.560501002E-1,3.556419817E-1,-1.217479761E0,1.476600807E0
1.133326867E1,1.657131797E-1,-2.649259391E-1,5.349383712E-2,3.170302852E-1
1.134323867E1,-6.641706079E-2,-1.822109342E-2,1.229608056E0,1.231535304E0
1.135320967E1,-4.917632983E-1,4.292139879E-1,1.572294070E0,1.702399609E0
1.136317967E1,-5.615815748E-1,8.260186136E-2,1.095053099E0,1.233425402E0
1.137314967E1,-9.690441397E-1,-6.471704131E-1,2.030445635E-1,1.182836922E0
1.138311967E1,-1.200458516E0,-1.462362030E0,-7.140999824E-1,2.022261640E0
1.139308967E1,-1.504745573E0,-1.841028008E0,-2.113277292E-1,2.387111806E0
1.140306067E1,-1.232100724E0,-6.222773543E-1,-9.464560533E-1,1.673642841E0
1.141303067E1,-1.001995246E0,-1.098848819E0,5.298249811E-1,1.578663267E0
1.142300067E1,-4.426415339E-3,-1.502226007E0,1.453566356E0,2.090348708E0
1.143297067E1,2.333133880E-1,-9.894626167E-1,9.923479253E-1,1.420642746E0
1.144294167E1,6.586278129E-2,-9.632337615E-1,6.158065331E-1,1.145152772E0
1.145291167E1,6.032438634E-1,-1.033835967E0,3.152233958E-1,1.237774517E0
1.146288167E1,7.234385705E-1,-1.648493522E0,2.074217892E-1,1.812158397E0
1.147285167E1,5.816087269E-1,-2.199590089E0,3.009146744E-1,2.294997802E0
1.148282167E1,6.812091751E-1,-1.574383572E0,9.353796726E-1,1.953884517E0
1.149279267E1,5.055148166E-1,-4.063580990E-1,2.096987534E0,2.195000878E0
1.150276267E1,7.459436265E-1,2.429173118E-1,1.869841332E0,2.027744393E0
1.151273267E1,6.450804721E-1,1.549687564E-2,6.556740189E-1,9.199333604E-1
1.152270267E1,6.408798324E-1,7.786570439E-1,-4.096769786E-1,1.088516871E0
1.153267367E1,6.974167067E-1,1.203461062E0,-1.165423170E0,1.814640393E0
1.154264367E1,1.255530517E0,9.418999028E-1,-1.083297272E0,1.907109144E0
1.155261367E1,1.364511069E0,8.119151294E-3,-1.057178344E0,1.726146700E0
1.156258367E1,1.080399245E0,-1.096086887E0,-8.010621125E-1,1.735041642E0
1.157255467E1,1.287931255E0,-7.436281291E-1,-3.865249282E-1,1.536603798E0
1.158252467E1,1.469185146E0,-1.396958292E-1,5.091743696E-1,1.561178547E0
1.159249467E1,1.156397700E0,7.392111424E-1,7.468028748E-1,1.562499052E0
1.160246467E1,8.167534080E-1,8.920836720E-1,6.855094367E-1,1.390259902E0
1.161243467E1,1.631074959E-1,1.238989036E0,-4.953363490E-1,1.344267825E0
1.162240567E1,4.091088485E-1,1.397326666E0,-1.044888666E0,1.792117236E0
1.163237567E1,1.547763830E-1,1.094186834E0,-9.305943114E-1,1.444716695E0
1.164234567E1,1.133116938E-1,-3.294593194E-1,-6.329277653E-1,7.224822068E-1
1.165231567E1,5.928802583E-2,-2.050893348E-1,-7.478255528E-1,7.777015898E-1
1.166228667E1,4.534964512E-1,-1.033305332E-1,3.608170599E-1,5.886638948E-1
1.167225667E1,1.026530017E0,4.021045420E-1,7.694111341E-1,1.344412672E0
1.168222667E1,9.436474894E-1,5.182363844E-1,8.383229095E-1,1.364487023E0
1.169219667E1,8.781987275E-1,-7.373909041E-1,6.843335617E-1,1.335399107E0
1.170216667E1,1.239065635E0,-6.053104886E-1,1.044264768E0,1.729789970E0
1.171213767E1,8.883191615E-1,-5.145286649E-2,5.327480042E-1,1.037101136E0
1.172210767E1,3.453351312E-1,-3.716373324E-2,1.366739881E-1,3.732522939E-1
1.173207767E1,4.542070707E-1,-8.915737948E-1,-2.331214714E-1,1.027401341E0
1.174204767E1,9.054029714E-2,-1.097282642E-1,-1.303642577E-1,1.929577080E-1
1.175201867E1,-1.454935993E-1,-3.219441855E-1,2.806482249E-1,4.511982626E-1
1.176198867E1,-5.977997401E-1,2.615757769E-1,-7.878286940E-1,1.022966504E0
1.177195842E1,-9.296375607E-1,-2.838580540E-1,-1.100680459E0,1.468434153E0
1.178192842E1,-7.075920314E-1,-4.784738562E-1,-1.087622457E0,1.382948417E0
1.179189842E1,-4.250091455E-1,-1.273563330E0,4.571961308E-1,1.418317536E0
1.180186942E1,-5.208471662E-1,-1.053389056E0,1.140439187E0,1.637532232E0
1.181183942E1,-1.523924732E-1,-1.283385191E0,8.514908391E-1,1.547687844E0
1.182180942E1,-1.502794905E-1,-9.296865311E-1,4.032888955E-1,1.024472013E0
1.183177942E1,2.095009860E-1,-1.147622491E0,6.814315885E-1,1.351028147E0
1.184175042E1,4.471209762E-1,-6.424400157E-1,1.544440273E0,1.731456641E0
1.185172042E1,3.458607593E-1,3.923440772E-1,1.479895783E0,1.569600289E0
1.186169042E1,4.720042775E-1,6.679689592E-1,9.706424761E-1,1.269297989E0
1.187166042E1,-1.551277459E-1,4.716112715E-1,-1.880417776E-1,5.308874825E-1
1.188163042E1,2.356897147E-1,-2.640710762E-1,-7.527635264E-1,8.318269662E-1
1.189160142E1,5.936726291E-1,1.527231333E-1,-1.704294963E0,1.811185487E0
1.190157142E1,-2.376334023E-2,-1.414535022E-1,-9.112885594E-1,9.225077930E-1
1.191154142E1,5.074929662E-1,-4.271946520E-1,1.670444262E-1,6.840674102E-1
1.192151142E1,4.422207902E-1,-5.075348103E-1,7.002824271E-1,9.713631085E-1
1.193148242E1,4.251839407E-1,-1.712737173E-2,7.065143895E-1,8.247650046E-1
1.194145242E1,6.702069810E-1,9.004118612E-1,1.348459146E0,1.754497360E0
1.195142242E1,4.327095996E-1,1.007179388E0,7.833900726E-1,1.347348479E0
1.196139242E1,3.727280574E-1,-5.073526695E-1,-6.236909187E-1,8.861846862E-1
1.197136242E1,7.361308292E-1,-7.984153703E-1,-1.354298760E0,1.735938027E0
1.198133342E1,5.043834169E-1,-6.630122745E-1,-8.107854474E-1,1.162480516E0
1.199130342E1,4.964246620E-1,7.079487115E-2,-6.782413477E-1,8.434812888E-1
1.200127342E1,5.676316522E-1,3.574283060E-1,-4.296574992E-1,7.965966691E-1
1.201124342E1,3.699612281E-1,-6.663992742E-1,5.333818424E-1,9.302986040E-1
1.202121442E1,4.839834499E-2,-1.462566682E0,1.469103577E0,2.073573973E0
1.203118442E1,-2.775833886E-1,9.749968976E-2,6.318875456E-1,6.970226663E-1
1.204115442E1,-5.277008704E-1,5.771043974E-1,9.191004395E-2,7.873786575E-1
1.205112442E1,-8.174632600E-1,2.189972296E-1,-1.500003773E-1,8.594801226E-1
1.206109442E1,-9.510879982E-1,-7.717634690E-1,3.193456829E-1,1.265768106E0
1.207106542E1,-1.508200254E0,-6.090185004E-1,9.192290783E-1,1.868302341E0
1.208103542E1,-1.297114745E0,6.431308642E-1,5.083317858E-1,1.534446211E0
1.209100542E1,-1.013340087E0,6.885619757E-1,-1.020178333E0,1.594283399E0
1.210097542E1,-5.914975015E-1,9.003817481E-1,-2.297315481E0,2.537363791E0
1.211094642E1,-6.335554639E-1,1.134000233E-1,-1.314397945E0,1.463521114E0
1.212091642E1,-1.858503508E-1,9.936503926E-1,-1.204497773E0,1.572480951E0
1.213088642E1,7.804056720E-2,1.325093088E0,-6.394146663E-1,1.473367957E0
1.214085642E1,3.992650244E-1,7.187394556E-1,1.001347375E0,1.295644832E0
1.215082642E1,8.585838041E-1,5.740758321E-1,4.375108945E-1,1.121670626E0
1.216079742E1,7.491402262E-1,1.190276175E0,-1.272944695E-1,1.412151668E0
1.217076742E1,8.614166339E-1,1.107795351E0,-3.453231078E-1,1.445163384E0
1.218073742E1,-2.454021592E-1,2.358410114E-1,-3.381187534E-1,4.797577449E-1
1.219070742E1,-6.298767612E-1,-7.097645643E-1,-3.030611873E-1,9.961709463E-1
1.220067742E1,-6.057819569E-1,-6.675897673E-1,5.334607798E-1,1.047486649E0
1.221064842E1,-7.187635754E-1,2.580917135E-1,9.558993065E-1,1.223509662E0
1.222061842E1,-4.165588956E-1,-4.829829365E-2,1.250397831E0,1.318843727E0
1.223058842E1,-3.559202726E-1,-1.165726348E0,1.874862921E-1,1.233186226E0
1.224055842E1,-6.057275413E-1,-1.779057755E0,-1.209498312E0,2.234913536E0
1.225052942E1,-7.310053061E-1,-1.632919756E0,-1.009666209E0,2.054317779E0
1.226049942E1,-7.257519483E-1,-6.413182274E-1,9.994376743E-1,1.391718586E0
1.227046942E1,-1.076321543E0,-1.027228321E0,1.685357586E0,2.248131731E0
1.228043942E1,-1.142428409E0,-1.077157695E0,2.285080183E-1,1.586703276E0
1.229040942E1,-1.105272058E0,-1.177629232E0,2.652384728E-1,1.636700455E0
1.230038042E1,-7.783219253E-1,-1.215560997E0,1.939025003E0,2.417269435E0
1.231035042E1,-8.672799294E-1,-8.058463043E-1,1.984497630E0,2.310799339E0
1.232032042E1,-6.497687696E-1,6.190447211E-2,5.824680483E-1,8.748146346E-1
1.233029042E1,4.062918793E-1,-2.642166719E-1,-5.292607248E-1,7.176353222E-1
1.234026142E1,4.460567098E-1,-5.807109600E-1,-1.203594963E0,1.408840886E0
1.235023142E1,1.689382297E-1,-1.117745266E0,-1.731093922E0,2.067505930E0
1.236020142E1,6.149954512E-1,-1.488251162E0,-2.017189997E0,2.581117280E0
1.237017142E1,-3.199969165E-1,-1.243078287E0,9.499561965E-2,1.287115310E0
1.238014142E1,-1.351261716E0,6.506749418E-1,2.181237726E0,2.647089746E0
1.239011242E1,-1.676297179E0,4.869710299E-1,1.923159168E0,2.597239728E0
1.240008242E1,-1.083566609E0,-6.062261626E-1,9.800401211E-2,1.245484461E0
1.241005242E1,-7.815144320E-1,-1.465799023E0,-1.162291986E0,2.027376197E0
1.242002242E1,-9.377002864E-1,-1.176334659E0,-1.737922300E0,2.298568898E0
1.242999342E1,-3.689857663E-1,1.583002076E-1,-3.954822779E-1,5.635740267E-1
1.243996342E1,-6.325115166E-1,1.369259739E0,3.444220519E-1,1.547116544E0
1.244993342E1,-6.356342221E-1,1.534857564E0,6.125087035E-1,1.770589031E0
1.245990342E1,-1.022306939E0,1.723416820E0,3.289456415E-1,2.030635922E0
1.246987342E1,-3.822249955E-1,4.805145344E-1,9.141408312E-1,1.101200992E0
1.247984442E1,3.496550176E-1,1.753533196E-1,-1.469335127E-1,4.178479091E-1
1.248981442E1,4.424936724E-1,2.468217900E-1,-8.466639626E-1,9.866922072E-1
1.249978442E1,6.455693724E-1,1.257913550E0,-1.677506529E0,2.193885701E0
1.250975442E1,2.694452704E-1,1.364631375E0,-3.715431923E-1,1.439744383E0
1.251972442E1,-5.455748219E-2,1.430565163E-1,6.067018336E-1,6.257226228E-1
1.252969542E1,-1.209951179E-1,-8.511055076E-1,4.910918552E-1,9.900462685E-1
1.253966542E1,4.264100287E-2,-3.714239091E-1,-6.367939442E-1,7.384311090E-1
1.254963542E1,-2.100794766E-1,9.172027257E-1,-2.652478284E-1,9.776249981E-1
1.255960542E1,2.037803443E-1,8.356314361E-1,6.180226278E-1,1.059130915E0
1.256957642E1,-3.010293346E-1,1.103412571E0,8.716561317E-1,1.438027251E0
1.257954642E1,6.253456442E-2,2.555016893E-1,5.596867114E-1,6.184180624E-1
1.258951642E1,1.201840542E-1,1.508979541E0,2.511829358E-1,1.534456363E0
1.259948642E1,2.975397163E-1,1.268535894E0,-2.527406341E-1,1.327249421E0
1.260945642E1,-1.641373916E-1,9.263673592E-1,-5.976544368E-1,1.114579918E0
1.261942742E1,-6.496749949E-2,1.383664647E-1,-5.203770500E-1,5.423636499E-1
1.262939742E1,1.593318939E-1,-2.272201690E-1,-7.681025273E-1,8.166989347E-1
1.263936742E1,3.791948587E-2,-7.720567068E-1,-1.422095472E0,1.618599696E0
1.264933742E1,3.897876380E-2,-9.978869927E-1,-6.387474990E-1,1.185451881E0
1.265930842E1,4.118454185E-1,-1.622966333E0,9.861048532E-1,1.943203321E0
1.266927842E1,1.089723745E-1,-1.775615791E0,1.401736636E0,2.264851433E0
1.267924842E1,2.398816201E-1,-1.364151319E0,7.829000759E-1,1.591032539E0
1.268921842E1,3.837374874E-1,-1.129615406E0,1.096540046E0,1.620396710E0
1.269918842E1,7.174370614E-1,-1.864298757E0,1.219507576E0,2.340411186E0
1.270915942E1,-1.696735902E-1,-1.156212343E0,9.542234945E-1,1.508694332E0
1.271912942E1,9.272186589E-2,1.335123986E-2,8.757497674E-1,8.807458516E-1
1.272909942E1,-7.730174409E-2,-2.518188205E-1,7.043778169E-1,7.520215336E-1
1.273906942E1,-2.624830455E-1,-4.729067221E-1,-5.817622894E-1,7.943459438E-1
1.274903942E1,-6.131880037E-1,-4.093045110E-1,-9.830993843E-1,1.228826314E0
1.275901042E1,-6.267022347E-1,6.536099517E-1,-4.656360018E-1,1.018223230E0
1.276898133E1,-2.015547478E-1,1.899694292E0,4.699717122E-1,1.967316988E0
1.277895133E1,1.092912579E-1,6.587546244E-1,1.422135233E0,1.571104979E0
1.278892133E1,-1.171886390E0,-2.970747786E0,-2.016707017E0,3.777005072E0
1.279889233E1,-1.817027526E0,-1.665366248E0,-3.424766833E0,4.219485944E0
1.280886233E1,4.563773744E-1,-8.103726339E-1,-7.540738875E-1,1.197335183E0
1.281883233E1,-3.821854902E-1,-1.238793155E0,2.133947784E0,2.496879528E0
1.282880233E1,-7.035386684E-1,-3.542328027E-1,2.284010142E0,2.416019426E0
1.283877233E1,2.802424282E-1,-2.912030339E-1,1.522907317E-1,4.318882870E-1
1.284874333E1,4.604338071E-1,-9.380015641E-2,3.823067468E-1,6.057691052E-1
1.285871333E1,1.373994814E0,-5.384554714E-2,1.473825788E-1,1.382925420E0
1.286868333E1,9.071194947E-1,6.464289862E-1,-4.984651941E-1,1.220329366E0
1.287865333E1,1.018935361E0,1.416525414E0,3.057146537E-1,1.771506412E0
1.288862333E1,7.798259023E-1,6.847647938E-1,1.255572617E-1,1.045368780E0
1.289859433E1,-1.420040084E-1,2.191109580E-1,-1.140079583E0,1.169596600E0
1.290856433E1,-6.924305666E-1,8.925318611E-1,-1.035032600E0,1.532111515E0
1.291853433E1,-6.311386634E-1,9.873286754E-1,-4.141436666E-1,1.242847095E0
1.292850433E1,-8.914559003E-1,1.144021483E0,4.040963960E-1,1.505580511E0
1.293847533E1,-6.526428223E-2,7.162880105E-1,-6.610277295E-3,7.192855040E-1
1.294844533E1,2.981595760E-2,2.033631491E0,2.082082397E-1,2.044479568E0
1.295841533E1,2.100263035E-1,2.223379778E0,-1.520960194E-1,2.238450778E0
1.296838533E1,-1.555746742E-2,1.786590430E0,-1.072728429E0,2.083961056E0
1.297835533E1,-9.153026730E-2,-1.222503689E-1,-8.315570962E-1,8.454644563E-1
1.298832633E1,4.929579210E-1,4.008792579E-2,-2.692432308E-1,5.631220747E-1
1.299829633E1,1.910742898E-1,1.628341386E-1,-1.049382252E-1,2.720962551E-1
1.300826633E1,1.699106765E-1,1.164324186E0,-4.822900414E-1,1.271661956E0
1.301823633E1,7.933082660E-1,1.233587086E-2,-5.118839693E-1,9.442009196E-1
1.302820633E1,2.984108601E-1,-1.074874942E0,-1.221506739E-1,1.122196939E0
1.303817733E1,6.591968201E-1,-8.910305884E-1,-2.569249016E-1,1.137754966E0
1.304814733E1,5.388732550E-1,-2.183218762E-1,5.835714179E-1,8.237744997E-1
1.305811733E1,5.442488927E-1,-8.317515162E-1,1.744720858E0,2.008001074E0
1.306808733E1,6.481140807E-1,-5.892853171E-2,1.707863519E0,1.827654845E0
1.307805833E1,7.394251505E-1,-4.235875046E-1,1.010432779E0,1.321798142E0
1.308802833E1,4.071228782E-1,9.531078458E-2,6.564037514E-1,7.782667078E-1
1.309799833E1,-4.851675659E-1,-1.751185539E-1,3.674957496E-1,6.333302463E-1
1.310796833E1,-3.353686252E-1,-8.228602400E-1,-8.503313363E-1,1.229892057E0
1.311793833E1,-2.407366658E-1,-8.728273290E-1,-1.604160225E0,1.842040097E0
1.312790933E1,-1.008699518E-2,-1.318913458E0,-9.281033975E-1,1.612764823E0
1.313787933E1,6.848891933E-1,-2.181395016E0,6.822127765E-1,2.385994907E0
1.314784933E1,8.812224689E-1,-2.796562448E0,1.781217424E0,3.430750658E0
1.315781933E1,8.609010556E-1,-1.129373623E0,1.210433282E0,1.865953949E0
1.316778933E1,7.065333930E-1,-5.641042829E-2,4.484627295E-1,8.387433407E-1
1.317776033E1,5.622422736E-1,-7.150016230E-1,3.341642815E-1,9.690250060E-1
1.318773033E1,-8.539288357E-1,-2.071516478E0,1.740841230E0,2.837411349E0
1.319770033E1,-3.540989380E-1,-2.021972435E0,8.446501815E-1,2.219728027E0
1.320767033E1,-3.814734821E-1,-3.872061288E-1,5.428864914E-1,7.682293579E-1
1.321764033E1,-2.699920764E-1,1.904786047E-1,9.027247274E-1,9.612958721E-1
1.322761133E1,3.551896264E-1,5.309637263E-1,5.030593514E-1,8.131118376E-1
1.323758133E1,-2.064019251E-1,9.997294503E-1,-9.224544024E-1,1.375857134E0
1.324755133E1,-5.190614631E-1,1.672495173E0,-2.236181087E0,2.840276529E0
1.325752133E1,-1.566724889E-1,6.013513389E-1,-1.725888730E0,1.834355912E0
1.326749233E1,-1.243275192E-1,-8.422493148E-1,-8.818185925E-2,8.559306517E-1
1.327746233E1,-2.004345126E-1,-4.343115905E-1,2.126182097E-1,5.234568316E-1
1.328743233E1,-2.898747658E-1,7.819446409E-1,-1.820565677E-1,8.535861966E-1
1.329740233E1,-9.108021442E-2,1.279911652E0,1.737139943E0,2.159658451E0
1.330737233E1,1.102031312E-1,4.881907591E-1,1.669589399E0,1.742987008E0
1.331734333E1,2.485406522E-1,4.568175235E-1,-5.182036400E-1,7.341591912E-1
1.332731333E1,1.826561631E-1,9.762309524E-1,-1.057173666E0,1.450519323E0
1.333728333E1,1.119517411E0,5.315563416E-1,-4.539287066E-1,1.319819172E0
1.334725333E1,1.093342350E0,-1.818656561E-1,-8.259718359E-2,1.111438215E0
1.335722333E1,1.361503699E0,-4.396594539E-1,-8.117888296E-1,1.644990536E0
1.336719433E1,1.559376108E0,-1.504702011E-1,-9.878888386E-1,1.852085173E0
1.337716433E1,1.876727160E0,-1.767087042E-2,-7.727411234E-1,2.029666459E0
1.338713433E1,1.250659348E0,4.005348569E-1,4.146284008E-1,1.377132414E0
1.339710433E1,1.329467243E0,6.299059242E-1,6.903947854E-1,1.625087562E0
1.340707433E1,8.926243933E-1,4.035406181E-1,8.269793111E-1,1.281997706E0
1.341704533E1,7.308589795E-1,-2.156482369E-2,8.502716947E-1,1.121419567E0
1.342701533E1,2.125635931E-1,-4.943484619E-1,7.083784819E-1,8.895862839E-1
1.343698533E1,-7.332825042E-2,-1.260869902E0,3.505838478E-1,1.310755117E0
1.344695533E1,-7.416117898E-1,2.026124543E-1,7.494142413E-2,7.724351562E-1
1.345692633E1,-1.338910643E0,7.785099864E-2,3.484782654E-1,1.385705448E0
1.346689633E1,-6.526458921E-1,-7.723002434E-3,3.429976702E-2,6.535922117E-1
1.347686633E1,-6.629733905E-1,-7.608449632E-1,-1.951262641E-1,1.027858470E0
1.348683633E1,-5.330245044E-2,-9.915410095E-1,-2.577534521E-1,1.025880874E0
1.349680633E1,2.221112009E-1,-4.201309231E-1,2.500286955E-1,5.369895033E-1
1.350677733E1,-3.670804146E-1,-3.186150733E-1,2.848909646E-1,5.634061212E-1
1.351674733E1,5.491761586E-2,-8.688105842E-1,4.704944533E-1,9.895518210E-1
1.352671733E1,5.528438246E-2,-1.120373881E0,-3.310465461E-1,1.169566506E0
1.353668733E1,2.685190532E-1,-6.849337783E-1,1.601833034E-1,7.529246000E-1
1.354665733E1,1.824223476E-2,-7.914951906E-1,2.966146320E-1,8.454452411E-1
1.355662833E1,1.382067261E-1,-1.156789463E0,-1.602967393E-1,1.175992350E0
1.356659833E1,1.945875894E-1,-6.296834376E-1,-1.741109617E0,1.861673511E0
1.357656833E1,7.612544876E-1,-1.003887990E-1,-3.000202258E0,3.096901661E0
1.358653833E1,-1.293652244E-1,-1.030932824E0,-4.852019548E-1,1.146725245E0
1.359650833E1,-1.299887568E-1,-2.579336048E0,3.491418074E0,4.342795378E0
1.360647933E1,-6.189137983E-2,-8.368441486E-1,2.952929274E0,3.069842010E0
1.361644933E1,-6.891322254E-1,1.451760151E0,-1.682887137E-1,1.615806873E0
1.362641933E1,-2.332723661E-1,1.552142810E0,-8.322289413E-1,1.776560810E0
1.363638933E1,2.336862576E-3,-3.408859482E-1,-3.769027501E-1,5.081971799E-1
1.364636033E1,-3.461777150E-1,-1.377854853E0,-1.062230338E0,1.773881704E0
1.365633033E1,6.202630890E-2,-4.480864611E-1,2.911328673E-3,4.523684510E-1
1.366630033E1,-1.317821618E-1,7.848916376E-1,1.205680080E0,1.444675007E0
1.367627033E1,6.690237969E-3,4.957757673E-1,1.331782887E0,1.421085511E0
1.368624033E1,-1.982027949E-1,2.166896260E-1,8.666877526E-1,9.150881938E-1
1.369621133E1,-2.736470978E-1,2.081839737E-1,4.880606586E-1,5.970146627E-1
1.370618133E1,-3.922573923E-1,1.118224153E0,1.554546601E-1,1.195180852E0
1.371615133E1,-7.691541673E-2,1.200655568E0,-5.843140143E-1,1.337502389E0
1.372612133E1,-1.229181392E-1,7.446493453E-1,-1.237640376E0,1.449608643E0
1.373609133E1,7.581880341E-2,7.745332950E-1,-1.722931209E0,1.890540205E0
1.374606233E1,2.002818272E-1,1.017803486E0,-1.290843607E0,1.655993347E0
1.375603233E1,2.793603026E-1,4.166290256E-1,-9.542772889E-1,1.078084908E0
1.376600233E1,2.507744713E-2,-8.326218742E-1,-8.939480567E-1,1.221896555E0
1.377597146E1,5.258367415E-1,4.966233212E-1,-1.724993522E0,1.870492355E0
1.378594146E1,2.587985505E-1,1.195128195E0,-1.215466565E-1,1.228853808E0
1.379591246E1,5.082619116E-1,1.653524466E0,9.218831295E-1,1.960189235E0
1.380588246E1,3.498912451E-1,1.844062713E-1,1.095836626E0,1.165026809E0
1.381585246E1,4.790184329E-2,-9.152026856E-1,7.523893046E-1,1.185740363E0
1.382582246E1,2.236557429E-1,-9.776605967E-1,7.695345104E-2,1.005864786E0
1.383579246E1,-1.418260155E-1,-1.662410188E-1,-8.081670642E-2,2.329850532E-1
1.384576346E1,-2.172202060E-1,5.446386096E-1,7.563607335E-2,5.912162452E-1
1.385573346E1,-2.983684313E-1,2.166638982E-1,7.925900817E-1,8.741658900E-1
1.386570346E1,-8.985473852E-2,-7.819689068E-1,8.337825465E-1,1.146622248E0
1.387567346E1,-1.360473859E-1,-8.014263940E-1,-6.733419657E-1,1.055548464E0
1.388564446E1,3.140023327E-2,-7.361533409E-1,-1.255555660E0,1.455791102E0
1.389561446E1,-3.482599815E-1,-9.866577074E-1,4.742091894E-3,1.046327355E0
1.390558446E1,-4.546984926E-1,-1.163741218E0,-3.887053549E-1,1.308486223E0
1.391555446E1,-7.366898230E-1,-1.022156446E0,1.247974160E0,1.773402154E0
1.392552446E1,-2.909986006E-1,-5.129978639E-1,3.610607134E0,3.658460177E0
1.393549546E1,-3.832139058E-1,-1.154620439E-2,2.693846165E0,2.720991248E0
1.394546546E1,-6.619757824E-1,1.168109965E-1,6.135413218E-1,9.101042242E-1
1.395543546E1,-6.831053540E-1,5.006824583E-2,-1.711782323E0,1.843729501E0
1.396540546E1,-1.153630724E0,-1.182291217E0,-1.589704739E0,2.292561347E0
1.397537546E1,-1.507522415E0,-1.510218566E0,-1.723542827E0,2.742988120E0
1.398534646E1,-4.627862882E-1,-1.565030658E0,-7.760524017E-1,1.807138467E0
1.399531646E1,4.310927714E-1,-7.988734996E-1,-3.611918664E-1,9.769848567E-1
1.400528646E1,1.029835814E0,-9.592064917E-1,1.088571460E0,1.779220818E0
1.401525646E1,7.307854508E-1,-8.064894980E-1,2.119014580E0,2.382161933E0
1.402522646E1,1.154115751E-1,1.788736358E-1,1.460420462E0,1.475853494E0
1.403519746E1,-5.476252577E-1,4.139472002E-1,1.600343163E0,1.741362670E0
1.404516746E1,-4.497132296E-1,-1.581364855E-1,1.147675116E0,1.242741851E0
1.405513746E1,-9.316433018E-1,-1.767540202E-1,-4.851516688E-1,1.065163540E0
1.406510746E1,-9.315252612E-1,-2.545705202E-1,-1.770448022E0,2.016688290E0
1.407507746E1,-1.295436594E0,-3.063493690E-1,-1.418839157E0,1.945536034E0
1.408504846E1,-9.121099471E-1,-1.668894750E-1,-8.799346197E-1,1.278312007E0
1.409501846E1,-2.413454706E-1,-1.354475346E-1,-9.880204010E-1,1.026049698E0
1.410498846E1,-1.530271611E-1,5.373243275E-1,-1.161547050E0,1.288924472E0
1.411495846E1,-6.657394890E-1,1.854408484E0,-1.314138329E-1,1.974666931E0
1.412492846E1,-1.705592241E-1,1.614832563E0,3.814372659E-1,1.668013503E0
1.413489946E1,-8.287421004E-1,6.595980853E-1,3.173219615E-1,1.105701737E0
1.414486946E1,-2.309923906E-1,-2.480505824E-1,3.022115868E-1,4.541127824E-1
1.415483946E1,3.795297579E-1,9.931495786E-3,-2.948154438E-1,4.806845303E-1
1.416480946E1,4.633662954E-1,1.052145646E0,-6.503296638E-1,1.320851034E0
1.417478046E1,1.075699765E0,1.160935724E0,-9.895219660E-1,1.866562472E0
1.418475046E1,9.285678126E-1,9.571076337E-1,-6.428265166E-1,1.480378038E0
1.419472046E1,6.480100002E-1,9.794276252E-1,-1.474936759E-1,1.183617260E0
1.420469046E1,6.658785065E-1,1.272035745E0,8.942930424E-1,1.691516825E0
1.421466046E1,2.902939746E-1,2.158435923E0,5.259658188E-1,2.240481259E0
1.422463146E1,6.640189001E-2,1.606827433E0,-1.492419934E-1,1.615108907E0
1.423460146E1,3.246120142E-1,6.859804299E-1,-1.275137985E0,1.483886448E0
1.424457146E1,2.435527945E-2,-3.806198251E-1,-1.387815585E0,1.439269512E0
1.425454146E1,-4.185084669E-1,-9.448135704E-2,3.861892980E-1,5.772505848E-1
1.426451146E1,1.250230637E-1,8.360290468E-2,3.851613575E-1,4.134845625E-1
1.427448246E1,3.969432047E-1,-3.930334640E-1,1.596091068E-1,5.809597908E-1
1.428445246E1,8.167857139E-1,-1.494059786E0,1.459675527E-1,1.708993877E0
1.429442246E1,7.913592428E-1,-2.058560802E0,8.058778793E-1,2.348054766E0
1.430439246E1,1.018923301E0,-1.804784334E0,1.195125856E0,2.392441639E0
1.431436246E1,8.294819194E-1,-1.917348205E0,5.158220690E-1,2.151821740E0
1.432433346E1,6.136894756E-1,-5.013733068E-1,3.689242244E-1,8.741253048E-1
1.433430346E1,2.569377289E-1,-1.540170344E0,1.021851806E0,1.866098282E0
1.434427346E1,1.052509489E0,-1.383603251E0,5.315417236E-1,1.817875349E0
1.435424346E1,-1.620151812E-1,-7.362264311E-1,-3.756181169E-1,8.422394235E-1
1.436421346E1,-3.158425429E-1,-1.145670691E0,3.389917427E-1,1.235812787E0
1.437418446E1,-7.543560887E-1,-7.005321032E-1,1.143183870E0,1.538397769E0
1.438415446E1,-8.531868240E-1,-5.246025404E-1,-1.471551222E-1,1.012319224E0
1.439412446E1,-8.139054485E-1,6.552629596E-1,-1.452006903E0,1.788892303E0
1.440409446E1,-3.963740148E-1,-9.005443007E-2,-3.080412608E-1,5.100113512E-1
1.441406446E1,-5.640518041E-1,-1.446410826E0,1.016330280E0,1.855582376E0
1.442403546E1,-3.803465043E-1,-9.473100391E-1,1.324483808E0,1.672219223E0
1.443400546E1,-1.996840225E-1,5.068425000E-2,1.150579428E0,1.168877933E0
1.444397546E1,4.090112731E-1,1.004308113E0,1.511848478E0,1.860540466E0
1.445394546E1,5.012982432E-1,3.937892166E-1,3.024004519E-1,7.055607054E-1
1.446391546E1,2.758488303E-1,-5.214099607E-1,-7.969193602E-1,9.914844381E-1
1.447388646E1,9.122551773E-2,-1.856242463E-1,-1.135219962E0,1.153907630E0
1.448385646E1,6.194749300E-1,9.677752939E-1,-7.470677537E-1,1.370565006E0
1.449382646E1,6.451993898E-1,5.548273829E-1,-6.475294322E-1,1.069303532E0
1.450379646E1,9.504694359E-1,3.759204179E-1,-1.267068828E0,1.627934803E0
1.451376646E1,5.447327498E-1,-1.604537371E-1,-7.823486835E-1,9.667205558E-1
1.452373746E1,5.644323847E-1,1.627867761E-1,3.976048172E-1,7.093469123E-1
1.453370746E1,4.308803713E-1,6.537611023E-1,1.518564590E0,1.708537353E0
1.454367746E1,3.605765566E-1,7.879716584E-1,1.159293534E0,1.447368745E0
1.455364746E1,2.077546054E-1,1.475482597E0,-9.413555270E-1,1.762487191E0
1.456361746E1,-1.995592027E-1,1.333158444E0,-1.772774629E0,2.227075481E0
1.457358846E1,-1.878488195E-1,5.503878844E-1,-2.581025308E-1,6.362632464E-1
1.458355846E1,-3.281601046E-1,-5.467143711E-1,-5.484045088E-2,6.399946351E-1
1.459352846E1,-5.544214765E-2,1.154456717E-1,-1.572775880E0,1.577981465E0
1.460349846E1,3.210921731E-2,2.781073174E-1,-1.492864323E0,1.518887279E0
1.461346846E1,-1.584780177E-1,5.425327349E-1,-6.989878535E-2,5.695110980E-1
1.462343946E1,-7.620292436E-2,-1.079261523E-1,-1.751627004E-1,2.194012572E-1
1.463340946E1,-4.498033498E-1,-4.578156433E-1,2.539808285E-1,6.902350889E-1
1.464337946E1,-7.691732621E-2,3.483008024E-1,1.513639480E-1,3.874800237E-1
1.465334946E1,-5.894814911E-1,5.612961575E-1,-7.801764429E-2,8.176971063E-1
1.466331946E1,-5.690876089E-1,-2.385292688E-1,-3.648545623E-2,6.181327586E-1
1.467329046E1,-7.202725956E-1,-3.046048522E-1,4.122918534E-1,8.840595570E-1
1.468326046E1,-1.104057738E0,1.381854934E-1,7.137561661E-1,1.321925332E0
1.469323046E1,-2.803341381E-1,-8.628636736E-1,1.811407768E0,2.025911905E0
1.470320046E1,1.158264351E-1,-1.112367581E0,1.522564670E0,1.889174575E0
1.471317046E1,-4.565894090E-1,-1.322008681E-1,1.058729026E0,1.160542161E0
1.472314146E1,-8.154496251E-1,2.971563765E-1,8.835259795E-1,1.238498349E0
1.473311146E1,-1.398954385E0,-7.553345472E-2,3.561194068E-1,1.445544778E0
1.474308146E1,-1.414355658E0,-1.010998204E0,1.643997306E-1,1.746295098E0
1.475305146E1,-1.392899008E0,-1.305761608E0,-7.152010131E-1,2.038797075E0
1.476302146E1,-1.089144999E0,-7.223144433E-1,-5.989794159E-1,1.437620021E0
1.477299358E1,-6.297718037E-1,4.456183514E-1,3.803444213E-1,8.601454055E-1
1.478296358E1,-4.404667717E-1,-2.655577308E-1,1.535142031E0,1.619009864E0
1.479293358E1,-4.561141766E-1,-1.242709912E0,1.740382224E0,2.186618017E0
1.480290358E1,-1.572678085E-1,-3.405579194E-1,9.568015319E-1,1.027707172E0
1.481287358E1,-3.995305976E-1,7.761269537E-1,-1.630203724E-2,8.730770316E-1
1.482284458E1,-3.675651122E-2,6.842791826E-1,-8.027747619E-1,1.055479208E0
1.483281458E1,-1.912538359E-1,-4.976459992E-1,-1.725204021E0,1.805701660E0
1.484278458E1,-3.801087419E-1,-1.248998592E0,-2.058084839E0,2.437251186E0
1.485275458E1,-5.030566837E-1,-1.222706587E0,-7.309031260E-1,1.510727244E0
1.486272458E1,-2.579436693E-1,8.601254225E-3,6.562961626E-1,7.052188108E-1
1.487269558E1,-3.034963297E-1,3.166346213E-1,7.958428878E-1,9.086987441E-1
1.488266558E1,-6.531017556E-1,2.392291805E-1,2.024569184E-1,7.244041053E-1
1.489263558E1,-4.880116881E-1,1.566112393E-1,2.217427897E-1,5.584374207E-1
1.490260558E1,1.826720419E-1,3.168995002E-1,2.479394853E-2,3.666184775E-1
1.491257558E1,-6.044083729E-1,-2.801202214E-1,-4.274139225E-2,6.675355019E-1
1.492254658E1,-4.410702774E-1,-7.702224353E-1,-5.137784672E-1,1.025550536E0
1.493251658E1,-7.679471375E-1,-4.434385094E-1,-7.185362649E-1,1.141347835E0
1.494248658E1,-3.459955742E-1,-7.099736023E-1,8.574473977E-2,7.944354056E-1
1.495245658E1,1.758726986E-1,-1.750858095E-1,-1.634214914E-1,2.971410955E-1
1.496242658E1,5.327303164E-1,-2.740268379E-2,8.184090471E-1,9.769062726E-1
1.497239758E1,1.061494832E0,6.416187742E-1,4.782578015E-1,1.329351893E0
1.498236758E1,1.300827435E0,1.036775947E0,8.582905662E-1,1.871822394E0
1.499233758E1,1.466674644E0,8.109778208E-1,7.187765855E-1,1.823584195E0
1.500230758E1,1.177165329E0,2.724092057E-1,4.701412815E-1,1.296517571E0
1.501227758E1,8.417567600E-1,-6.597764254E-2,-6.257690191E-1,1.050949265E0
1.502224858E1,6.360307364E-1,8.045859370E-1,-7.836602139E-1,1.290742793E0
1.503221858E1,5.878681713E-1,2.015740765E0,-1.105202696E0,2.372819592E0
1.504218858E1,4.055947815E-1,1.665906238E0,-1.126950245E0,2.051771814E0
1.505215858E1,9.124524477E-1,8.510207230E-1,-1.351798491E0,1.839609986E0
1.506212858E1,7.381609824E-1,4.633471093E-1,-3.372486877E-1,9.345099556E-1
1.507209958E1,4.232775291E-1,4.715782347E-1,5.027248907E-1,8.088771315E-1
1.508206958E1,1.016226711E-1,2.018873996E-1,-6.741839647E-2,2.358620986E-1
1.509203958E1,9.845114138E-2,-9.061549965E-1,-3.165378499E-1,9.648863743E-1
1.510200958E1,1.315516079E-1,-1.468890738E0,9.956258744E-1,1.779386610E0
1.511197958E1,1.774162356E-1,-1.673036333E0,1.982390293E0,2.600076608E0
1.512195058E1,1.722564332E-1,5.980941474E-2,6.579918551E-1,6.827903971E-1
1.513192058E1,2.026332302E-1,9.667055458E-2,2.106897980E-1,3.078889623E-1
1.514189058E1,-1.370075718E-2,-1.610289569E0,7.225223118E-1,1.765009546E0
1.515186058E1,-5.101439110E-1,-1.726569639E0,1.641395295E-1,1.807825022E0
1.516183058E1,-3.567313179E-1,-1.119753784E0,-8.734921575E-2,1.178446289E0
1.517180058E1,-3.158175095E-1,-4.850636682E-1,-1.169577616E-1,5.905138267E-1
1.518177158E1,-8.826090630E-2,-6.205971569E-1,3.181569439E-1,7.029613501E-1
1.519174158E1,-3.217052171E-1,-1.335646435E0,6.350000185E-1,1.513496174E0
1.520171158E1,1.274147028E-1,-8.513747719E-1,2.242319494E-1,8.895805056E-1
1.521168158E1,2.521008756E-3,-2.084561616E-1,1.763591577E0,1.775870372E0
1.522165158E1,-1.025001920E-1,2.253072524E-1,1.704394950E0,1.722275179E0
1.523162258E1,-4.462690734E-1,2.044449717E-2,1.053108682E0,1.143945785E0
1.524159258E1,-5.422386930E-1,-1.688091159E-1,-1.473053956E-1,5.867011142E-1
1.525156258E1,-1.284865157E-1,1.474544996E-1,-2.183122283E-1,2.931072214E-1
1.526153258E1,2.829643436E-1,4.209562576E-1,-6.233710760E-1,8.036569473E-1
1.527150258E1,4.541039038E-1,2.892032862E-2,-1.220379395E0,1.302448698E0
1.528147358E1,7.330331205E-1,-3.558466342E-1,-1.683763635E0,1.870567924E0
1.529144358E1,1.250413911E0,7.795361727E-2,-1.362303014E0,1.850805559E0
1.530141358E1,1.637351360E0,3.179572615E-1,-5.070722955E-1,1.743312539E0
1.531138358E1,1.670557113E0,4.082812482E-1,-4.468997687E-1,1.776843845E0
1.532135358E1,1.660059168E0,3.144691050E-2,1.139166248E-1,1.664260301E0
1.533132458E1,1.524870227E0,-4.108943689E-1,1.216782188E-1,1.583940965E0
1.534129458E1,7.075943702E-1,-2.061430031E-1,2.386985457E-1,7.747010561E-1
1.535126458E1,4.157755514E-1,-1.005823418E-1,5.863932842E-1,7.258396520E-1
1.536123458E1,-5.000249023E-1,-1.808967724E-1,5.237544018E-1,7.463693581E-1
1.537120458E1,-7.165023109E-1,1.108307567E-1,3.036646199E-1,7.860478482E-1
1.538117558E1,-6.613942038E-1,8.210724539E-1,-2.978583348E-1,1.095592011E0
1.539114558E1,-7.716212355E-1,7.757837221E-1,-1.047919863E0,1.515049753E0
1.540111558E1,-1.702398930E-1,6.362387511E-1,-1.060723511E0,1.248565471E0
1.541108558E1,3.831537160E-1,6.436144289E-1,-5.051830602E-1,9.034689964E-1
1.542105558E1,3.254585083E-1,8.439654726E-1,1.526883423E-1,9.173410976E-1
1.543102558E1,5.755799918E-1,1.270118735E0,6.701955789E-1,1.547144480E0
1.544099658E1,1.721570854E-1,7.410094535E-1,8.333983845E-1,1.128399725E0
1.545096658E1,-3.346127629E-2,8.494744268E-1,-4.814427799E-1,9.769921234E-1
1.546093658E1,-3.315217786E-1,3.891015038E-1,-1.084565533E0,1.198995023E0
1.547090658E1,1.789603939E-1,8.314509693E-1,-6.516248220E-1,1.071425427E0
1.548087658E1,5.118794377E-1,8.552429974E-3,-8.115876853E-2,5.183439481E-1
1.549084758E1,4.045033622E-1,-1.056015041E0,4.537234694E-1,1.218464494E0
1.550081758E1,2.561675045E-1,-9.333062500E-1,1.154889995E0,1.506802326E0
1.551078758E1,2.859895103E-1,-3.402202427E-1,1.396005780E0,1.465050153E0
1.552075758E1,4.467643691E-1,-6.894343802E-1,5.862412566E-1,1.009255655E0
1.553072758E1,3.086812386E-1,-5.243856087E-1,9.609665036E-2,6.160348528E-1
1.554069858E1,3.000147879E-1,-5.271539730E-1,-5.064168227E-1,7.901633897E-1
1.555066858E1,-2.111245750E-1,-6.169718832E-1,-5.590242219E-1,8.589155788E-1
1.556063858E1,1.195285266E-1,-1.127261901E0,7.255634487E-2,1.135900914E0
1.557060858E1,3.060260180E-1,-1.698885996E0,9.629194736E-1,1.976633366E0
1.558057858E1,3.577952919E-1,-1.344707280E0,1.147549401E0,1.803642084E0
1.559054958E1,7.834108302E-1,-6.933695564E-1,4.790729034E-1,1.150654039E0
1.560051958E1,1.283281987E0,-5.293876094E-1,2.162160015E-1,1.404924645E0
1.561048958E1,1.150518398E0,-6.033464089E-1,3.121512687E-1,1.336098008E0
1.562045958E1,1.055494858E0,-8.655662566E-1,6.680601758E-1,1.519729824E0
1.563042958E1,8.361711341E-1,-5.482165208E-1,1.483352072E0,1.788870283E0
1.564039958E1,6.173300251E-1,-6.939592481E-1,4.532523007E0,4.626709480E0
1.565037058E1,3.623959543E-1,2.146708748E-1,6.324002295E0,6.338013840E0
1.566034058E1,5.667399153E-2,1.163323142E0,3.620015888E0,3.802768426E0
1.567031058E1,-1.212685483E-1,2.585784650E0,1.226200883E0,2.864359775E0
1.568028058E1,6.483891921E-1,3.224283642E0,-1.926424254E0,3.811498912E0
1.569025058E1,-1.636989418E-1,1.803561389E0,-4.295660487E0,4.661794724E0
1.570022158E1,-1.920042895E-2,-2.523015082E-2,-6.583193577E0,6.583269924E0
1.571019158E1,-4.807829947E-1,-1.067737246E0,-5.094951478E0,5.227785925E0
1.572016158E1,-2.347994030E-1,-1.814576666E0,-1.031380429E0,2.100372544E0
1.573013158E1,1.243767820E-1,-1.467020507E0,1.022756370E0,1.792665430E0
1.574010158E1,2.789421536E-2,-2.683836901E-1,8.613159156E-1,9.025923769E-1
1.575007258E1,4.771195679E-1,3.322703683E-1,-4.560734653E-1,7.389517478E-1
1.576004258E1,8.988875652E-1,7.019310495E-1,-6.673941779E-1,1.321408734E0
1.577001204E1,8.902789289E-1,2.430658311E-2,-1.448138385E0,1.700085929E0
1.577998204E1,1.062881499E0,-1.022825075E0,-2.509776986E0,2.911162780E0
1.578995204E1,8.020071687E-1,-1.753168330E0,-3.076931176E0,3.631021916E0
1.579992204E1,1.076192612E0,-1.185743706E0,-3.043365819E0,3.438932129E0
1.580989304E1,1.047058568E0,-6.480732232E-1,-4.464273137E-1,1.309819794E0
1.581986304E1,1.492851166E0,-3.644762474E-1,4.201128552E0,4.473357648E0
1.582983304E1,1.382528825E0,1.973078895E0,6.001117877E0,6.466671636E0
1.583980304E1,1.273280179E0,3.491777093E0,3.005378798E0,4.779754325E0
1.584977304E1,9.007268069E-1,2.087472652E0,8.925856555E-1,2.442449592E0
1.585974404E1,1.926149434E0,-8.297058678E-1,1.723700702E-2,2.097322242E0
1.586971404E1,1.300310687E0,-2.090944144E0,-1.121366154E0,2.705608499E0
1.587968404E1,9.213367072E-1,-1.349081582E0,-1.831047980E0,2.453898765E0
1.588965404E1,-2.301037600E-1,6.672588149E-1,2.666868281E-1,7.545223195E-1
1.589962404E1,-4.507077679E-2,-8.413266242E-3,1.843356369E0,1.843926479E0
1.590959504E1,-7.097087965E-1,-4.276232529E-1,1.878161336E0,2.052812272E0
1.591956504E1,-4.171814048E-1,-9.208274147E-1,1.426572100E0,1.748448286E0
1.592953504E1,-5.771281883E-1,-1.916310909E-1,1.470679986E0,1.591445583E0
1.593950504E1,3.255051764E-1,-8.460929820E-1,1.671592655E0,1.901591165E0
1.594947504E1,7.838213047E-1,-1.452246054E0,9.109383112E-1,1.884994177E0
1.595944504E1,1.290017249E0,-9.257428765E-1,5.412445933E-1,1.677524988E0
1.596941604E1,1.260292051E0,-4.107663149E-1,-8.132026863E-1,1.555108880E0
1.597938604E1,1.829230666E0,-3.179601851E-1,-1.904038188E0,2.659425677E0
1.598935604E1,1.347020439E0,-2.610164908E-1,-2.892895911E0,3.201787067E0
1.599932604E1,1.171692189E0,4.350881007E-1,-4.170496743E0,4.353757840E0
1.600929604E1,3.992429146E-1,2.048878690E0,-5.127718690E0,5.536316262E0
1.601926704E1,1.231939268E-1,2.702584244E0,-4.647092766E0,5.377230655E0
1.602923704E1,-5.310380591E-1,-1.653943419E-1,-1.197899190E0,1.320726761E0
1.603920704E1,1.666489352E-1,-3.123599851E0,2.488756830E0,3.997318908E0
1.604917704E1,-4.107687268E-2,-2.509477316E0,5.230392873E0,5.801394084E0
1.605914704E1,6.802089357E-1,-5.950091565E-1,5.173218214E0,5.251562318E0
1.606911804E1,5.863793240E-1,7.375987726E-1,2.696329477E0,2.856236214E0
