"Time (s)","Linear Acceleration x (m/s^2)","Linear Acceleration y (m/s^2)","Linear Acceleration z (m/s^2)","Absolute acceleration (m/s^2)"
5.621791643E-3,-2.436333764E-1,2.650947190E0,-1.737119477E0,3.178751690E0
1.559279166E-2,-1.103490046E0,2.410697671E0,-1.331460705E0,2.966806558E0
2.556379169E-2,-1.482111585E0,2.042822437E0,-1.539581822E0,2.956364396E0
3.553479165E-2,-1.749429621E0,2.272477679E0,-2.009180481E0,3.501637475E0
4.550579167E-2,-2.341730054E0,2.201460906E0,-1.088435220E0,3.393349524E0
5.547679169E-2,-2.745363351E0,1.092744326E0,-4.934026748E-1,2.995756380E0
6.544779165E-2,-2.136408877E0,4.365879115E-1,-1.074180878E0,2.430785152E0
7.541879168E-2,-1.302485998E0,9.463294610E-1,-6.383738619E-1,1.731915243E0
8.538979170E-2,-1.235161595E0,6.668106258E-1,-7.918691200E-1,1.611619459E0
9.535979165E-2,-5.784295227E-1,8.611907852E-1,-6.001459354E-1,1.198501325E0
1.053307917E-1,-5.563278515E-1,2.207972073E0,4.727006078E-2,2.277471363E0
1.153017917E-1,-6.418653075E-1,2.580853400E0,-6.077841532E-1,2.728039025E0
1.252727917E-1,-5.053107487E-1,8.848717162E-1,-8.614188266E-1,1.334308548E0
1.352437917E-1,-3.451626749E-1,5.849756268E-1,4.554852355E-1,8.178022718E-1
1.452147916E-1,-8.085990272E-2,1.684180249E0,-2.738017201E-1,1.708206315E0
1.551857917E-1,-2.543195285E-2,1.981345688E0,-9.539422435E-1,2.199177875E0
1.651567917E-1,4.383891463E-2,1.082362010E0,-7.598509365E-1,1.323179057E0
1.751277916E-1,-9.576218963E-2,1.000537243E0,-1.298084798E0,1.641727540E0
1.850987917E-1,3.442685625E-1,2.474181183E0,-1.359346662E0,2.843926285E0
1.950697917E-1,2.875532019E-1,2.986170695E0,-1.185816504E0,3.225842997E0
2.050407917E-1,8.100958414E-1,2.043858856E0,-1.374539482E0,2.592869662E0
2.150107917E-1,1.806413222E0,2.168313332E0,-9.791244471E-1,2.987205403E0
2.249817917E-1,2.091862450E0,3.296723627E0,-1.203878553E0,4.085780067E0
2.349527917E-1,2.436638404E0,4.307614535E0,-1.430665151E0,5.151655314E0
2.449237917E-1,2.199267030E0,3.707563617E0,-1.865677530E0,4.697185976E0
2.548947917E-1,1.980272432E0,2.325109929E0,-1.802756227E0,3.546483484E0
2.648657917E-1,1.692156143E0,2.751862823E0,-1.263990269E0,3.468978641E0
2.748367917E-1,1.789085876E0,4.099127383E0,-7.886245000E-1,4.541541828E0
2.848077916E-1,2.075364092E0,4.065361759E0,-1.043318689E0,4.682180714E0
2.947787917E-1,2.279273897E0,3.241505446E0,-1.246865528E0,4.154169075E0
3.047497917E-1,3.244680777E0,2.809073735E0,-6.496040243E-1,4.340602951E0
3.147207916E-1,2.813234029E0,2.028356133E0,-3.586863345E-1,3.486713380E0
3.246917917E-1,3.230376148E0,1.239021488E0,-7.432395816E-3,3.459849642E0
3.346627917E-1,2.346782487E0,1.088758864E0,-5.737931192E-2,2.587677779E0
3.446327916E-1,2.351521655E0,1.801009079E0,4.462513125E-1,2.995401147E0
3.546037917E-1,1.858047791E0,2.199491856E0,-2.074282211E-1,2.886716558E0
3.645747917E-1,2.363058066E0,1.512219191E0,-5.359218729E-1,2.856232231E0
3.745457917E-1,2.873241665E0,3.808905512E-2,8.051808912E-1,2.984172366E0
3.845167917E-1,3.428532732E0,-2.304221043E-1,3.926627505E-1,3.458629075E0
3.944877917E-1,3.144227073E0,6.805638617E-1,2.398060083E-2,3.217126999E0
4.044587917E-1,3.343471532E0,6.430191824E-1,1.226628900E-2,3.404765192E0
4.144297917E-1,3.283592827E0,-1.030347226E0,5.607655227E-1,3.486840294E0
4.244007916E-1,2.782202271E0,-1.464738923E0,8.926183999E-2,3.145485220E0
4.343717917E-1,1.904877118E0,-8.510505438E-1,7.878140759E-1,2.230133377E0
4.443427917E-1,1.798605581E0,-7.135292941E-1,8.774121308E-1,2.124607761E0
4.543132916E-1,8.810969730E-1,-1.801842307E0,5.181796664E-1,2.071588218E0
4.642832917E-1,7.397817575E-1,-1.720240905E0,1.160863511E0,2.203204464E0
4.742542917E-1,2.953781652E-1,-1.146986314E0,1.985844244E0,2.312229060E0
4.842252916E-1,2.600477533E-1,-1.966300218E0,1.999723780E0,2.816532722E0
4.941962917E-1,4.754613706E-1,-2.877191751E0,1.693779330E0,3.372415204E0
5.041672917E-1,1.656432872E-1,-2.608631768E0,1.239894478E0,2.893049553E0
5.141382916E-1,4.854951927E-1,-2.127707928E0,9.655828804E-1,2.386461168E0
5.241092917E-1,8.846128307E-1,-2.118908161E0,8.358933914E-1,2.443568992E0
5.340802917E-1,5.323726130E-1,-2.408702308E0,2.622932303E-1,2.480738831E0
5.440512917E-1,2.679094809E-1,-1.862385255E0,1.420330782E0,2.357454954E0
5.540222917E-1,2.721820414E-2,-2.102039821E0,1.911113904E0,2.841068213E0
5.639932917E-1,6.917992866E-1,-2.328404835E0,1.288243350E0,2.749477451E0
5.739642917E-1,-3.992091469E-2,-2.213914013E0,6.518955481E-1,2.308241050E0
5.839342917E-1,7.398050733E-2,-2.196207767E0,-5.505270481E-2,2.198142960E0
5.939052917E-1,-1.502907646E-1,-1.522700325E0,-7.163833201E-2,1.531775325E0
6.038762917E-1,2.748729300E-1,-6.758489594E-1,-3.214039028E-2,7.303149651E-1
6.138472917E-1,5.900659934E-1,-7.253029552E-1,2.779625988E-1,9.754514133E-1
6.238182916E-1,5.363362943E-1,-6.112448278E-1,-6.904456562E-1,1.066767109E0
6.337892917E-1,9.460542034E-1,-1.373695144E-1,-8.317535627E-1,1.267163339E0
6.437602917E-1,1.214681284E0,-3.860770315E-2,-3.466521800E-2,1.215788984E0
6.537312916E-1,1.399428155E0,4.118512657E-1,2.512338066E-1,1.480249659E0
6.637022917E-1,1.822701811E0,7.209210518E-1,4.416665107E-1,2.009238254E0
6.736732917E-1,1.794953557E0,1.235486554E0,-5.398149490E-3,2.179062742E0
6.836442917E-1,2.027197507E0,1.007070045E0,-7.141683948E-1,2.373553518E0
6.936152917E-1,2.327328947E0,3.918862402E-1,-4.165416098E-1,2.396568748E0
7.035852917E-1,2.383698445E0,5.440454096E-1,-1.558318055E-1,2.449956578E0
7.135562917E-1,2.299624839E0,1.741752811E0,-8.773209143E-1,3.015239500E0
7.235272917E-1,1.850023364E0,1.765882516E0,-1.018614203E0,2.752907990E0
7.334982917E-1,1.926848615E0,1.193264395E0,-5.620852393E-1,2.335072872E0
7.434692917E-1,2.360283270E0,1.034778246E0,-8.168992960E-1,2.703521332E0
7.534402917E-1,2.001843688E0,1.277527450E0,-7.496890604E-1,2.490278744E0
7.634112916E-1,1.444103807E0,1.848634358E0,-2.336173153E-1,2.357426954E0
7.733822917E-1,9.643618356E-1,1.832565040E0,-1.675028479E-1,2.077581666E0
7.833532917E-1,9.574893837E-1,1.741543481E0,-4.797389013E-1,2.044482582E0
7.933242916E-1,-4.869881330E-1,2.257503252E0,-1.282407829E0,2.641599556E0
8.032952917E-1,-2.636556315E-1,2.466093607E0,-1.344944385E0,2.821348502E0
8.132662917E-1,-5.276929401E-2,2.499730007E0,-1.479810414E0,2.905386991E0
8.232372917E-1,-5.300492949E-1,2.355631517E0,-2.022473541E0,3.149658922E0
8.332072917E-1,-3.112153488E-1,2.687585844E0,-1.529404158E0,3.107901179E0
8.431782917E-1,-3.647216112E-1,3.129357604E0,-9.401995325E-1,3.287837592E0
8.531492917E-1,-2.491425499E-1,3.067865068E0,-9.694771260E-1,3.227034860E0
8.631202917E-1,-5.859051879E-1,3.087281917E0,-1.263630080E0,3.386938958E0
8.730912917E-1,-7.414941877E-1,3.096463508E0,-1.934960604E0,3.725851906E0
8.830622917E-1,-5.795514572E-1,3.455301870E0,-2.313697041E0,4.198593205E0
8.930332917E-1,-1.342173243E0,4.182233567E0,-1.722251177E0,4.717907984E0
9.030042917E-1,-1.069577950E0,3.860487894E0,-1.641965983E0,4.329366705E0
9.129752917E-1,-1.679176640E0,2.722541960E0,-2.011799449E0,3.778783659E0
9.229462917E-1,-1.978057361E0,2.132206191E0,-1.179709087E0,3.138586894E0
9.329172916E-1,-2.111373585E0,2.293797212E0,-9.011377931E-1,3.245220083E0
9.428882917E-1,-2.444967763E0,2.617093566E0,-1.806725902E0,4.011396836E0
9.528582917E-1,-2.532151064E0,2.429507871E0,-1.938877069E0,4.009182185E0
9.628292916E-1,-2.352035626E0,2.282475248E0,-1.538529907E0,3.620613086E0
9.728002917E-1,-3.544712814E0,1.973240570E0,-1.470480012E0,4.315203210E0
9.827712917E-1,-3.679514231E0,2.100047967E0,-1.601051261E0,4.529060783E0
9.927422917E-1,-3.652178498E0,1.578723960E0,-1.368616253E0,4.207598789E0
1.002713292E0,-4.394359441E0,9.121799675E-1,-1.396009873E0,4.700139440E0
1.012684292E0,-4.302293276E0,9.897257414E-1,-3.434730488E-1,4.428008380E0
1.022655292E0,-3.915459908E0,8.523410243E-1,-8.259706664E-1,4.091398178E0
1.032626292E0,-3.916359209E0,2.475658482E-1,-1.858814068E0,4.342159376E0
1.042597292E0,-4.304779513E0,-1.803214064E-1,-1.414898719E0,4.534928979E0
1.052568292E0,-4.497847264E0,-5.653900856E-1,-1.283364433E0,4.711403213E0
1.062539292E0,-3.654814423E0,-1.071874444E0,-3.697510207E-1,3.826656387E0
1.072510292E0,-3.119029959E0,-1.731805528E0,9.800909919E-1,3.699740076E0
1.082480292E0,-2.018273633E0,-1.874655930E0,2.680820907E0,3.843769510E0
1.092451292E0,-1.281062677E0,-2.051316979E0,4.279525096E0,4.915623864E0
1.102422292E0,-8.978903957E-1,-2.894832509E0,3.561012805E0,4.676224397E0
1.112393292E0,4.606006721E-1,-2.081082523E0,3.152428086E0,3.805372555E0
1.122364292E0,1.679463592E-1,-1.923359728E0,1.986624847E0,2.770234089E0
1.132335292E0,3.656774117E-1,-2.341345015E0,1.266310444E0,2.686849194E0
1.142306292E0,7.544369996E-4,-2.808013928E0,7.941992354E-1,2.918166413E0
1.152277292E0,-5.363067658E-1,-3.872505092E0,1.161210251E0,4.078275356E0
1.162248292E0,-3.958126456E-3,-3.627631594E0,7.669284064E-1,3.707816855E0
1.172219292E0,-4.538754970E-3,-2.420125136E0,3.698100775E-1,2.448220940E0
1.182190292E0,3.917896150E-1,-1.998710165E0,1.223667285E0,2.376068822E0
1.192161292E0,7.892237666E-1,-2.056900778E0,1.340867706E0,2.579077581E0
1.202131292E0,-5.405937982E-1,-1.406864060E0,2.298160404E-1,1.524573235E0
1.212102292E0,3.684413905E-1,-1.207792679E0,2.133648992E-2,1.262920211E0
1.222073292E0,1.974258571E0,-1.626469984E0,-6.420529300E-1,2.637296623E0
1.232044292E0,7.197195221E-1,-1.458601978E0,-1.317430311E-1,1.631830918E0
1.242015292E0,1.009254857E0,-1.050739975E0,6.537923849E-1,1.596901482E0
1.251986292E0,4.670165294E-1,-4.709844500E-1,-8.711883545E-2,6.689697171E-1
1.261957292E0,2.063592039E-2,-1.163271394E-1,-6.388954335E-1,6.497270347E-1
1.271928292E0,-2.659235472E-1,4.021597981E-1,-4.243523204E-1,6.422793225E-1
1.281899292E0,-6.575123835E-1,1.205876254E0,-3.496822071E-1,1.417299446E0
1.291870292E0,-1.335894064E0,1.001684175E0,-8.495460552E-1,1.873422706E0
1.301841292E0,-1.117670348E0,4.645957822E-1,-1.504678037E0,1.931085768E0
1.311812292E0,-1.652950562E0,7.849012855E-1,-1.681456908E0,2.485078052E0
1.321782292E0,-1.632417480E0,1.211046655E0,-1.813723265E0,2.724153613E0
1.331753292E0,-1.751922581E0,1.134128287E0,-1.124793207E0,2.370788784E0
1.341724292E0,-1.849055358E0,7.527132404E-1,1.652686268E-1,2.003221570E0
1.351695292E0,-2.077580625E0,2.875567102E-1,2.408953446E-1,2.111175190E0
1.361666292E0,-1.520864153E0,7.745344645E-1,-4.871116555E-1,1.774882862E0
1.371637292E0,-8.275583316E-1,1.463553985E0,-5.618776631E-1,1.772723771E0
1.381608292E0,-1.228115993E0,1.689181957E0,-1.157349334E0,2.387689690E0
1.391579292E0,-1.107325674E0,1.826916045E0,-1.601480446E0,2.669931086E0
1.401550292E0,-1.258554697E0,1.653032423E0,-1.596478738E0,2.620156575E0
1.411521292E0,-1.274049380E0,1.807886282E0,-1.722377477E0,2.803255037E0
1.421492292E0,-8.185045029E-1,2.276837947E0,-2.156874717E0,3.241303627E0
1.431463292E0,-5.651645658E-1,2.359081082E0,-1.695162197E0,2.959433968E0
1.441434292E0,-2.950683906E-1,1.321822447E0,5.663788497E-2,1.355539667E0
1.451404542E0,-1.844830160E-1,1.541570460E0,1.136351983E0,1.923998257E0
1.461375542E0,-3.623016314E-1,2.473105588E0,8.850982958E-1,2.651586830E0
1.471346542E0,-4.221809934E-1,2.773348710E0,-1.962232018E-1,2.812152805E0
1.481317542E0,-3.687581635E-1,3.485179388E0,-1.349404641E0,3.755442828E0
1.491288542E0,-1.707943187E-1,2.998596905E0,-2.909471013E0,4.181599655E0
1.501259542E0,4.975285798E-1,2.663097704E0,-3.463340914E0,4.397084757E0
1.511230542E0,6.204945382E-1,3.010078790E0,-2.588647154E0,4.018293404E0
1.521201542E0,8.164166815E-1,3.780111483E0,-2.054659540E0,4.379201394E0
1.531172542E0,4.559701158E-1,4.256779719E0,-1.498411576E0,4.535782135E0
1.541143542E0,1.127843261E0,5.014254055E0,-2.410847944E-1,5.145181826E0
1.551114542E0,1.921823080E0,4.814822778E0,-6.719725478E-1,5.227568215E0
1.561085542E0,2.108435944E0,4.243708561E0,-2.489551467E-1,4.745159971E0
1.571055542E0,3.007613312E0,3.873138053E0,-5.618753242E-1,4.935852519E0
1.581026542E0,2.548216289E0,3.763776117E0,-1.407831774E0,4.758298773E0
1.590997542E0,2.859496907E0,4.025382884E0,-1.535730261E0,5.170966772E0
1.600968542E0,3.098781344E0,4.091006770E0,-1.416673933E0,5.324072430E0
1.610939542E0,2.725405342E0,3.843363154E0,-1.370211958E0,4.906807049E0
1.620910542E0,3.664443617E0,3.422259254E0,-2.797249496E-2,5.014059023E0
1.630881542E0,3.415769722E0,2.815692784E0,-1.947380090E-1,4.430974107E0
1.640852542E0,3.205709084E0,2.436326602E0,-4.648711860E-2,4.026713187E0
1.650823542E0,2.475391849E0,1.010804077E0,7.863896942E-1,2.787059102E0
1.660794542E0,1.570058971E0,2.551681057E-1,9.811464143E-1,1.868915253E0
1.670765542E0,6.255783999E-1,-1.240061416E0,1.181414135E0,1.823414382E0
1.680736542E0,-6.148679088E-1,-2.004545394E0,7.830369008E-1,2.238171479E0
1.690707542E0,-1.286055176E0,-1.797073903E0,3.538729066E-1,2.237998785E0
1.700677542E0,-1.972632606E0,-7.407314184E-1,5.922118485E-2,2.107953885E0
1.710648542E0,-2.367837287E0,-1.131748470E0,7.252979851E-1,2.722786291E0
1.720619542E0,-1.149826672E0,-2.713942460E0,4.565079135E-1,2.982613708E0
1.730590542E0,-1.233303496E0,-3.214072942E0,7.458076787E-1,3.522432608E0
1.740561542E0,-6.152729016E-1,-3.670768258E0,7.463684267E-1,3.796072467E0
1.750532542E0,-6.845472774E-1,-3.475739643E0,5.468269300E-1,3.584465194E0
1.760503542E0,-2.344691815E-1,-2.318479771E0,3.315160775E-1,2.353768713E0
1.770474542E0,3.513012280E-1,-1.141941044E0,-6.400713086E-2,1.196469312E0
1.780445542E0,-6.567505644E-1,-7.314413622E-1,-5.810436666E-2,9.847354404E-1
1.790416542E0,6.498914149E-1,-6.042112121E-1,-9.871386409E-2,8.928462729E-1
1.800387542E0,1.330073746E0,-1.068949959E0,3.772752178E-1,1.747594568E0
1.810358542E0,1.745590777E0,-1.075596489E0,4.493696326E-1,2.099030261E0
1.820328542E0,2.317138712E0,-1.899725282E-1,6.602804554E-1,2.416855736E0
1.830299542E0,2.076612327E0,1.790370655E-1,6.342889971E-1,2.178691249E0
1.840270542E0,2.707637700E0,4.859387040E-1,-2.133491117E-1,2.759158601E0
1.850241542E0,2.424959760E0,5.887286621E-1,3.738177592E-1,2.523246122E0
1.860212542E0,2.040030391E0,5.541698635E-1,6.826098025E-1,2.221437457E0
1.870183542E0,2.059271239E0,8.057714599E-1,1.638407367E-1,2.217365434E0
1.880154542E0,1.202204349E0,5.670518643E-1,-3.383988351E-1,1.371625636E0
1.890125542E0,1.243048904E0,-1.452708569E-1,-1.246738059E0,1.766530495E0
1.900096542E0,7.824083982E-1,-5.982827201E-1,-1.304193385E0,1.634327231E0
1.910067542E0,2.375312222E-1,-2.404220125E-1,-1.280196996E0,1.324057467E0
1.920038542E0,4.584737474E-1,6.893653831E-1,-1.095747748E0,1.373348439E0
1.930008542E0,-5.046391960E-1,1.344775400E0,-1.577134395E-1,1.444975821E0
1.939979542E0,-1.713563823E-1,1.348787467E0,6.136331230E-1,1.491689060E0
1.949950542E0,-4.558650121E-1,1.192409824E0,3.036622810E-1,1.312198491E0
1.959921542E0,-5.846853856E-1,1.051688101E0,4.136285269E-1,1.272396723E0
1.969892542E0,-1.664222094E-1,8.288296625E-1,1.717742389E-1,8.626478716E-1
1.979863542E0,-6.347416446E-1,1.305325990E0,-5.733253419E-1,1.560600796E0
1.989834542E0,2.750172101E-1,1.477717111E0,-1.354471253E0,2.023332573E0
1.999805542E0,-9.789678879E-2,1.790509819E0,-1.696614645E0,2.468604960E0
2.009776542E0,-1.583692778E-1,1.387158650E0,-8.871003824E-1,1.654157501E0
2.019747542E0,-1.941506562E-1,1.219702873E-1,8.023490846E-2,2.429174115E-1
2.029718542E0,-7.854224186E-1,-1.859122217E-1,9.533323789E-1,1.249117430E0
2.039689542E0,-3.545566653E-1,-2.630790961E-1,1.327581663E0,1.399069016E0
2.049660542E0,-1.589939797E-1,5.077078879E-1,1.185055781E0,1.299000997E0
2.059630542E0,-3.546538022E-1,7.765994087E-1,-2.314327955E-3,8.537513204E-1
2.069601542E0,4.714425062E-1,8.529333472E-1,-8.691728193E-1,1.305838704E0
2.079572542E0,1.983421596E-1,2.786183640E-1,-1.649628759E0,1.684708535E0
2.089543542E0,-9.959415510E-1,-1.032084726E0,-2.951921799E0,3.281911144E0
2.099514542E0,-1.003937765E0,-2.100589419E0,-1.946546862E0,3.034701242E0
2.109485542E0,-9.907184525E-1,-2.111831276E0,8.713661098E-1,2.490107083E0
2.119456542E0,-3.471627150E-1,-1.809132324E0,3.164145321E0,3.661324532E0
2.129427542E0,-9.403316796E-1,-1.662808091E0,4.334642705E0,4.736906352E0
2.139398542E0,-1.129608389E0,-1.834779673E0,2.506487342E0,3.305285216E0
2.149369542E0,-1.540894521E0,-1.895259471E0,8.811467475E-1,2.596687116E0
2.159340542E0,-2.553198409E0,-2.686458500E0,-2.070616007E-1,3.711974663E0
2.169310542E0,-2.863038566E0,-3.390134944E0,-2.199640667E-1,4.442790672E0
2.179281542E0,-2.348326591E0,-3.007872343E0,8.610831964E-1,3.911955787E0
2.189252542E0,-2.452073446E0,-3.295359472E0,2.431086327E0,4.773074372E0
2.199223542E0,-3.083532390E0,-3.188200182E0,2.480744975E0,5.082016139E0
2.209194542E0,-2.305465769E0,-2.366174924E0,2.099009501E0,3.914051235E0
2.219165542E0,-1.867232305E0,-1.544527981E0,1.005467908E0,2.623564156E0
2.229136542E0,-1.182869288E0,-1.108948714E0,9.924116600E-1,1.901007077E0
2.239107542E0,8.339853718E-1,-1.192000519E0,3.781400210E-1,1.503125648E0
2.249078542E0,8.161666399E-1,-3.148252004E-1,3.261343002E-2,8.753893572E-1
2.259049542E0,4.189003766E-2,2.911068472E-1,-2.855984777E-1,4.099566590E-1
2.269020542E0,5.070846478E-1,1.399723147E0,-1.201183571E0,1.912903997E0
2.278991542E0,-2.513577676E-1,1.604425397E0,-2.361961128E0,2.866395289E0
2.288961542E0,-2.638263702E-1,2.091801346E0,-2.636010185E0,3.375468401E0
2.298932542E0,-3.574712831E-1,2.652433845E0,-2.225703462E0,3.480940522E0
2.308903542E0,-2.562885784E-1,1.973780853E0,-6.125180590E-1,2.082468022E0
2.318874542E0,-3.478874774E-1,1.833549419E0,9.332916319E-1,2.086615067E0
2.328845542E0,-7.625524963E-1,1.452582562E0,2.701314229E-1,1.662664546E0
2.338816542E0,-4.188846622E-1,1.455328122E0,-6.317267472E-1,1.640890912E0
2.348787542E0,-3.957023524E-1,2.165376861E0,-2.345818720E0,3.216877798E0
2.358758542E0,-2.535513505E-1,2.188141241E0,-3.036031657E0,3.750965022E0
2.368729542E0,1.343160984E-1,1.003772508E0,-1.644218330E0,1.931075861E0
2.378700542E0,2.124432318E-2,6.960803255E-1,-1.849100089E-1,7.205351152E-1
2.388671542E0,1.392390154E-1,4.566429842E-1,1.526882839E0,1.599775460E0
2.398642542E0,3.969739026E-1,-7.460386437E-1,1.844004241E0,2.028426379E0
2.408612542E0,4.773569649E-1,-1.182630941E0,2.094062172E0,2.451852768E0
2.418583542E0,1.094891935E0,-1.439760202E0,1.132325590E0,2.133977280E0
2.428554542E0,1.284727858E0,-8.754585761E-1,-4.373746544E-1,1.615007732E0
2.438525542E0,7.199086795E-1,-6.608774561E-1,-1.045125479E0,1.430844081E0
2.448496542E0,9.957081740E-1,-1.252507799E0,-1.642853590E0,2.293289880E0
2.458467167E0,5.282526648E-1,-9.765645361E-1,-8.087172872E-1,1.373591213E0
2.468438167E0,1.285260393E-1,-7.272114864E-1,3.090060514E-1,8.005249706E-1
2.478409167E0,-3.304417978E-1,-7.227597088E-2,3.401255178E-1,4.796884047E-1
2.488380167E0,-8.625834458E-1,2.762560889E-1,5.419140995E-2,9.073611941E-1
2.498351167E0,-8.693784951E-1,5.130694923E-1,-9.420589471E-1,1.380773092E0
2.508322167E0,-3.768249822E-1,6.121885684E-1,-1.185608928E0,1.386520984E0
2.518292167E0,-1.494341841E-1,1.200580723E0,-1.707538998E-1,1.221835317E0
2.528263167E0,2.388786399E-1,1.153226170E0,4.869567043E-1,1.274409838E0
2.538234167E0,2.143844343E-1,1.379112589E-1,1.961795815E0,1.978287902E0
2.548205167E0,4.923897178E-1,1.037915277E0,7.928713328E-1,1.395836920E0
2.558176167E0,1.690337221E-1,1.987304294E0,-8.971318656E-1,2.186960525E0
2.568147167E0,1.770346134E-1,8.495776302E-1,-2.077712188E0,2.251668568E0
2.578118167E0,3.177199376E-1,-4.108782890E-1,-1.463127138E0,1.552581060E0
2.588089167E0,3.091134575E-1,-1.682047477E0,5.038598353E-1,1.782893597E0
2.598060167E0,8.464642071E-1,-1.175024005E0,1.677257438E0,2.215936727E0
2.608031167E0,1.156334550E0,-1.141780246E0,1.695009000E0,2.348154005E0
2.618002167E0,1.761937692E0,-1.309295080E0,5.912891579E-1,2.273389739E0
2.627972167E0,1.664531850E0,-5.885026672E-1,-6.533403951E-1,1.882513039E0
2.637943167E0,1.254679016E0,-1.162701291E0,-1.967383415E-1,1.721859373E0
2.647914167E0,9.963329490E-1,-1.641782088E0,1.136123942E0,2.231346092E0
2.657885167E0,7.848832322E-1,-9.150804788E-1,1.436185507E0,1.875111405E0
2.667856167E0,3.604206187E-1,-1.024635665E0,6.618521869E-1,1.271939301E0
2.677827167E0,-2.242377967E-1,-1.291970073E0,3.834136248E-1,1.366190055E0
2.687798167E0,-3.595705797E-1,-1.102553907E0,4.971653581E-1,1.261780295E0
2.697769167E0,-7.647547770E-1,-1.377961857E0,5.930076545E-1,1.683830997E0
2.707740167E0,-1.365558013E0,-1.589210064E0,5.259769285E-1,2.160321514E0
2.717711167E0,-1.320529043E0,-1.260860254E0,9.575394505E-1,2.061661304E0
2.727682167E0,-1.204148548E0,-1.070841825E0,1.322232630E0,2.084460378E0
2.737653167E0,-5.852489476E-1,-7.327295038E-1,1.159059645E0,1.490915194E0
2.747623167E0,-5.750618188E-1,8.908028394E-2,5.739784759E-1,8.173632505E-1
2.757594167E0,-4.015840301E-1,-2.113689521E-1,-4.316005290E-2,4.558611163E-1
2.767565167E0,7.751544155E-2,5.117410049E-1,2.016429859E-1,5.554704254E-1
2.777536167E0,-2.341891730E-1,5.028716558E-1,-2.588135523E-1,6.121347285E-1
2.787507167E0,-5.758287908E-1,2.467340818E-1,-7.614536583E-1,9.860366003E-1
2.797478167E0,-4.749247424E-2,1.026392169E0,-1.236776158E0,1.607902884E0
2.807449167E0,3.124110678E-1,6.718442014E-1,-1.316655555E0,1.510813409E0
2.817420167E0,7.290120634E-1,5.303249180E-2,-1.594085473E-1,7.481190538E-1
2.827391167E0,8.101182801E-1,5.531597570E-1,-5.077137351E-2,9.822703685E-1
2.837362167E0,8.103015903E-1,1.708499403E0,-1.641997558E-1,1.898030674E0
2.847333167E0,1.283381098E0,1.302640364E0,-8.134412527E-1,2.001405914E0
2.857303167E0,1.355160348E0,7.583441091E-1,-5.021074247E-1,1.632071451E0
2.867274167E0,1.834717693E0,4.649787748E-1,1.068312612E0,2.173404268E0
2.877245167E0,1.988689499E0,2.983021384E-1,2.107549945E0,2.913011647E0
2.887216167E0,1.897233053E0,9.233727077E-1,6.735279071E-1,2.214892832E0
2.897187167E0,1.560135662E0,9.794562766E-1,-1.459189623E0,2.350019625E0
2.907158167E0,1.230602229E0,2.232613117E-2,-2.507618194E0,2.793390289E0
2.917129167E0,1.104184257E0,-3.451678643E-1,-1.662609578E0,2.025496072E0
2.927100167E0,1.159051751E0,-3.509054446E-1,-7.544937176E-1,1.426813359E0
2.937071167E0,1.630015590E0,-1.268860415E-1,5.443956578E-1,1.723199792E0
2.947042167E0,2.108081456E0,2.396785390E-1,9.949861890E-1,2.343384464E0
2.957013167E0,2.237426837E0,3.970373449E-1,1.138798458E0,2.541766990E0
2.966984167E0,2.742402321E0,2.864340448E-1,3.209630227E-1,2.775938078E0
2.976954167E0,2.697489565E0,1.332255634E0,-5.401020473E-1,3.056642807E0
2.986925167E0,3.379949679E0,9.701516023E-1,1.749136090E-2,3.516469808E0
2.996896167E0,2.666878806E0,3.150172815E-1,3.884410608E-1,2.713367818E0
3.006867167E0,2.788198591E0,8.234964171E-1,-2.353533536E-1,2.916777148E0
3.016838167E0,2.438504543E0,1.078473904E0,-1.063702083E-1,2.668468660E0
3.026809167E0,1.347412202E0,1.070883048E0,-9.670166177E-1,1.974191299E0
3.036780167E0,1.485389827E0,9.178988367E-1,-1.477880248E0,2.287586335E0
3.046751167E0,9.897472300E-1,1.144211226E0,-1.579049358E0,2.186827790E0
3.056722167E0,9.745874463E-1,1.010390094E0,-3.298127836E-1,1.442042061E0
3.066693167E0,1.210620977E0,3.705854183E-1,1.283293682E0,1.802714447E0
3.076664167E0,1.158433408E0,3.882644749E-1,2.373434535E0,2.669439783E0
3.086634167E0,1.341547445E0,5.213836482E-1,3.002296146E0,3.329470319E0
3.096605167E0,7.922733088E-1,7.690959692E-2,1.456198187E0,1.659555737E0
3.106576167E0,9.394234608E-1,1.465180973E0,2.693227530E-3,1.740482397E0
3.116547167E0,1.863473422E0,5.565806705E-1,2.372039974E-2,1.944962184E0
3.126518167E0,9.441917190E-1,-2.337792832E-1,1.284863659E0,1.611528895E0
3.136489167E0,1.007653158E0,-6.832807705E-1,1.331339668E0,1.804079491E0
3.146460167E0,8.712694846E-1,-5.394720098E-1,-1.941187888E-1,1.042987377E0
3.156431167E0,3.081544045E-1,2.195264027E-1,-1.045734758E0,1.112075610E0
3.166402167E0,-4.496080528E-1,-2.815016261E-1,-1.187816836E0,1.300884085E0
3.176373167E0,-4.322972247E-1,-1.404884485E0,5.629640758E-1,1.574010755E0
3.186344167E0,-2.714578637E-1,-9.129196402E-1,2.715848068E0,2.878010141E0
3.196314167E0,-3.034751701E-1,8.053574771E-2,1.328977978E0,1.365564224E0
3.206285167E0,-1.955399546E-1,4.552349746E-1,-6.480855024E-1,8.157754436E-1
3.216256167E0,-1.235323271E0,-1.285323250E0,-1.152882646E0,2.123020922E0
3.226227167E0,-2.014844972E0,-1.887285039E0,-5.781510490E-1,2.820585704E0
3.236198167E0,-1.852659582E0,-5.064285171E-1,8.566521764E-2,1.922538920E0
3.246169167E0,-2.515167534E0,-1.129783806E0,1.782862830E-1,2.763017403E0
3.256140167E0,-2.951213993E0,-1.303860093E0,8.218261600E-2,3.227455524E0
3.266111167E0,-2.967751966E0,-1.907119086E0,3.459154308E-2,3.527867842E0
3.276082167E0,-2.703435599E0,-1.863486871E0,-1.558516860E-1,3.287162470E0
3.286053167E0,-2.388406038E0,-9.790291375E-1,3.078465486E-1,2.599567455E0
3.296024167E0,-2.078735743E0,-2.249327382E-1,1.322025054E0,2.473759743E0
3.305994167E0,-4.721997938E-1,2.115870532E-1,1.275142663E0,1.376128823E0
3.315965167E0,-7.058206174E-1,5.349038726E-1,4.506484187E-1,9.936744407E-1
3.325936167E0,-1.443049992E0,9.524272299E-1,-3.528379494E-1,1.764654506E0
3.335907167E0,-1.326705603E0,7.265156677E-1,-1.343244014E0,2.022937779E0
3.345878167E0,-1.637149924E0,3.040329945E-1,-3.130853614E0,3.546116226E0
3.355849167E0,-2.253412832E0,1.940679181E-1,-3.916439316E0,4.522613035E0
3.365820167E0,-2.183140994E0,1.041862732E-1,-2.383073085E0,3.233573365E0
3.375791167E0,-2.176975982E0,-1.006918017E0,-5.017296946E-1,2.450477710E0
3.385762167E0,-1.587267327E0,-9.235720977E-1,8.339532852E-1,2.016898874E0
3.395733167E0,-6.941105448E-1,-3.524909171E-1,1.746653363E0,1.912285874E0
3.405704167E0,1.391820051E-2,3.595259947E-1,2.147016896E0,2.176955261E0
3.415675167E0,5.363396564E-1,7.608189431E-1,1.793478450E0,2.020660942E0
3.425645167E0,5.204081134E-1,6.826700288E-1,5.435659379E-1,1.016034892E0
3.435616167E0,2.109793083E-1,-9.557566345E-3,-6.210813063E-1,6.560073206E-1
3.445587167E0,-3.973014928E-2,-2.413409024E-2,-1.796247107E0,1.796848521E0
3.455558792E0,-2.348132171E-2,-1.646625629E-1,-2.104740942E0,2.111302812E0
3.465529792E0,4.123314683E-1,-1.165538360E0,-2.039663186E0,2.385104363E0
3.475500792E0,6.616737007E-1,-8.094821030E-1,-9.197582513E-1,1.392490073E0
3.485471792E0,7.670194767E-1,-7.019863057E-1,4.707277572E-1,1.141353702E0
3.495442792E0,7.595645691E-1,-2.556043079E-1,1.522899715E0,1.720899602E0
3.505413792E0,9.605292050E-1,-5.010099024E-1,1.949639454E0,2.230408320E0
3.515384792E0,1.132073575E0,-2.258048505E-2,1.709363329E0,2.050371540E0
3.525355792E0,7.949696061E-1,9.112172234E-1,9.609355134E-1,1.544568083E0
3.535325792E0,3.044553097E-1,8.420610344E-1,-1.257034421E-1,9.041908961E-1
3.545296792E0,2.966579380E-1,1.060945998E0,-7.158605790E-1,1.313799342E0
3.555267792E0,2.868806990E-1,9.254648414E-1,-1.162246962E0,1.513143651E0
3.565238792E0,3.366849796E-1,1.156197725E0,-8.603522944E-1,1.479985144E0
3.575209792E0,-1.304395406E-1,7.512923670E-1,-6.165678406E-1,9.806174567E-1
3.585180792E0,-9.967334832E-1,2.521965507E-1,8.427878433E-1,1.329425472E0
3.595151792E0,-6.543154183E-1,8.256236342E-1,7.068201989E-1,1.268612567E0
3.605122792E0,-9.411807684E-1,7.130451447E-1,-2.810931981E-2,1.181120126E0
3.615093792E0,-9.507098296E-1,1.224973260E0,-1.324076257E0,2.039016087E0
3.625064792E0,-1.071905141E0,9.902329874E-1,-1.180682648E0,1.877113081E0
3.635035792E0,-1.829905873E-1,4.966958266E-1,-5.389975083E-1,7.554539120E-1
3.645005792E0,1.717902822E-1,1.802623495E-1,1.590302324E-1,2.954607090E-1
3.654976792E0,9.687160378E-1,-4.063390955E-1,1.033163829E0,1.473414307E0
3.664947792E0,9.844280910E-1,-1.100326703E0,1.429944189E0,2.055372935E0
3.674918792E0,1.239179363E0,-1.613987933E0,1.477721788E0,2.514793078E0
3.684889792E0,1.457338979E0,-1.916194257E0,9.118253338E-1,2.574308212E0
3.694860792E0,1.008502393E0,-1.422646572E0,1.972125506E-1,1.754962431E0
3.704831792E0,5.974388207E-1,-1.033066473E0,-1.744177651E-1,1.206060131E0
3.714802792E0,-1.835383983E-1,-4.028895307E-1,-3.699977732E-1,5.769789162E-1
3.724773792E0,-1.598263308E-1,-6.744032353E-2,-1.070391297E0,1.084357037E0
3.734744792E0,-4.516977746E-1,7.648655087E-2,-3.516012633E-1,5.774985025E-1
3.744715792E0,-2.813495254E-1,6.482793376E-1,7.303406239E-2,7.104629682E-1
3.754685792E0,4.193444726E-1,1.297076446E0,2.999329269E-2,1.363508963E0
3.764656792E0,1.503398959E0,4.908375013E-1,3.105082011E-1,1.611690176E0
3.774627792E0,2.092080405E0,-5.199408478E-1,5.630114383E-1,2.228030696E0
3.784598792E0,2.348600825E0,5.943987072E-3,3.848321593E-1,2.379927931E0
3.794569792E0,2.502189639E0,2.349028257E-1,5.221972883E-1,2.566870143E0
3.804540792E0,1.295373152E0,-8.604353249E-2,4.408917546E-1,1.371050923E0
3.814511792E0,1.555555830E0,-1.293690616E-1,5.589014304E-1,1.657968969E0
3.824482792E0,1.453428654E0,6.603687483E-1,7.340857655E-1,1.757106612E0
3.834453792E0,3.262848660E-1,5.829466429E-1,1.933855480E-1,6.954757886E-1
3.844424792E0,8.224226490E-1,3.220970902E-1,-8.805936009E-1,1.247225176E0
3.854395792E0,1.401542801E0,-2.246324837E-1,-2.044882995E0,2.489242544E0
3.864365792E0,1.509365458E0,-2.854446959E-1,-1.917536486E0,2.456951146E0
3.874336792E0,1.591394584E0,5.925305218E-1,1.146071810E-1,1.701988234E0
3.884307792E0,1.311260914E0,7.714331013E-1,1.452731373E0,2.103554767E0
3.894278792E0,2.038493012E0,9.064523274E-1,1.119525450E0,2.496086300E0
3.904249792E0,1.525227784E0,5.420137945E-1,-9.720352829E-2,1.621587886E0
3.914220792E0,1.647378604E0,3.600686163E-1,-5.782568836E-1,1.782662811E0
3.924191792E0,1.688284117E0,1.446294174E-1,-8.988573790E-1,1.918115094E0
3.934162792E0,9.536063940E-1,-4.034988105E-1,-6.615188956E-1,1.228732556E0
3.944133792E0,8.812392797E-1,-6.372927117E-1,-1.142282814E-1,1.093513955E0
3.954104792E0,-1.110992901E-1,-2.794942769E-1,-1.610983926E-1,3.411931934E-1
3.964075792E0,-5.303879218E-1,-3.341639891E-1,-6.171981704E-1,8.797218315E-1
3.974045792E0,-9.768552158E-1,-7.523840421E-1,-1.006363117E0,1.591569848E0
3.984016792E0,-9.355191287E-1,-8.435579216E-1,3.011240047E-1,1.295168589E0
3.993987792E0,-1.328100018E0,-6.657125187E-1,1.004925871E0,1.793571527E0
4.003958792E0,-1.694066429E0,6.813775018E-1,1.662648169E0,2.469521269E0
4.013929792E0,-1.970979452E0,7.907581490E-1,1.877297702E0,2.834484982E0
4.023900792E0,-2.230923710E0,1.142717847E0,6.394035566E-1,2.586824614E0
4.033871792E0,-2.103514489E0,1.625023383E0,-2.899488062E-1,2.673863218E0
4.043842792E0,-1.548773206E0,-4.212401399E-1,-1.804824972E0,2.415271181E0
4.053813792E0,-2.094800091E0,1.109893917E0,-1.159455501E0,2.639012881E0
4.063784792E0,-2.114419253E0,1.021155987E0,2.357071102E-1,2.359891136E0
4.073755792E0,-2.151093282E0,-2.904510820E-1,-1.521044394E0,2.650498102E0
4.083725792E0,-1.436669072E0,8.736971024E-1,-2.215895927E0,2.781646888E0
4.093696792E0,-1.545532533E0,1.749223506E0,-1.073102651E0,2.569047097E0
4.103667792E0,-8.911572538E-1,9.711017749E-1,7.366842681E-1,1.509934972E0
4.113638792E0,-6.704741988E-1,-2.152737227E-1,6.411249769E-1,9.523232974E-1
4.123609792E0,-8.004634307E-1,-6.068369043E-1,-7.319275582E-1,1.242863904E0
4.133580792E0,-1.470136488E0,-7.605461705E-1,-5.656415159E-1,1.749194699E0
4.143551792E0,-1.736488709E0,-1.568269139E0,-5.504370010E-1,2.403714213E0
4.153522792E0,-1.178609591E0,-1.981421117E0,2.666833198E-1,2.320833946E0
4.163493792E0,-1.193147889E0,-1.375573854E0,4.035034883E-1,1.865105997E0
4.173464792E0,-6.816809723E-1,1.578830087E-1,4.364016777E-1,8.246589700E-1
4.183435792E0,-5.066996086E-1,-2.105289996E-1,1.546382718E0,1.640843217E0
4.193405792E0,-7.646988630E-2,-6.046766505E-1,5.858547556E-1,8.454036254E-1
4.203376792E0,2.627376187E-1,-3.924700847E-1,-4.874882162E-1,6.787551728E-1
4.213347792E0,-4.240693152E-3,2.751334235E-1,-9.104617631E-1,9.511345890E-1
4.223318792E0,4.813262741E-1,6.940671292E-1,-3.927048504E-2,8.455449917E-1
4.233289792E0,7.513952780E-1,-2.358027121E-1,6.554097247E-1,1.024577811E0
4.243260792E0,1.174752768E0,-6.725829971E-1,4.025954157E-1,1.412265918E0
4.253231792E0,7.906124072E-1,-4.879735351E-2,5.779656923E-1,9.805577502E-1
4.263202792E0,4.889903659E-1,-7.851582706E-2,1.308682877E0,1.399259513E0
4.273173792E0,4.535941728E-1,1.627809289E-1,5.468719536E-1,7.289130525E-1
4.283144792E0,1.115460832E0,-4.970741415E-1,-1.902789223E-1,1.235937554E0
4.293114792E0,7.425718296E-1,-2.227029026E-2,-8.068491018E-1,1.096774526E0
4.303085792E0,3.548077302E-1,-3.693779683E-1,2.647034526E-3,5.121870905E-1
4.313056792E0,1.307389911E-1,-8.013591510E-1,8.619953620E-1,1.184189671E0
4.323027792E0,-1.324226238E-2,-3.305433932E-1,1.001633888E0,1.054848207E0
4.332998792E0,-1.187068831E-1,3.549561033E-1,1.745101511E-1,4.129636209E-1
4.342969792E0,-5.488178339E-1,8.870831332E-1,1.480491614E-1,1.053582486E0
4.352940792E0,-9.161856025E-2,1.100535156E0,-8.558388287E-1,1.397151277E0
4.362911792E0,-1.793946958E-1,4.461840695E-1,-1.399166785E0,1.479503421E0
4.372882792E0,-3.987157881E-1,6.044453931E-1,-1.768372260E0,1.910881724E0
4.382853792E0,-6.628807122E-1,6.754583654E-1,-1.310707183E0,1.616665754E0
4.392824792E0,-4.682746310E-1,4.805662823E-1,-4.566915160E-1,8.116601644E-1
4.402795792E0,-3.279209170E-1,5.599825805E-1,1.569860458E-1,6.676505350E-1
4.412765792E0,2.751071110E-1,4.691340986E-1,1.087398509E0,1.215815053E0
4.422736792E0,5.362698553E-1,3.654778755E-1,6.545636326E-1,9.217445331E-1
4.432707792E0,7.412007306E-1,4.379690239E-1,-3.037534976E-1,9.129411680E-1
4.442678792E0,1.329670288E0,1.735857064E-1,-9.941728413E-1,1.669291679E0
4.452649542E0,1.045923331E0,-3.530376318E-1,-1.696723988E0,2.024219226E0
4.462620542E0,1.306034673E0,-1.542840475E-1,-1.412035337E0,1.929604604E0
4.472591542E0,5.035816540E-1,-4.539950725E-1,7.727510637E-1,1.028032205E0
4.482562542E0,1.281247741E-1,-4.776236710E-1,1.469687129E0,1.550651665E0
4.492533542E0,6.791866232E-1,6.130875778E-1,2.019747570E0,2.217329721E0
4.502504542E0,5.276249662E-1,1.949593261E-1,8.425194561E-1,1.013033207E0
4.512475542E0,7.831743834E-1,3.698875532E-1,-7.027955604E-1,1.115392539E0
4.522445542E0,9.171327053E-1,-1.844097796E-1,-5.408855742E-1,1.080600097E0
4.532416542E0,1.422149558E0,3.355114800E-1,-8.729711705E-1,1.702103400E0
4.542387542E0,8.324728433E-1,8.280253780E-1,-6.088302201E-1,1.322615325E0
4.552358542E0,6.065897863E-1,2.175880507E-1,2.505239546E-2,6.449211977E-1
4.562329542E0,2.806014472E-1,-1.671037754E-1,4.003664571E-1,5.166760532E-1
4.572300542E0,8.600318670E-2,-7.066769421E-2,-2.059576464E-1,2.341132701E-1
4.582271542E0,2.471123236E-1,9.006612450E-2,5.654292619E-1,6.236077754E-1
4.592242542E0,3.517677628E-1,2.819732040E-1,4.512003958E-1,6.378332414E-1
4.602213542E0,8.611915161E-1,8.669546780E-1,2.420630336E-2,1.222230415E0
4.612184542E0,1.061679604E0,-3.276721179E-2,1.244439518E-1,1.069450124E0
4.622154542E0,1.180771088E0,-2.074896169E-1,-9.926408708E-1,1.556473000E0
4.632125542E0,3.466009437E-1,-4.103236806E-1,-7.852056330E-1,9.513388583E-1
4.642096542E0,-1.084844884E-1,-1.925891572E-1,-3.436975819E-1,4.086410350E-1
4.652067542E0,-2.064013769E-1,-6.517321184E-1,5.964867479E-1,9.072776438E-1
4.662038542E0,-2.648187158E-1,-1.783499007E0,9.932700312E-1,2.058539049E0
4.672009542E0,2.457584739E-2,-1.050395574E0,1.241719394E0,1.626592108E0
4.681980542E0,-2.957556029E-1,-8.816884920E-1,1.845850791E0,2.066884399E0
4.691951542E0,-9.987168588E-2,6.636934751E-1,1.539282444E0,1.679242039E0
4.701922542E0,1.277007048E-1,1.655103799E0,5.530524606E-1,1.749726573E0
4.711893542E0,5.089255705E-2,-4.955252141E-2,-1.718467444E-1,1.859484023E-1
4.721864542E0,5.144236343E-1,-4.779593012E-1,-1.150795190E0,1.348112139E0
4.731834542E0,2.850747865E-1,-8.537732998E-1,-7.122978705E-1,1.147852228E0
4.741805542E0,4.218015457E-1,-3.781850445E-1,-1.346600316E0,1.460915084E0
4.751776542E0,4.161880725E-1,-6.677669379E-1,-7.606116593E-1,1.094374384E0
4.761747542E0,3.661725978E-1,-7.471162856E-1,1.213998914E-1,8.408347336E-1
4.771718542E0,7.401556870E-1,2.950820768E-1,2.330437034E-1,8.301886778E-1
4.781689542E0,2.790222605E-1,9.942547023E-2,6.849948817E-1,7.462954066E-1
4.791660542E0,3.501072997E-1,3.384415197E-1,1.038902872E0,1.147360867E0
4.801631542E0,1.216320258E-1,5.497981927E-1,8.088798398E-1,9.855754652E-1
4.811602542E0,7.013160686E-1,8.911332071E-2,2.839782143E-1,7.618589359E-1
4.821573542E0,4.321189577E-1,1.426390252E-1,-4.680082172E-1,6.527667091E-1
4.831544542E0,1.117401742E0,-3.655287462E-1,-4.531732464E-1,1.259985678E0
4.841514542E0,7.958075852E-1,-1.463891369E-1,-5.962704009E-1,1.005125805E0
4.851485542E0,5.324215103E-1,-3.112162989E-1,8.635577381E-2,6.227243122E-1
4.861456542E0,4.330787051E-1,-3.238325438E-1,7.242823237E-1,9.038858145E-1
4.871427542E0,-2.098750616E-1,-3.968245062E-1,1.597179819E0,1.659066185E0
4.881398542E0,-3.420216968E-1,7.742836189E-1,1.388175189E0,1.625891853E0
4.891369542E0,-7.950090748E-1,8.871380970E-1,5.127657294E-2,1.192343373E0
4.901340542E0,-1.094785881E0,1.919161427E-1,-7.483254898E-1,1.339917524E0
4.911311542E0,-1.306988061E0,-2.101167709E-1,-2.072929750E0,2.459553740E0
4.921282542E0,-1.244909781E0,-8.609098265E-1,-1.778426548E0,2.335330186E0
4.931253542E0,-1.150050182E0,-1.013646993E0,-9.221281278E-1,1.788970635E0
4.941224542E0,-1.621584782E0,-4.623329097E-1,-9.427465796E-3,1.686231835E0
4.951194542E0,-1.891296375E0,-2.952925766E-1,4.157884884E-1,1.958846535E0
4.961165542E0,-1.636169784E0,-2.261974910E-1,1.527837104E0,2.250000685E0
4.971136542E0,-1.842097610E0,-1.499138385E-1,1.934539604E0,2.675488973E0
4.981107542E0,-1.242348408E0,1.483055326E0,1.310644033E0,2.336807747E0
4.991078542E0,-1.017030631E0,2.054712457E0,4.345738381E-1,2.333462879E0
5.001049542E0,-1.192844272E0,1.671761932E0,-7.151980895E-1,2.174666347E0
5.011020542E0,-9.246622380E-1,1.542982855E0,-2.380513174E0,2.983729095E0
5.020991542E0,-8.616820244E-1,8.877251574E-1,-2.933165685E0,3.183396425E0
5.030962542E0,-7.521079805E-1,5.873428720E-1,-2.788739458E0,2.947491447E0
5.040933542E0,-1.007388206E0,-1.281516713E-1,-1.993529239E0,2.237277962E0
5.050904542E0,-1.245587619E0,-7.886356097E-1,-8.887317556E-1,1.721417664E0
5.060874542E0,-1.785323339E0,-9.696545890E-1,3.008474314E-1,2.053805887E0
5.070845542E0,-1.513747946E0,-7.937215179E-1,1.398328294E0,2.208336186E0
5.080816542E0,-1.449561305E0,-1.004779691E-1,1.265396524E0,1.926798423E0
5.090787542E0,-1.354476662E0,-1.743715721E-1,1.087315478E0,1.745642410E0
5.100758542E0,-1.020436268E0,-3.774351391E-1,7.166417670E-1,1.302813449E0
5.110729542E0,-1.208568312E0,-4.372486469E-1,2.835344106E-1,1.316136584E0
5.120700542E0,8.014683478E-2,-1.653433250E0,8.313810951E-1,1.852419918E0
5.130671542E0,-2.330935510E-1,-1.309570777E0,-4.713826454E-1,1.411208638E0
5.140642542E0,3.966009964E-1,-9.962936264E-1,9.276490688E-2,1.076335760E0
5.150613542E0,7.447174653E-2,-1.747843856E-1,7.849121028E-1,8.075782511E-1
5.160583542E0,-1.301014984E-1,-1.007258910E-1,4.148886019E-1,4.463234892E-1
5.170554542E0,3.812585603E-1,-1.638310888E-1,-3.723296428E-1,5.575195767E-1
5.180525542E0,6.287972921E-1,4.917008427E-1,-8.015836841E-1,1.131234793E0
5.190496542E0,1.844892433E0,2.435043722E-2,3.524824387E-1,1.878420853E0
5.200467542E0,1.462846472E0,-2.102366388E-1,4.097535771E-1,1.533628781E0
5.210438542E0,1.966400790E0,-2.289389580E-2,7.675540584E-1,2.111017629E0
5.220409542E0,2.203398088E0,-6.144704443E-1,1.546411369E0,2.761145629E0
5.230380542E0,1.641087731E0,-4.567102271E-1,1.290888045E0,2.137321950E0
5.240351542E0,1.884845142E0,-7.206991500E-1,1.004356937E0,2.254058857E0
5.250322542E0,1.519403080E0,-3.724775773E-1,6.420008898E-1,1.691002782E0
5.260293542E0,2.630627823E0,4.900873035E-2,5.925761300E-1,2.696989260E0
5.270263542E0,1.660536740E0,4.118278769E-1,-6.843937880E-1,1.842655508E0
5.280234542E0,1.764884689E0,1.171021879E-1,-8.527164155E-1,1.963582484E0
5.290205542E0,1.432028868E0,3.465486842E-1,-7.771709740E-1,1.665772311E0
5.300176542E0,1.784945608E0,3.121430826E-1,-7.545773327E-1,1.962868075E0
5.310147542E0,1.489955625E0,2.742735904E-1,-3.289240068E-1,1.550285383E0
5.320118542E0,1.043399965E0,-7.856874436E-2,4.467974424E-1,1.137754143E0
5.330089542E0,9.290688459E-1,1.387047261E-2,1.036644092E0,1.392117913E0
5.340060542E0,7.811702503E-1,1.104491090E0,5.052023560E-1,1.444076503E0
5.350031542E0,9.548847415E-1,1.184075495E0,7.934864599E-1,1.715651599E0
5.360002542E0,7.736085579E-1,6.121537775E-1,5.087141937E-1,1.109951611E0
5.369973542E0,7.486913793E-1,7.738909784E-1,-2.902721572E-1,1.115214756E0
5.379943542E0,4.159514064E-1,-5.962785870E-2,-4.599542624E-1,6.229999820E-1
5.389914542E0,-4.859694019E-2,-4.546093225E-2,-1.515735707E0,1.517195799E0
5.399885542E0,3.262635968E-1,-4.250776675E-1,-2.250974543E0,2.313876693E0
5.409856542E0,5.214629511E-1,-7.308882156E-1,-1.431814713E0,1.690033895E0
5.419827542E0,4.806312595E-1,-7.939706093E-1,7.159278220E-1,1.172155443E0
5.429798542E0,2.820981152E-1,-1.236045840E-1,1.944678091E0,1.968916026E0
5.439769542E0,-1.038021111E-1,3.826695666E-1,1.814978662E0,1.857783200E0
5.449740542E0,2.738346107E-1,4.316037449E-1,7.297722745E-1,8.909740508E-1
5.459711292E0,1.812267747E-1,-3.543161255E-1,3.095042342E-1,5.041586374E-1
5.469682292E0,2.257919866E-1,-2.268854159E-1,-3.569871336E-1,4.794776603E-1
5.479653292E0,-4.681102511E-1,-2.449340165E-2,-9.110242653E-1,1.024544946E0
5.489623292E0,-5.080753854E-1,-8.519662178E-1,-2.087309808E-1,1.013684199E0
5.499594292E0,-7.311710747E-1,2.272216308E-1,1.113483523E0,1.351327630E0
5.509565292E0,-7.345808054E-1,9.553756884E-1,8.979709411E-1,1.502898359E0
5.519536292E0,-1.912130150E-1,1.456714789E0,9.529499710E-2,1.472298044E0
5.529507292E0,-2.780704799E-1,8.471451885E-1,2.146793532E-1,9.170961710E-1
5.539478292E0,-1.895679009E-1,6.413641280E-1,4.078678501E-1,7.833518474E-1
5.549449292E0,-7.781562299E-1,1.392438686E0,-4.565242857E-1,1.659164560E0
5.559420292E0,-3.906183446E-1,1.093238708E0,-9.330156434E-1,1.489386368E0
5.569391292E0,-7.169045263E-1,9.075428331E-1,-2.922413825E0,3.142942675E0
5.579362292E0,-6.508937739E-2,-8.233110604E-1,-2.185321421E0,2.336173676E0
5.589333292E0,-9.354426764E-1,-1.927712395E0,1.524120029E0,2.629461911E0
5.599303292E0,-6.062428272E-1,-8.401083568E-1,2.554178402E0,2.756290937E0
5.609274292E0,-8.941253735E-1,3.708950284E-1,1.871084450E0,2.106651449E0
5.619245292E0,-7.327586668E-1,6.430642059E-1,-7.752238512E-3,9.749497084E-1
5.629216292E0,7.380063236E-2,-5.325503683E-1,-1.238323331E-1,5.517162992E-1
5.639187292E0,-3.964453874E-1,-8.124419636E-1,-1.138461658E0,1.453728254E0
5.649158292E0,-3.349248581E-2,1.975987592E-1,-1.203203200E0,1.219780700E0
5.659129292E0,1.182913654E-2,7.597076797E-1,-5.774137151E-1,9.543072281E-1
5.669100292E0,3.520643628E-1,-1.413618471E0,-1.366605395E-1,1.463196022E0
5.679071292E0,5.059785739E-2,-1.697886999E0,-9.969496840E-1,1.969591094E0
5.689042292E0,3.221869180E-1,-8.296295616E-1,-5.358721715E-1,1.038868906E0
5.699012292E0,3.371266271E-1,-3.059204757E-2,6.288224351E-1,7.141483677E-1
5.708983292E0,-1.083591387E-2,-3.870453304E-1,1.359126222E0,1.413204016E0
5.718954292E0,1.742060959E-1,-5.877884299E-1,6.841949826E-1,9.186760998E-1
5.728925292E0,4.252754496E-1,-3.041294736E-1,5.483857977E-1,7.576812838E-1
5.738896292E0,6.901364116E-1,4.328410158E-1,7.943407381E-1,1.137812295E0
5.748867292E0,6.182774933E-1,-1.798156223E-1,8.342286891E-1,1.053820773E0
5.758838292E0,1.128436899E0,-8.908788532E-1,4.325448543E-1,1.501376042E0
5.768809292E0,3.998663009E-1,-1.325237514E0,8.327347255E-1,1.615423984E0
5.778780292E0,7.662966147E-1,-5.155390638E-1,8.911530876E-1,1.283411412E0
5.788751292E0,-7.089566253E-2,-1.222120696E0,7.061752510E-1,1.413254640E0
5.798722292E0,3.607433850E-1,-6.168292111E-1,-3.396478003E-1,7.911856253E-1
5.808692292E0,3.492436659E-1,8.028969687E-1,-6.223893285E-2,8.777746666E-1
5.818663292E0,2.914129490E-1,1.165717285E0,5.853957492E-1,1.336602588E0
5.828634292E0,4.564536805E-1,6.441000402E-1,1.431053991E0,1.634359308E0
5.838605292E0,2.704773588E-1,-5.009470448E-1,5.927310812E-1,8.218491820E-1
5.848576292E0,7.799226737E-1,-5.420518014E-1,-1.127594608E-1,9.564592142E-1
5.858547292E0,4.635180672E-1,5.913830057E-1,-1.297362083E0,1.499243553E0
5.868518292E0,4.718131466E-1,7.096227694E-1,-1.288240426E0,1.544582635E0
5.878489292E0,-6.504552327E-2,-6.985598373E-1,-1.097473846E0,1.302561173E0
5.888460292E0,-2.650974087E-2,-3.518696505E-1,-8.628005236E-1,9.321693842E-1
5.898431292E0,-2.886024848E-2,-9.059529752E-2,-6.405700761E-1,6.475881749E-1
5.908402292E0,1.791633654E-1,1.929078305E-1,1.449700177E-1,3.005482467E-1
5.918372292E0,4.643825781E-1,8.435538286E-1,-4.183314425E-1,1.049874010E0
5.928343292E0,3.365211479E-1,4.254249921E-1,-2.298674959E-1,5.891281462E-1
5.938314292E0,4.163131298E-1,2.185323760E-1,2.581136405E-2,4.708919705E-1
5.948285292E0,6.929641251E-1,5.090898773E-1,-2.023475754E-1,8.833551512E-1
5.958256292E0,6.602500498E-1,9.505072966E-1,-3.673232567E-1,1.214216053E0
5.968227292E0,5.218205814E-1,5.406958321E-1,-1.978826416E-1,7.770497036E-1
5.978198292E0,4.313466867E-1,4.921154103E-1,3.857191819E-1,7.596162376E-1
5.988169292E0,3.840396423E-1,9.307545251E-1,1.931627691E-1,1.025232797E0
5.998140292E0,7.943345254E-1,7.619734758E-1,2.789689046E-1,1.135515110E0
6.008111292E0,7.099771837E-1,3.324726820E-1,-6.006721848E-1,9.876298696E-1
6.018082292E0,7.134860247E-1,3.330728987E-1,-1.017595033E0,1.286662160E0
6.028052292E0,6.023517975E-1,-2.198044378E-1,-7.269515777E-1,9.693298072E-1
6.038023292E0,5.242290495E-1,-7.413263726E-1,-1.948748338E-1,9.286318366E-1
6.047994292E0,3.682896553E-1,-1.027586755E-1,-8.080963129E-1,8.939889633E-1
6.057965292E0,4.560763890E-1,-1.050347042E0,1.534835637E-1,1.155331894E0
6.067936292E0,7.964742409E-1,-2.215743607E0,1.471637176E0,2.776617893E0
6.077907292E0,-5.407234602E-2,-1.848961802E0,1.712968138E0,2.521079810E0
6.087878292E0,1.525864546E-1,-1.467728312E0,1.595457814E0,2.173245191E0
6.097849292E0,-3.391151190E-1,-6.955072984E-1,1.686819974E0,1.855826256E0
6.107820292E0,7.455126867E-2,-2.599452808E-1,1.157199646E0,1.188377238E0
6.117791292E0,2.103975834E-1,1.618281251E-1,4.627030385E-1,5.334318953E-1
6.127761292E0,-3.228905573E-3,3.345434734E-1,-2.797173482E-1,4.360866386E-1
6.137732292E0,6.313375419E-1,-2.259773433E-2,-5.593037188E-2,6.342128632E-1
6.147703292E0,3.968366392E-2,5.781668365E-2,3.511282235E-1,3.580622732E-1
6.157674292E0,5.514810213E-1,5.097128981E-1,3.209793949E-1,8.166800643E-1
6.167645292E0,5.134722923E-1,5.236181617E-1,-5.173902923E-1,8.975090466E-1
6.177616292E0,3.533090888E-1,6.268884686E-1,-1.243592842E0,1.436780992E0
6.187587292E0,3.368208908E-1,-2.969941163E-1,-1.326468353E0,1.400418548E0
6.197558292E0,1.481998734E-2,-6.785927653E-1,-5.853162271E-1,8.962716435E-1
6.207529292E0,-1.082733308E-1,-1.023081183E0,6.120222151E-1,1.197075358E0
6.217500292E0,-9.816656470E-1,1.348572582E-1,5.338683307E-1,1.125552894E0
6.227471292E0,-1.173987148E-1,2.769226715E-1,-2.083666992E-1,3.659034102E-1
6.237441292E0,3.051718859E-1,-7.386173576E-1,1.281610268E-1,8.093891090E-1
6.247412292E0,2.946792036E-1,-9.544983137E-1,-2.336833888E-1,1.025919485E0
6.257383292E0,2.655534916E-1,-1.043336815E0,-4.489562345E-1,1.166461344E0
6.267354292E0,-2.019333733E-1,-8.796647707E-1,4.953497976E-1,1.029542917E0
6.277325292E0,-4.658549801E-3,6.317156374E-2,5.602667552E-1,5.638361336E-1
6.287296292E0,-1.934359802E-1,-4.678658375E-1,4.773333567E-1,6.958182621E-1
6.297267292E0,-1.135897654E-1,-4.568546534E-2,2.182800686E-1,2.502718221E-1
6.307238292E0,-2.726214597E-1,-4.191681790E-1,1.104984595E0,1.212854227E0
6.317209292E0,5.220993474E-2,-3.245546749E-1,1.301958579E0,1.342817097E0
6.327180292E0,3.941456775E-1,3.147088408E-1,6.057522458E-1,7.882437775E-1
6.337151292E0,9.356568307E-2,-3.466568577E-1,1.126507611E0,1.182347204E0
6.347121292E0,2.912930810E-1,-1.873558992E-1,-3.767372739E-1,5.117468765E-1
6.357092292E0,-1.114568473E-1,5.906059107E-1,-1.093042241E0,1.247388998E0
6.367063292E0,-1.356773302E-2,5.670115185E-1,-7.314393157E-1,9.255752903E-1
6.377034292E0,-5.542854922E-1,-6.287715644E-2,2.551982188E-1,6.134428046E-1
6.387005292E0,-5.179489207E-1,-3.896876872E-1,-3.740054548E-1,7.483365941E-1
6.396976292E0,-9.493996878E-1,-1.668570229E-1,-5.604573745E-1,1.115039686E0
6.406947292E0,-5.160488679E-1,2.588825494E-1,4.200347364E-2,5.788703657E-1
6.416918292E0,-1.109305906E0,1.538797125E0,1.829067528E-2,1.897047900E0
6.426889292E0,-1.435544360E0,1.060158085E0,-1.481959265E-1,1.790721868E0
6.436860292E0,-1.196177404E0,8.063792780E-1,4.365092665E-1,1.507192178E0
6.446830292E0,-4.094142193E-1,1.129572136E0,-9.786198324E-1,1.549596719E0
6.456801458E0,4.960368454E-2,2.755406821E-1,-4.943347210E-1,5.681109129E-1
6.466772458E0,2.011000720E-1,4.475824311E-1,1.688038534E-1,5.189084818E-1
6.476743458E0,5.585021386E-1,1.280198166E0,6.838728011E-2,1.398395081E0
6.486714458E0,4.329748439E-1,9.289012501E-1,4.699395525E-1,1.127460833E0
6.496685458E0,1.108339727E0,5.608058685E-1,-1.871296120E-1,1.256159888E0
6.506656458E0,4.142521325E-1,1.495089188E-1,-2.681345987E-1,5.156102298E-1
6.516627458E0,8.263899849E-1,-2.120016208E-1,-5.965294325E-1,1.041015109E0
6.526598458E0,1.082091576E-1,-4.205960691E-1,-1.185370361E0,1.262423530E0
6.536569458E0,7.021753170E-1,-5.958616805E-1,-1.096117292E0,1.431633485E0
6.546540458E0,5.481618494E-1,-1.567450528E0,4.295060563E-1,1.715184545E0
6.556510458E0,7.526682899E-1,-1.941784597E0,6.529544789E-1,2.182518391E0
6.566481458E0,3.803995313E-1,-1.923326399E0,1.435003200E0,2.429634216E0
6.576452458E0,-2.008964427E-2,-1.839060420E0,2.296580486E0,2.942248928E0
6.586423458E0,-4.530276507E-3,-9.350004807E-1,2.265063994E0,2.450461450E0
6.596394458E0,4.106455699E-2,-5.266683617E-1,1.452959415E0,1.546013235E0
6.606365458E0,1.310261625E-1,-2.237086236E-1,3.170266771E-1,4.095354900E-1
6.616336458E0,-7.222297318E-1,3.463639122E-1,-1.476318457E0,1.679613030E0
6.626307458E0,-2.624331249E-1,-9.504596418E-1,-1.573823701E0,1.857192967E0
6.636278458E0,-8.266159797E-1,-1.372240649E0,-1.262388132E0,2.039598532E0
6.646249458E0,-3.410348330E-1,-6.427490410E-1,1.850029796E-1,7.507710633E-1
6.656220458E0,-2.577891201E-2,-6.921933889E-2,1.443341330E0,1.445230107E0
6.666190458E0,-1.675057715E-1,1.622631580E-1,1.988617578E0,2.002245586E0
6.676161458E0,-9.252568267E-2,5.934108201E-1,2.254019773E0,2.332659971E0
6.686132458E0,-3.629866692E-1,1.897395167E-1,1.182719234E0,1.251633010E0
6.696103458E0,1.901569348E-1,6.879564965E-1,-5.827463758E-1,9.214321133E-1
6.706074458E0,3.384885898E-1,3.898505321E-1,-1.630927609E0,1.710696592E0
6.716045458E0,2.610779596E-1,-6.184693551E-1,-1.858953232E0,1.976454696E0
6.726016458E0,2.835708095E-1,-1.007347203E0,-1.576887642E0,1.892547338E0
6.735987458E0,2.440572265E-1,-4.446336803E-1,-6.356654316E-1,8.132241883E-1
6.745958458E0,1.316843397E-1,1.750489721E-1,6.638647985E-1,6.990703675E-1
6.755929458E0,5.133314475E-1,-2.043172100E-1,1.287682017E0,1.401206507E0
6.765899458E0,5.411918952E-1,-5.197823882E-1,7.237186521E-1,1.042511912E0
6.775870458E0,4.129158975E-1,5.484717518E-2,-1.264711815E-1,4.353190908E-1
6.785841458E0,6.248817772E-1,4.830788308E-1,-1.024345059E0,1.293493406E0
6.795812458E0,9.389890127E-2,-7.740304345E-1,-4.261497545E-1,8.885627330E-1
6.805783458E0,-4.944689146E-1,-1.068312320E0,-1.422574943E-1,1.185760480E0
6.815754458E0,-3.791819948E-1,-5.270183176E-1,1.544319820E-1,6.673653642E-1
6.825725458E0,-8.041010566E-1,-5.017615619E-1,7.037287760E-1,1.180498778E0
6.835696458E0,-6.810127086E-1,-6.620927998E-1,1.060032370E0,1.423310862E0
6.845667458E0,-2.464246910E-1,-1.864802787E-1,3.676395911E-1,4.802696030E-1
6.855638458E0,-2.458505675E-1,3.221140471E-1,-6.167929584E-1,7.379928959E-1
6.865609458E0,3.585360610E-1,9.410196045E-1,-6.953619951E-1,1.223762357E0
6.875579458E0,6.181052198E-1,1.025254886E0,-3.856197792E-1,1.257737754E0
6.885550458E0,7.544348799E-1,3.045630446E-1,3.213565403E-1,8.747574877E-1
6.895521458E0,8.297095223E-1,6.446324292E-1,2.281109923E-1,1.075176025E0
6.905492458E0,7.837349852E-1,6.620506999E-1,5.427759790E-1,1.160671107E0
6.915463458E0,3.411920500E-1,6.414065203E-1,9.752220154E-1,1.216088944E0
6.925434458E0,6.999590030E-1,4.610941771E-1,3.004813957E-1,8.904153610E-1
6.935405458E0,5.463006806E-1,6.843841401E-1,1.913401920E-1,8.963465590E-1
6.945376458E0,9.552064846E-1,1.026494495E0,-5.257816315E-3,1.402190437E0
6.955347458E0,1.176952198E0,7.252398053E-1,2.825982714E-1,1.411046078E0
6.965318458E0,8.814977266E-1,5.042434126E-1,-2.042812496E-1,1.035871850E0
6.975289458E0,1.035396443E0,-8.780547398E-1,-1.340766549E-3,1.357581569E0
6.985259458E0,5.319133142E-1,-8.405346188E-1,2.467507464E-1,1.024849330E0
6.995230458E0,8.072932709E-1,-9.175348476E-1,2.769574624E-1,1.253115341E0
7.005201458E0,4.918049231E-2,-4.720182377E-1,-8.789031708E-1,9.988446933E-1
7.015172458E0,-1.294231483E-1,-7.496305883E-1,-4.854048532E-1,9.023936180E-1
7.025143458E0,-1.123175575E-1,-1.051106595E0,2.507549196E-1,1.086424566E0
7.035114458E0,2.311617040E-1,-2.060102713E-1,1.768619013E-1,3.565895363E-1
7.045085458E0,4.907345903E-1,-5.466269553E-1,5.619560158E-1,9.248870364E-1
7.055056458E0,3.126164878E-1,-2.878765529E-1,3.212799418E-1,5.327502034E-1
7.065027458E0,1.090877968E0,-5.676392171E-1,3.727430409E-1,1.284977196E0
7.074998458E0,2.586772390E-1,-1.742762625E-1,-1.290597439E-2,3.121741403E-1
7.084968458E0,1.464818153E-1,-6.572989601E-1,7.477653265E-2,6.775620820E-1
7.094939458E0,-2.181278218E-1,-5.959099200E-1,4.745600224E-3,6.345950679E-1
7.104910458E0,-3.567942486E-1,-2.296315607E-1,-4.298598129E-1,6.039968942E-1
7.114881458E0,-7.684250012E-2,-4.626346260E-2,3.054000735E-1,3.182990460E-1
7.124852458E0,-5.025133677E-2,-2.392958388E-1,6.072111261E-1,6.545938030E-1
7.134823458E0,-5.126177949E-1,-5.056596082E-1,7.062600356E-1,1.008598969E0
7.144794458E0,-4.617565935E-1,-5.104742056E-1,3.751275355E-1,7.839156422E-1
7.154765458E0,1.986065999E-1,-6.855088520E-1,-4.564804316E-2,7.151578228E-1
7.164736458E0,-3.826072937E-1,-9.451603103E-1,-2.498597109E-1,1.049831524E0
7.174707458E0,-9.592291497E-2,-8.247763726E-1,2.288687915E-1,8.613002927E-1
7.184677458E0,-5.959553090E-1,-5.235591048E-1,-2.301206803E-1,8.259736038E-1
7.194648458E0,-6.091987409E-1,-4.594739136E-1,6.124706966E-1,9.784476160E-1
7.204619458E0,-6.295322871E-1,-3.708716395E-1,5.002392393E-1,8.854919368E-1
7.214590458E0,-7.897395641E-1,-2.209800205E-1,5.301682127E-1,9.765239793E-1
7.224561458E0,-1.256410523E0,5.476794541E-2,5.627231705E-1,1.377760609E0
7.234532458E0,-6.102570138E-1,1.372432145E-1,2.227660525E-1,6.639834614E-1
7.244503458E0,-5.499060007E-1,7.590296951E-1,-4.711247832E-1,1.049038250E0
7.254474458E0,-4.572420314E-2,7.900149679E-1,-1.375753949E0,1.587108465E0
7.264445458E0,-4.971522018E-2,1.890960306E-2,-1.290458275E0,1.291554000E0
7.274416458E0,3.865914403E-1,-8.987228930E-1,-1.063900888E0,1.445351473E0
7.284387458E0,3.499771991E-1,-4.371995303E-1,-2.783508539E-1,6.253852150E-1
7.294357458E0,6.060929192E-1,-3.852008262E-1,5.385940504E-1,8.976702370E-1
7.304328458E0,2.656942633E-1,-9.061547041E-2,4.067282277E-1,4.941988024E-1
7.314299458E0,2.863313531E-1,8.580613554E-2,-1.760204870E-1,3.468883805E-1
7.324270458E0,-8.116571210E-2,-3.238188028E-3,-5.003544295E-1,5.069052316E-1
7.334241458E0,-2.141308844E-2,1.426106662E-1,-1.141906838E0,1.150976780E0
7.344212458E0,-5.659401624E-1,1.583250582E-1,-2.123562545E-1,6.248602006E-1
7.354183458E0,-7.336144068E-1,1.098378995E-1,6.438152808E-1,9.822181926E-1
7.364154458E0,-9.789672301E-1,2.897856688E-1,3.787340981E-1,1.088940810E0
7.374125458E0,-9.558043624E-1,7.193449348E-1,-3.001597989E-1,1.233334918E0
7.384096458E0,-1.199594079E0,1.470171279E-1,2.306106770E-1,1.230374445E0
7.394066458E0,-1.093994972E0,7.920813739E-2,1.203910713E0,1.628649727E0
7.404037458E0,-1.242648809E0,9.169767308E-1,1.246376116E0,1.984559349E0
7.414008458E0,-1.313360796E0,1.416183060E0,2.776743311E-1,1.951305735E0
7.423979458E0,-8.044656305E-1,8.106810746E-1,3.877639532E-2,1.142747726E0
7.433950458E0,-9.131071166E-1,8.253432602E-1,-7.428963500E-1,1.437654719E0
7.443921458E0,-4.558851119E-1,5.877360973E-1,-1.806013711E0,1.953189822E0
7.453892708E0,-6.614724103E-1,-6.092713925E-1,-1.292856218E0,1.574876052E0
7.463863708E0,-7.566984102E-2,-1.063301841E0,-6.972044528E-1,1.273746748E0
7.473834708E0,-4.576443198E-1,-1.976274691E0,1.083078586E0,2.299599791E0
7.483805708E0,-4.242415157E-1,-1.834659513E0,2.170754253E0,2.873696299E0
7.493775708E0,-8.842280108E-1,-2.531306434E-1,2.181429514E0,2.367397099E0
7.503746708E0,-5.667410848E-1,2.648613274E-2,9.894219786E-1,1.140549352E0
7.513717708E0,-2.818686119E-1,1.350852996E-2,7.204763710E-1,7.737690844E-1
7.523688708E0,-3.785638710E-1,-1.062169235E0,2.009038979E-1,1.145371758E0
7.533659708E0,-3.131121855E-1,-7.950462046E-1,-8.930148411E-1,1.235966510E0
7.543630708E0,-9.344457261E-1,1.745393872E-4,-2.158124852E0,2.351742273E0
7.553601708E0,-2.922309013E-1,-2.977557161E-1,-1.927920556E0,1.972545319E0
7.563572708E0,-3.888218607E-1,-1.128392753E0,-1.521102281E0,1.933443765E0
7.573543708E0,-1.980329150E-1,-9.645359364E-1,-6.147078413E-1,1.160780917E0
7.583514708E0,-1.193370668E-1,8.107573807E-2,-1.643763417E-1,2.187102936E-1
7.593485708E0,1.612546594E-1,-8.277964595E-1,1.086399804E0,1.375323445E0
7.603455708E0,3.112675352E-1,-2.698028094E-1,1.444360499E0,1.501951493E0
7.613426708E0,6.387345620E-1,2.822643954E-1,1.169171820E0,1.361843520E0
7.623397708E0,3.206165021E-1,5.425189939E-1,1.321315202E0,1.463897422E0
7.633368708E0,3.849564126E-1,2.893263701E-1,1.494538965E0,1.570206326E0
7.643339708E0,6.624969886E-1,-3.499815845E-1,-3.271751046E-2,7.499732028E-1
7.653310708E0,6.757679754E-1,-6.026921055E-1,-8.671058285E-1,1.253703573E0
7.663281708E0,1.305812771E0,-5.222338334E-1,-3.340204400E-1,1.445491205E0
7.673252708E0,1.158956588E0,-5.933374375E-2,-1.069765645E-1,1.165394719E0
7.683223708E0,9.750845327E-1,1.271161294E-1,4.163919210E-2,9.842165304E-1
7.693194708E0,2.101172825E-1,3.231715161E-1,6.932838947E-1,7.932412368E-1
7.703164708E0,3.291653506E-2,-3.803350657E-2,1.156277540E0,1.157371070E0
7.713135708E0,-6.214665648E-1,-1.258420211E-1,7.292641515E-1,9.663762766E-1
7.723106708E0,-6.358759314E-1,-4.216310263E-1,4.007786858E-1,8.618204438E-1
7.733077708E0,-6.157093962E-1,-4.723798880E-1,-2.448474777E-1,8.137512559E-1
7.743048708E0,9.051065907E-2,-6.298237708E-1,2.535773706E-1,6.849610533E-1
7.753019708E0,-9.662567720E-2,9.108529419E-2,3.561995137E-1,3.801462164E-1
7.762990708E0,4.592534736E-2,-9.722399354E-2,4.508203268E-2,1.165934480E-1
7.772961708E0,1.416667063E-1,-6.085583246E-1,1.043043870E-1,6.334761994E-1
7.782932708E0,1.865926914E-2,1.051773763E-1,-7.858248532E-2,1.326109189E-1
7.792903708E0,6.003576777E-1,1.029694676E0,-5.766746271E-1,1.324105016E0
7.802873708E0,8.721597963E-1,8.904777342E-1,-6.167689848E-1,1.390689500E0
7.812844708E0,1.370640120E0,6.561505669E-1,-1.376183719E0,2.050138906E0
7.822815708E0,1.188224753E0,4.779791817E-1,-1.590027505E0,2.041697732E0
7.832786708E0,1.626387392E0,6.148733175E-1,-7.889133525E-1,1.909342668E0
7.842757708E0,1.118093540E0,5.243782997E-1,-2.685392261E-2,1.235243660E0
7.852728708E0,1.367448564E0,-3.374106556E-1,-3.179072678E-1,1.443892848E0
7.862699708E0,9.372325822E-1,-2.343648818E-1,-8.037114859E-2,9.694283535E-1
7.872670708E0,7.525988542E-1,-8.785850823E-2,8.429112196E-1,1.133412316E0
7.882641708E0,4.916776731E-1,-8.383123845E-2,1.150456637E0,1.253923875E0
7.892612708E0,6.528856279E-1,2.195667484E-1,7.164546561E-1,9.938694454E-1
7.902582708E0,5.746103407E-1,7.321126226E-1,2.351311594E-1,9.599232250E-1
7.912553708E0,6.758743948E-1,4.227215320E-1,9.821030188E-1,1.264921354E0
7.922524708E0,8.230363143E-1,5.058952510E-2,4.825034648E-1,9.553835190E-1
7.932495708E0,3.168945301E-1,2.885402119E-1,-3.893438709E-1,5.790218017E-1
7.942466708E0,3.449417232E-1,-5.801379329E-1,2.021668965E-1,7.045681426E-1
7.952437708E0,-1.498512002E-1,-5.036876348E-1,-7.253623044E-1,8.957159641E-1
7.962408708E0,2.720908979E-1,-1.079063303E0,4.080590540E-1,1.185294588E0
7.972379708E0,-7.041882209E-2,-8.767870635E-1,1.649715298E0,1.869565439E0
7.982350708E0,-2.266184905E-1,-7.854506314E-1,1.662671558E0,1.852772340E0
7.992321708E0,-2.066337307E-1,-6.526708889E-1,1.370149977E0,1.531661760E0
8.002291708E0,-6.269329074E-1,-1.415055424E-1,6.683437657E-1,9.272281694E-1
8.012262708E0,-2.669574080E-1,-7.476305482E-1,1.144405353E-1,8.020687816E-1
8.022233708E0,-4.299834084E-1,-7.546156320E-1,-7.589101195E-1,1.153375504E0
8.032204708E0,-4.070949943E-1,-1.108628579E0,-1.036075743E0,1.571062254E0
8.042175708E0,-2.709645049E-1,-9.278718477E-1,-1.162031200E0,1.511517264E0
8.052146708E0,-6.345946603E-1,-6.143666562E-1,-6.913525593E-1,1.121661773E0
8.062117708E0,-7.924088180E-1,-7.773422974E-1,-4.351053500E-1,1.192262323E0
8.072088708E0,-7.296443667E-1,-5.444552994E-1,1.141961217E-3,9.103921017E-1
8.082059708E0,-5.516623581E-1,-6.121628407E-1,1.330745591E0,1.565234337E0
8.092030708E0,-6.736238015E-1,-9.242284477E-2,1.984243276E0,2.097506230E0
8.102000708E0,-8.560549564E-1,8.916343135E-1,3.082143384E-1,1.273906557E0
8.111971708E0,-6.586685973E-1,6.976780772E-2,-2.493784851E-1,7.077439486E-1
8.121942708E0,-7.957110330E-2,2.774997917E-1,-1.271607437E0,1.303964404E0
8.131913708E0,5.419276942E-1,-1.862349880E-1,-1.429353036E0,1.539941297E0
8.141884708E0,4.000197903E-1,5.152598593E-1,-2.033588514E0,2.135647630E0
8.151855708E0,3.572661920E-1,5.412925404E-1,-8.144832265E-1,1.041162654E0
8.161826708E0,7.725180522E-2,-4.448085120E-1,-5.082107484E-2,4.543184296E-1
8.171797708E0,-1.161534771E-2,-1.028949449E0,1.188113875E0,1.571778122E0
8.181768708E0,6.459499530E-2,-9.764557779E-2,1.950577347E0,1.954087808E0
8.191739708E0,2.006920825E-1,1.171244073E0,1.569534184E0,1.968635960E0
8.201709708E0,5.077860944E-1,1.240413418E0,9.363427091E-1,1.634995362E0
8.211680708E0,9.628170012E-1,8.909402490E-2,-8.215706366E-1,1.268831208E0
8.221651708E0,8.487851132E-1,-3.050711676E-1,-1.593125945E0,1.830725228E0
8.231622708E0,1.220263840E0,-1.856771636E-1,-6.789991468E-1,1.408744011E0
8.241593708E0,5.232511027E-1,-3.281024730E-1,1.540149001E0,1.659367921E0
8.251564708E0,6.406180233E-1,8.189092764E-1,1.151085797E0,1.551129384E0
8.261535708E0,1.253053198E-1,9.402699915E-1,6.278798640E-2,9.506584093E-1
8.271506708E0,2.551561189E-1,5.758609870E-1,9.240039146E-1,1.118259252E0
8.281477708E0,-5.742813617E-2,3.321352977E-1,8.385766786E-1,9.037824366E-1
8.291448708E0,-4.089585751E-1,1.094266064E0,-2.193992257E-2,1.168394922E0
8.301418708E0,1.642815437E-1,1.901974121E0,-1.087889090E0,2.197270274E0
8.311389708E0,3.231035422E-1,-2.325817734E-2,-6.375534976E-1,7.151302707E-1
8.321360708E0,6.166678280E-1,-7.737357348E-1,-1.024798218E0,1.424485024E0
8.331331708E0,-1.576910008E-1,-5.677193239E-1,-3.867868835E-1,7.048232230E-1
8.341302708E0,4.150744703E-1,1.017532468E-2,-7.576833737E-1,8.639875276E-1
8.351273708E0,3.781094693E-2,-6.465126014E-1,7.202892601E-2,6.516106028E-1
8.361244708E0,3.000791073E-1,-1.352175052E0,4.098950797E-1,1.444451044E0
8.371215708E0,-5.654560860E-1,-1.626758252E0,5.118161416E-1,1.796674361E0
8.381186708E0,-5.051223222E-1,2.151366055E-2,-2.111143059E-1,5.478874411E-1
8.391156708E0,-8.014000815E-1,5.121810079E-2,1.518895542E0,1.718112060E0
8.401127708E0,-1.223747757E0,-1.373087618E0,2.165908080E0,2.841493620E0
8.411098708E0,-5.543618714E-1,-6.375423878E-1,1.188346594E0,1.458062073E0
8.421069708E0,-4.066481940E-1,-3.486183062E-1,4.538842678E-1,7.020743591E-1
8.431040708E0,-1.686220781E-1,4.289742520E-1,-6.728186399E-1,8.155594621E-1
8.441011708E0,5.138223213E-1,-1.415298083E-1,-1.334306545E0,1.436808276E0
8.450982708E0,4.072383973E-1,-6.242136598E-1,-1.441004782E0,1.622338001E0
8.460953667E0,1.985125329E-1,-5.244320941E-1,-1.517297498E0,1.617599439E0
8.470924667E0,6.247353045E-1,-5.459653428E-1,2.252452719E-1,8.597137830E-1
8.480895667E0,8.435587256E-1,-9.497369260E-2,6.162357187E-1,1.048979403E0
8.490865667E0,5.734941072E-1,-5.660707015E-1,1.303233272E0,1.532236434E0
8.500836667E0,1.044817769E-1,-7.934887987E-1,1.947239757E0,2.105298930E0
8.510807667E0,8.571491897E-2,-1.391388819E-1,1.024628064E0,1.037578597E0
8.520778667E0,1.745999790E-1,-1.525436237E-1,5.545990491E-1,6.011113167E-1
8.530749667E0,4.392832587E-1,-4.606684998E-1,-1.164309275E-1,6.471023172E-1
8.540720667E0,6.039717686E-1,-3.335248885E-1,4.359800935E-2,6.913186927E-1
8.550691667E0,1.732686411E-1,-1.384094417E-1,-7.649806988E-1,7.964764059E-1
8.560662667E0,-2.198327237E-1,-5.211099985E-1,-4.664119273E-1,7.330908149E-1
8.570633667E0,-1.014255177E0,-8.227465117E-1,2.103939289E-1,1.322834453E0
8.580604667E0,-8.810286337E-1,-3.613126114E-1,-1.032431173E-1,9.578190841E-1
8.590574667E0,-1.230339543E0,9.049004763E-2,-4.442843091E-1,1.311225528E0
8.600545667E0,-1.500542886E0,-4.211264116E-1,3.382088006E-1,1.594792024E0
8.610516667E0,-1.659799114E0,1.964041731E-1,5.260821784E-1,1.752218638E0
8.620487667E0,-1.585368444E0,4.960307059E-1,1.752995253E-3,1.661157017E0
8.630458667E0,-1.810612692E0,-6.080730057E-1,-3.023565978E-1,1.933776258E0
8.640429667E0,-1.426884926E0,-8.633118626E-1,-2.059979922E-1,1.680399696E0
8.650400667E0,-1.238040033E0,-1.294365092E0,-3.976071560E-1,1.834724929E0
8.660371667E0,-1.008831299E0,-7.523413575E-1,-2.344955671E-1,1.280135258E0
8.670342667E0,-8.403657074E-1,-2.131959146E-1,4.254229456E-1,9.657389413E-1
8.680312667E0,-6.291275136E-1,5.735738486E-1,1.057235062E-2,8.514106899E-1
8.690283667E0,-4.288475867E-1,9.077287745E-1,-1.103888242E0,1.492129696E0
8.700254667E0,-3.186670404E-1,4.432481825E-1,-8.968225479E-1,1.049908718E0
8.710225667E0,9.469156444E-2,8.128214478E-3,1.032259265E0,1.036625174E0
8.720196667E0,-1.298491180E-2,3.224625412E-1,1.295692703E0,1.335279101E0
8.730167667E0,-2.068789483E-1,1.435573596E0,3.763262147E-1,1.498429801E0
8.740138667E0,2.836818335E-1,1.037263312E0,1.759029579E-1,1.089647839E0
8.750109667E0,4.570019301E-1,4.275405148E-1,-8.108070821E-1,1.024231312E0
8.760080667E0,8.906804133E-1,-4.529253244E-3,-8.152714312E-1,1.207476550E0
8.770051667E0,7.737419475E-1,-1.341210938E-1,-4.218029344E-1,8.913937315E-1
8.780021667E0,7.346438822E-1,4.602553940E-1,-9.383886498E-1,1.277540574E0
8.789992667E0,5.682318324E-1,1.467534184E-2,1.620052958E-1,5.910571012E-1
8.799963667E0,1.897862944E-1,-5.513137910E-1,6.713398790E-1,8.891923115E-1
8.809934667E0,6.614057520E-1,-1.651633769E-2,4.315122360E-1,7.898944031E-1
8.819905667E0,4.524641253E-2,1.885276812E-1,5.557766783E-1,5.886235135E-1
8.829876667E0,7.788688593E-1,-3.310483003E-1,3.917692959E-1,9.325839685E-1
8.839847667E0,2.794347084E-1,-5.999444988E-1,-4.096489120E-1,7.783504282E-1
8.849818667E0,7.066555267E-1,-1.154019345E0,-1.399360912E0,1.946621084E0
8.859789667E0,1.210163506E0,-1.234846284E0,-5.508480603E-1,1.814600408E0
8.869760667E0,5.871635818E-1,-7.019906911E-1,1.706164902E-1,9.309468239E-1
8.879730667E0,5.506857269E-1,-3.571467626E-1,5.603679121E-1,8.630299976E-1
8.889701667E0,5.206010715E-1,-8.132523876E-1,9.937793237E-1,1.385641464E0
8.899672667E0,4.808414669E-1,-3.095355168E-1,2.814107019E-1,6.373482059E-1
8.909643667E0,4.405838256E-1,-2.312939242E-1,4.580556715E-1,6.763327472E-1
8.919614667E0,3.263929664E-1,1.157482651E-1,9.133526266E-2,3.581510291E-1
8.929585667E0,2.908419684E-1,-3.598508075E-1,6.833559072E-1,8.252617464E-1
8.939556667E0,5.009089648E-1,1.377864209E-1,2.758108234E-1,5.881891695E-1
8.949527667E0,2.061552823E-1,-3.728357193E-1,2.218819535E-1,4.803520326E-1
8.959498667E0,-6.709563017E-2,-6.549817085E-1,-1.192478821E0,1.362170548E0
8.969468667E0,-1.606812669E-1,-7.455562484E-1,-1.951056819E0,2.094825840E0
8.979439667E0,-2.270425598E-1,-1.157673562E0,-4.814878035E-1,1.274200497E0
8.989410667E0,-7.620687123E-1,-1.279942642E0,1.739478244E0,2.290149876E0
8.999381667E0,-8.504086657E-1,-4.383704352E-1,3.783034506E0,3.902142183E0
9.009352667E0,-2.606204881E-1,9.613363400E-1,3.735728193E0,3.866232757E0
9.019323667E0,-5.693615144E-1,1.452415916E0,1.708383921E0,2.313495223E0
9.029294667E0,2.673877631E-1,6.133565497E-1,7.842262244E-1,1.030879840E0
9.039265667E0,4.543470749E-1,-1.115172198E-1,-2.088088072E0,2.139854937E0
9.049236667E0,6.118577622E-1,-6.411550900E-1,-3.394966498E0,3.508738704E0
9.059207667E0,-1.041871503E-2,5.972053707E-3,-3.534776933E0,3.534797332E0
9.069177667E0,-1.818224598E-1,-8.438119832E-1,-1.558450202E0,1.781528866E0
9.079148667E0,-4.092776138E-1,-4.014286038E-1,3.200058335E-1,6.565491776E-1
9.089119667E0,-3.561547825E-1,9.556125006E-1,8.884803253E-1,1.352567473E0
9.099090667E0,3.941381492E-2,6.844195157E-1,1.637533209E0,1.775246048E0
9.109061667E0,1.921175062E-1,7.202629477E-1,1.133996724E0,1.357069055E0
9.119032667E0,3.186209936E-1,1.861329541E-1,-2.296575809E-1,4.346348106E-1
9.129003667E0,2.059115265E-1,6.559108311E-1,-1.368917384E0,1.531846396E0
9.138974667E0,6.825288185E-1,5.295431453E-1,-1.740886254E0,1.943436770E0
9.148945667E0,6.481278216E-1,8.156655335E-1,-2.031350200E0,2.282928726E0
9.158915667E0,7.413005718E-1,-4.853229922E-1,-9.453643781E-1,1.295676947E0
9.168886667E0,3.426238869E-1,-9.431845361E-1,-7.450089490E-1,1.249810598E0
9.178857667E0,-1.742132588E-1,-1.110559330E0,-7.129977822E-2,1.126399549E0
9.188828667E0,1.213925093E-1,-2.841790661E-1,7.963866788E-1,8.542397937E-1
9.198799667E0,4.706868267E-1,1.914301221E0,1.171354585E0,2.293069301E0
9.208770667E0,5.841687110E-1,1.773029568E0,8.834563977E-1,2.065280159E0
9.218741667E0,7.046766827E-1,7.461193353E-1,1.144194853E-1,1.032644715E0
9.228712667E0,1.851686897E0,-1.405261045E0,-7.805290300E-1,2.452086568E0
9.238683667E0,1.069298891E0,-2.098598150E0,-3.488840622E-1,2.381015414E0
9.248654667E0,1.427877491E0,-1.329277647E0,3.821406859E-1,1.987924721E0
9.258624667E0,1.060332990E0,-7.960218126E-1,2.131457455E0,2.510192753E0
9.268595667E0,8.931828754E-1,-5.586467841E-1,2.978358230E0,3.159189710E0
9.278566667E0,4.982966481E-1,-1.366175625E-1,2.584479259E0,2.635620790E0
9.288537667E0,4.327598125E-1,7.856386194E-1,9.631124318E-1,1.316090670E0
9.298508667E0,6.304720078E-1,1.222717112E0,5.757343948E-2,1.376897524E0
9.308479667E0,2.572152890E-1,2.766484371E-1,-1.523174534E0,1.569316643E0
9.318450667E0,-1.754994269E-1,-9.607612664E-1,-1.967350670E0,2.196435958E0
9.328421667E0,-2.161703201E-1,-1.543146577E0,-1.576328648E0,2.216493395E0
9.338392667E0,-2.741398354E-1,-1.195786591E0,-5.876755786E-1,1.360301734E0
9.348363667E0,-6.665532021E-1,-9.553996620E-1,7.940629953E-1,1.409828970E0
9.358333667E0,-4.774748594E-1,-4.634976751E-1,6.450747710E-1,9.267868128E-1
9.368304667E0,-4.402537503E-1,2.063578883E-1,-2.893266624E-1,5.657887064E-1
9.378275667E0,-3.785482297E-1,-1.336094624E-1,-2.288243526E-1,4.620723266E-1
9.388246667E0,-7.677993491E-1,3.635550186E-1,-8.585618770E-1,1.207814799E0
9.398217667E0,1.070398606E-2,-3.233036631E-1,7.244822985E-1,7.934194570E-1
9.408188667E0,2.411266751E-1,7.852810621E-4,1.862972023E0,1.878512031E0
9.418159667E0,7.076241910E-2,8.039915675E-1,2.652899283E-1,8.495813714E-1
9.428130667E0,3.537664872E-1,8.411827826E-1,-2.638053203E-1,9.499118108E-1
9.438101667E0,2.249187780E-1,-3.717957920E-1,4.309643519E-1,6.120055884E-1
9.448071667E0,2.914347298E-2,-8.757313487E-1,-4.769924641E-2,8.775135071E-1
9.458042667E0,-2.998212451E-1,-1.697718599E-1,-3.095574439E-1,4.631857883E-1
9.468013667E0,2.654078959E-1,7.003283277E-1,-1.001873624E-1,7.556048077E-1
9.477984667E0,1.060703192E-1,3.337502986E-2,6.787389457E-1,6.877872939E-1
9.487955667E0,2.057241963E-1,-9.077618113E-1,3.894245625E-2,9.315956558E-1
9.497926667E0,5.060853586E-1,-8.374274084E-1,-6.975699037E-1,1.201670015E0
9.507897667E0,1.489159381E-1,-1.270746726E0,8.723344088E-2,1.282412910E0
9.517868667E0,-1.112424738E-1,-1.547725531E0,4.160685700E-1,1.606531127E0
9.527839667E0,1.775311882E-1,-1.139693374E0,-9.778532624E-2,1.157575173E0
9.537810667E0,-3.466919410E-1,7.719757229E-2,-5.710613000E-1,6.725070821E-1
9.547780667E0,3.414043039E-1,-3.031512344E-1,-1.481210822E-1,4.799973173E-1
9.557751667E0,-2.684757107E-1,-7.722590205E-1,3.442542368E-1,8.871156529E-1
9.567722667E0,3.065242007E-2,-1.112730109E0,3.242538357E-1,1.159417274E0
9.577693667E0,-3.297933416E-1,-1.228055620E-1,1.109217979E0,1.163705022E0
9.587664667E0,2.226215532E-1,1.066458168E0,1.053087047E0,1.515218040E0
9.597635667E0,-3.857927837E-1,8.365950572E-1,-5.064881587E-1,1.051312331E0
9.607606667E0,-1.098414809E-1,1.345502209E0,-1.833293896E0,2.276709875E0
9.617577667E0,-2.107512669E-1,1.320936302E0,-2.524151196E0,2.856681304E0
9.627548667E0,-1.398482222E-1,1.484110164E0,-1.866197348E0,2.388479232E0
9.637519667E0,-9.004580542E-2,1.313404503E-1,-3.564193690E-1,3.903758798E-1
9.647489667E0,1.749824600E-1,-1.784602377E-1,1.071917421E-1,2.719503398E-1
9.657460667E0,2.395843258E-1,7.505155644E-1,2.088818389E-1,8.150496207E-1
9.667431667E0,2.719773158E-1,1.393951361E0,6.689033443E-1,1.569873798E0
9.677402667E0,-6.021389589E-2,4.980345467E-1,2.411237953E0,2.462870803E0
9.687373667E0,-1.497439038E-1,-1.118215674E-1,2.294588925E0,2.302187141E0
9.697344667E0,3.782082872E-1,1.884426042E-1,7.298921424E-1,8.433828687E-1
9.707315667E0,-4.348778933E-2,4.620879114E-1,-1.408863223E-1,4.850416286E-1
9.717286667E0,2.159234945E-1,-3.826403305E-1,5.360446644E-1,6.930948422E-1
9.727257667E0,-3.272739226E-1,-1.321269886E0,2.855546236E-2,1.361498346E0
9.737228667E0,-2.004212833E-1,-1.281456487E0,-2.287237805E-1,1.317047450E0
9.747198667E0,-4.004421055E-1,-3.802912116E-2,-7.279169530E-1,8.316629030E-1
9.757169667E0,-5.062976857E-1,-4.419489312E-1,1.387544274E-3,6.720551537E-1
9.767140667E0,-2.586384282E-1,-9.988824812E-1,-8.467744750E-1,1.334798509E0
9.777111667E0,9.869829588E-2,-5.770076260E-1,-4.861340010E-1,7.609240573E-1
9.787082667E0,3.518811987E-1,-1.594857305E-1,4.334973657E-1,5.806686166E-1
9.797053667E0,-2.272661427E-1,5.884854180E-1,-4.895762569E-1,7.985298354E-1
9.807024667E0,-1.704986688E-1,-5.534486094E-1,6.888938051E-1,8.999721296E-1
9.816995667E0,-4.374507413E-1,-1.237792404E0,4.411098558E-1,1.384944436E0
9.826966667E0,-5.004829220E-1,-7.713614729E-1,4.660757124E-1,1.030877416E0
9.836937667E0,-5.263260072E-1,7.146534213E-1,1.331411004E-3,8.875530132E-1
9.846907667E0,-8.601711769E-1,4.856896126E-1,3.599247748E-1,1.051348989E0
9.856878667E0,-1.046383142E0,-1.893191019E-1,-3.533589363E-2,1.063958658E0
9.866849667E0,-7.004310925E-1,-6.122911870E-3,-1.215875285E0,1.403208436E0
9.876820667E0,-6.428253472E-1,-3.395636004E-1,-1.594857890E0,1.752740584E0
9.886791667E0,-4.253967062E-1,-1.508412069E-1,-1.457720218E0,1.525995957E0
9.896762667E0,-4.095610575E-1,-1.147304695E0,-7.736737543E-1,1.443128338E0
9.906733667E0,-1.175525331E0,-1.518143882E0,4.005366111E-1,1.961389872E0
9.916704667E0,-9.956757219E-1,-1.562355265E0,1.371775503E0,2.305231474E0
9.926675667E0,-1.020091502E0,-1.002381455E0,9.800734502E-1,1.733752930E0
9.936646667E0,-2.579196592E-1,-1.176953587E0,1.020447890E0,1.578941478E0
9.946616667E0,1.795781522E-1,-9.335196733E-1,1.567136825E0,1.832928019E0
9.956587667E0,-2.762934380E-1,-9.853555325E-1,6.843323922E-1,1.231086679E0
9.966558667E0,-5.699500367E-1,-4.745398495E-1,5.096813232E-1,8.998923070E-1
9.976529667E0,-5.606567645E-1,-6.019115022E-1,6.993854642E-1,1.079709911E0
9.986500667E0,-6.939471151E-1,3.477567190E-1,3.065040278E-1,8.345310379E-1
9.996471667E0,-6.080665737E-1,9.328644928E-1,-1.179015023E-1,1.119768674E0
1.000644267E1,-7.727069172E-1,5.901887119E-1,-4.449520612E-1,1.069289966E0
1.001641367E1,-1.477096575E-1,6.969071218E-1,-7.995815974E-1,1.070900747E0
1.002638467E1,1.376685264E-1,2.834902641E-1,-5.339694875E-1,6.200344883E-1
1.003635567E1,1.088241897E0,2.292164084E-1,2.376010233E-1,1.137218024E0
1.004632667E1,1.082578503E0,1.324977897E0,9.226438522E-2,1.713492153E0
1.005629667E1,7.061465266E-1,7.565846819E-1,2.136595988E-1,1.056746763E0
1.006626767E1,9.548345286E-1,1.090252242E0,-1.448729539E-1,1.456484501E0
1.007623867E1,1.387219754E-1,5.201224038E-1,4.213515294E-1,6.835994534E-1
1.008620967E1,3.794454119E-1,1.562327198E0,-1.149016467E0,1.976128522E0
1.009618067E1,2.084980423E-1,6.875232178E-1,-8.501383781E-2,7.234548785E-1
1.010615167E1,1.796134548E-1,5.650948012E-1,-5.254945332E-1,7.922989536E-1
1.011612267E1,-1.757161394E-3,9.814893535E-1,-7.447832465E-1,1.232082190E0
1.012609367E1,3.028160428E-1,1.160487243E0,-1.012952929E0,1.569873190E0
1.013606467E1,-3.035837822E-2,5.163281456E-1,-3.020086884E-1,5.989370860E-1
1.014603567E1,6.107663063E-1,-6.332362059E-1,-3.828634018E-1,9.594831722E-1
1.015600567E1,8.126323635E-1,-3.719697466E-1,-1.381193029E0,1.645122194E0
1.016597667E1,6.180448472E-1,-5.704221994E-1,-7.441382986E-1,1.122988302E0
1.017594767E1,5.346316847E-1,-1.732081516E0,1.138767468E0,2.140730895E0
1.018591867E1,5.191699655E-1,-1.119880084E0,9.739999473E-2,1.238206612E0
1.019588967E1,8.365025251E-1,-1.996804850E0,7.499229491E-1,2.291146113E0
1.020586067E1,3.645425402E-1,-2.296425535E0,1.724987090E0,2.895175636E0
1.021583167E1,6.330433208E-1,-1.011288226E0,1.922420665E0,2.262553632E0
1.022580267E1,-6.223586306E-2,-1.173913327E0,1.491389655E0,1.898996815E0
1.023577367E1,2.482423711E-1,2.421185821E-2,1.063570520E0,1.092425165E0
1.024574467E1,-3.562667567E-1,-1.688810366E-1,1.319817145E0,1.377448403E0
1.025571467E1,-1.001788840E-1,-4.603287765E-1,4.114305586E-1,6.254706195E-1
1.026568567E1,-9.281270056E-1,2.922976327E-1,-6.448970157E-1,1.167368753E0
1.027565667E1,-4.062355267E-1,-4.819684446E-2,-2.600385439E-1,4.847373344E-1
1.028562767E1,-2.758388170E-1,-2.197526899E-1,2.965906584E-1,4.608083293E-1
1.029559867E1,-3.587957505E-1,1.489449549E-1,-4.767135519E-1,6.149591862E-1
1.030556967E1,-3.159228690E-2,9.294839251E-1,-6.667287648E-1,1.144318874E0
1.031554067E1,1.950210873E-1,-5.595264977E-1,-7.269901693E-2,5.969826406E-1
1.032551167E1,8.084163748E-1,-5.265125334E-2,-3.450734317E-2,8.108637039E-1
1.033548267E1,4.879258072E-1,1.278885466E-1,-7.836684000E-1,9.319674001E-1
1.034545367E1,3.175599432E-1,-1.693435514E-1,1.487239301E-1,3.894102763E-1
1.035542367E1,6.647586916E-1,3.137361565E-1,-2.160534489E-1,7.661681192E-1
1.036539467E1,9.191357421E-1,-1.811484951E-1,-1.043791729E0,1.402542856E0
1.037536567E1,3.580502305E-1,-5.855141553E-1,-1.206904487E0,1.388396642E0
1.038533667E1,3.843900367E-1,-1.854336271E-1,-1.002174171E0,1.089263237E0
1.039530767E1,1.613125469E-1,-2.701147583E-1,-6.931172490E-2,3.221611951E-1
1.040527867E1,4.153697547E-1,-1.124165216E-1,6.701944095E-1,7.964484000E-1
1.041524967E1,-4.413865753E-2,-5.965528214E-1,4.725743079E-1,7.623319266E-1
1.042522067E1,1.747053020E-1,-4.161919463E-1,8.365406781E-1,9.505461508E-1
1.043519167E1,-3.431806149E-1,-1.865156543E-1,1.106570944E0,1.173482117E0
1.044516267E1,-1.498155322E-1,-4.407847506E-1,7.139725131E-1,8.523453757E-1
1.045513367E1,7.134524032E-2,-1.178558940E-1,-2.662079412E-1,2.997445963E-1
1.046510342E1,-5.158198763E-1,-4.128017306E-1,-3.620174932E-1,7.533472500E-1
1.047507442E1,-1.767195216E-1,4.493222702E-1,-7.572518492E-1,8.980816527E-1
1.048504542E1,-3.083856618E-1,-5.349851489E-2,-4.566149175E-2,3.163048835E-1
1.049501642E1,-6.717661411E-1,-5.121044093E-1,-9.812388003E-2,8.503816615E-1
1.050498742E1,-6.223095871E-1,3.880972445E-1,4.292248052E-1,8.497779868E-1
1.051495842E1,-3.695280225E-1,1.021541319E0,9.431184626E-1,1.438600035E0
1.052492942E1,-8.290270060E-2,1.147202076E0,9.204078770E-1,1.473124612E0
1.053490042E1,8.342858456E-2,1.103856082E0,7.664851874E-1,1.346461333E0
1.054487142E1,2.252389862E-1,1.993129874E0,1.463090301E-2,2.005869727E0
1.055484242E1,4.456441522E-1,1.794796705E0,-9.125965816E-1,2.062213966E0
1.056481242E1,4.302256293E-1,5.592794529E-1,-7.284274149E-1,1.014146980E0
1.057478342E1,9.541004106E-2,5.811667505E-1,-5.635102057E-1,8.151083485E-1
1.058475442E1,-3.610414468E-2,-2.568278378E-1,-1.179692130E0,1.207864880E0
1.059472542E1,8.279562347E-2,-2.625446606E-1,-1.359402210E0,1.386996461E0
1.060469642E1,-4.691751753E-1,-8.155225691E-1,-1.278096092E-1,9.494933923E-1
1.061466742E1,-3.679638192E-1,-1.029319285E0,6.779495716E-1,1.286278036E0
1.062463842E1,-5.829797528E-1,-2.943847963E-1,5.738895983E-1,8.694119113E-1
1.063460942E1,7.945803277E-2,-9.065067065E-1,2.488060427E-1,9.433835035E-1
1.064458042E1,-3.054535025E-1,-1.394467085E0,6.662796986E-1,1.575363111E0
1.065455142E1,-4.400650314E-1,-1.343468547E0,4.586111569E-1,1.486233213E0
1.066452242E1,-6.043074719E-1,-1.226035407E0,4.846406221E-2,1.367735028E0
1.067449242E1,-3.508266534E-1,-5.666133231E-1,5.977099854E-1,8.952023376E-1
1.068446342E1,-6.209911130E-2,2.497945145E-1,9.389751256E-2,2.739896749E-1
1.069443442E1,-2.937699616E-2,-7.594927946E-1,-1.323517263E-2,7.601759551E-1
1.070440542E1,5.597150704E-1,-6.570147854E-1,-7.062202746E-1,1.115211399E0
1.071437642E1,6.102033656E-1,-1.619421458E-1,3.312090987E-1,7.129325866E-1
1.072434742E1,7.956378698E-1,-6.144967568E-1,7.343570763E-1,1.244960320E0
1.073431842E1,9.441629945E-1,2.718870494E-1,-4.557202935E-2,9.835868735E-1
1.074428942E1,4.591220574E-1,-1.456070718E-1,6.046137929E-1,7.730150849E-1
1.075426042E1,3.625063936E-1,-4.413270798E-1,7.511163658E-1,9.435869180E-1
1.076423142E1,1.187740530E-1,2.048840976E-1,-4.302591777E-1,4.911290351E-1
1.077420242E1,-9.881136641E-2,-1.097139385E-1,-5.832819808E-1,6.016799012E-1
1.078417242E1,-3.243300688E-1,-4.246125215E-1,-4.352456832E-1,6.891477285E-1
1.079414342E1,-7.355797291E-1,-8.349689466E-1,-1.047045119E0,1.527924789E0
1.080411442E1,-3.425054077E-1,-1.079873435E0,-1.407506084E0,1.806795496E0
1.081408542E1,-1.449663632E-1,-1.034705740E0,1.692213446E-1,1.058426700E0
1.082405642E1,1.448625751E-2,-1.353340986E-1,8.928978968E-1,9.032119485E-1
1.083402742E1,1.809499821E-1,2.684944949E-1,1.700431708E0,1.730982433E0
1.084399842E1,-1.826786383E-1,3.498976770E-1,1.162045233E0,1.227252620E0
1.085396942E1,-7.059211895E-2,4.151204440E-1,3.120612216E-1,5.241091836E-1
1.086394042E1,2.442012873E-1,3.562728962E-1,-7.302815670E-1,8.484549560E-1
1.087391142E1,2.170506915E-1,-7.199793577E-2,-5.957804042E-1,6.381606346E-1
1.088388242E1,-2.025731318E-2,-8.035208666E-1,-4.106575567E-1,9.026049915E-1
1.089385242E1,1.496926676E-1,-1.748396417E-1,-6.039150506E-1,6.462895508E-1
1.090382342E1,4.379469506E-2,3.381488666E-1,2.923315465E-2,3.422239159E-1
1.091379442E1,1.473814825E-1,3.313663888E-1,5.161442506E-1,6.308168296E-1
1.092376542E1,3.657491863E-1,2.957232240E-1,9.550093603E-1,1.064550408E0
1.093373642E1,5.873459418E-1,5.046576878E-1,-2.211949056E-1,8.053457789E-1
1.094370742E1,7.887482417E-1,5.672948161E-1,2.101840138E-1,9.940445246E-1
1.095367842E1,2.292287607E-1,1.094043577E0,-3.726617646E-1,1.178284331E0
1.096364942E1,1.544366598E-2,7.614054188E-1,5.667238355E-1,9.492905900E-1
1.097362042E1,-3.061733678E-1,-1.279209986E-1,8.849176168E-2,3.434191388E-1
1.098359142E1,3.494003713E-3,5.329333609E-1,-1.238357245E0,1.348168699E0
1.099356242E1,-6.145689699E-1,4.969785395E-1,-7.742631537E-1,1.106420408E0
1.100353242E1,-9.713883615E-1,6.932534891E-1,-4.060891271E-1,1.260596735E0
1.101350342E1,-8.272037711E-1,3.405450556E-1,-1.719853234E-1,9.109423501E-1
1.102347442E1,-6.886729266E-1,2.141364393E-1,-5.218558109E-1,8.902012704E-1
1.103344542E1,-8.774712608E-1,5.814348453E-1,-7.168212765E-1,1.273520724E0
1.104341642E1,-4.675181475E-1,4.139548016E-1,1.148100793E-1,6.349119232E-1
1.105338742E1,-6.745458343E-1,-1.127178286E0,3.474316138E-1,1.358768449E0
1.106335842E1,-3.813887340E-1,-8.161818427E-1,-5.961873704E-1,1.080300675E0
1.107332942E1,-1.335262857E-1,-4.317244899E-1,-1.042932773E-1,4.637805428E-1
1.108330042E1,2.807868771E-1,-5.657730782E-1,-3.375960124E-1,7.161784093E-1
1.109327142E1,1.914505582E-1,-5.136431041E-1,-5.794584864E-1,7.976557479E-1
1.110324242E1,4.204827793E-2,-9.590550488E-1,1.145434463E-1,9.667858323E-1
1.111321242E1,-2.589835601E-1,-2.811133710E-1,2.026720959E-1,4.326351698E-1
1.112318342E1,-1.961982780E-1,-6.638899416E-2,2.207540256E-1,3.027104270E-1
1.113315442E1,-2.447310450E-1,3.703655630E-2,-4.629749340E-1,5.249864573E-1
1.114312542E1,2.631415151E-2,-1.288455019E0,3.068390733E-1,1.324748651E0
1.115309642E1,-6.321718664E-1,-5.485284698E-1,7.429051208E-1,1.119121428E0
1.116306742E1,-7.787620014E-1,-6.679017162E-1,1.636576020E0,1.931565175E0
1.117303842E1,-7.642716508E-1,3.185504615E-2,1.839946858E0,1.992618965E0
1.118300942E1,-2.827159466E-1,-2.646455652E-1,1.324961525E0,1.380394373E0
1.119298042E1,3.834378176E-1,-1.905812234E-2,8.081968850E-1,8.947457610E-1
1.120295142E1,2.409314512E-1,1.594512320E-1,-2.466472507E-1,3.798783039E-1
1.121292242E1,7.701584083E-1,1.231376839E-1,-4.213117683E-1,8.864595135E-1
1.122289342E1,5.834076959E-1,1.166908363E-1,-1.125146379E0,1.272766933E0
1.123286342E1,2.505184729E-1,-5.987607300E-1,-8.212794453E-1,1.046792169E0
1.124283442E1,7.002670781E-1,-2.327484190E-1,-1.476555853E0,1.650685614E0
1.125280542E1,4.294455376E-1,-6.503112450E-1,-1.345700430E0,1.555068433E0
1.126277642E1,2.280813177E-1,-9.855920523E-1,-1.490162909E-1,1.022554955E0
1.127274742E1,2.911106479E-1,-8.384442392E-1,5.340916944E-1,1.035851384E0
1.128271842E1,7.435816437E-2,-4.435867363E-1,1.618304640E0,1.679645271E0
1.129268942E1,-2.945483722E-2,5.001269728E-2,2.616171752E0,2.616815525E0
1.130266042E1,1.845409034E-1,9.548760438E-1,2.080911199E0,2.296962129E0
1.131263142E1,6.254385053E-1,1.015712522E0,-4.944832402E-1,1.291262532E0
1.132260242E1,7.452136016E-1,6.380949497E-1,-2.053446828E0,2.275775110E0
1.133257342E1,8.663407934E-1,2.589094466E-1,-2.769906746E0,2.913754254E0
1.134254342E1,4.725045799E-1,-6.289051732E-1,-2.950878655E0,3.053926511E0
1.135251442E1,-1.417551454E-1,-3.696600965E-1,-1.642129120E0,1.689180617E0
1.136248542E1,-2.470944896E-1,4.024463117E-2,-6.940335077E-1,7.378060903E-1
1.137245642E1,-3.963681310E-4,-9.582417011E-3,4.798535067E-1,4.799493387E-1
1.138242742E1,-4.728454725E-1,2.783257109E-1,2.073226204E0,2.144601346E0
1.139239842E1,-1.474113764E-1,1.384547576E-1,2.285580704E0,2.294510621E0
1.140236942E1,-1.513836823E-1,4.644507712E-1,1.834056373E0,1.897997449E0
1.141234042E1,-4.397975944E-2,4.392209128E-1,1.167388419E0,1.248056469E0
1.142231142E1,-2.045523412E-1,1.342287118E0,3.556206393E-1,1.403581991E0
1.143228242E1,-2.302625484E-1,1.094104973E0,-2.666903365E-1,1.149439110E0
1.144225342E1,-2.393028554E-1,9.271760291E-1,-1.151367048E0,1.497520392E0
1.145222442E1,3.809355748E-1,6.942805526E-1,-1.155371806E0,1.400721745E0
1.146219429E1,1.474727722E-1,3.149722579E-1,-1.018252260E0,1.076008089E0
1.147216529E1,3.775159038E-1,1.175518388E-1,6.888990676E-1,7.943038574E-1
1.148213629E1,-1.722860165E-2,3.222087720E-1,1.199286150E0,1.241935017E0
1.149210729E1,6.734776211E-1,5.218373922E-1,1.191604078E0,1.464857211E0
1.150207829E1,1.531472026E-1,6.063916388E-1,5.948851955E-1,8.631646894E-1
1.151204929E1,4.418707978E-1,-3.087040427E-1,-2.012003517E-1,5.753516920E-1
1.152202029E1,1.342759719E-1,-1.414161677E0,-9.855031747E-1,1.728901325E0
1.153199129E1,-4.326536856E-1,-1.130452435E0,-1.485853511E0,1.916473995E0
1.154196229E1,-5.751504772E-1,-1.179895906E0,-1.100726652E-1,1.317219955E0
1.155193329E1,-6.795806524E-1,-6.835079348E-1,7.671149325E-1,1.231859683E0
1.156190429E1,-2.189883857E-1,-3.174418294E-1,8.942345703E-1,9.738483942E-1
1.157187429E1,2.951895925E-1,1.642927265E-1,1.139491353E0,1.188515687E0
1.158184529E1,6.352420201E-1,8.571082592E-1,6.901550496E-1,1.270622282E0
1.159181629E1,5.886415386E-1,5.515131810E-1,6.198346800E-1,1.017281023E0
1.160178729E1,9.459363089E-1,4.607047525E-1,-3.847614080E-1,1.120306079E0
1.161175829E1,8.743043357E-1,7.594919175E-2,-1.131893481E0,1.432256682E0
1.162172929E1,9.764661567E-1,-5.652000511E-1,-8.780640954E-1,1.429662131E0
1.163170029E1,5.884639294E-1,-4.984382969E-1,2.479921103E-2,7.715863743E-1
1.164167129E1,3.078747614E-1,-6.796098885E-1,1.534250330E0,1.706042363E0
1.165164229E1,-3.368968315E-2,3.896262914E-2,1.971111014E0,1.971783891E0
1.166161329E1,2.943013273E-2,7.100081009E-1,1.444071647E0,1.609447283E0
1.167158429E1,1.197172089E-1,5.448093483E-1,1.853389606E0,1.935510907E0
1.168155529E1,2.772045804E-1,4.519371450E-1,1.249020812E0,1.356887081E0
1.169152529E1,5.503121629E-2,-1.191715175E-1,1.295409697E-1,1.844211164E-1
1.170149629E1,2.741374234E-1,-4.619244817E-1,-1.459283763E-1,5.566153472E-1
1.171146729E1,5.814281210E-2,-7.046046889E-1,-6.820654267E-1,9.823754886E-1
1.172143829E1,4.275318901E-1,-1.277129839E0,2.343856394E-2,1.346994250E0
1.173140929E1,2.777933219E-1,-5.016171357E-1,3.201409042E-1,6.567184169E-1
1.174138029E1,6.444659297E-1,3.861746800E-1,8.114391661E-1,1.105848425E0
1.175135129E1,8.889353118E-1,1.018193496E0,9.928642344E-1,1.677111616E0
1.176132229E1,8.369521759E-1,-1.223421702E-1,8.924429834E-2,8.505416487E-1
1.177129329E1,5.198836181E-1,-6.982540280E-1,-1.575837482E0,1.800305928E0
1.178126429E1,7.820659706E-1,-4.012911943E-1,-1.275226863E0,1.548827091E0
1.179123529E1,6.247067993E-1,-7.397525945E-1,-4.940827060E-1,1.087018954E0
1.180120629E1,5.938541121E-1,-1.235414049E0,3.412534457E-1,1.412573712E0
1.181117629E1,4.714946926E-1,1.150936693E-2,2.446270376E-1,5.313022664E-1
1.182114729E1,3.700470360E-1,1.519135863E-2,1.208151698E0,1.263643981E0
1.183111829E1,9.370013248E-1,1.050373647E0,5.985747886E-1,1.529558125E0
1.184108929E1,1.038456583E0,1.155736672E0,-4.702406842E-1,1.623343966E0
1.185106029E1,6.270494863E-1,1.872924569E-1,-3.041195333E-2,6.551293075E-1
1.186103129E1,8.959681235E-2,9.596049795E-1,-5.157717830E-1,1.093110167E0
1.187100229E1,-5.501343345E-1,1.082599699E0,1.087465167E-2,1.214408561E0
1.188097329E1,-9.676253128E-1,8.867741078E-1,8.203550005E-1,1.547788549E0
1.189094429E1,-7.628895883E-1,9.464466977E-1,-5.939484715E-2,1.217082423E0
1.190091529E1,-1.689164708E0,-1.011582926E-1,6.855456895E-1,1.825782929E0
1.191088629E1,-9.273116114E-1,-3.959062010E-2,8.977984482E-1,1.291323467E0
1.192085729E1,-1.262871696E0,8.813829750E-2,1.078821228E0,1.663270430E0
1.193082829E1,-1.121442899E0,3.508294308E-1,3.455751228E-1,1.224801057E0
1.194079829E1,-1.239807062E-2,1.052241540E-1,4.617429256E-2,1.155763818E-1
1.195076929E1,2.297473356E-1,-1.924271894E-1,-1.589234038E0,1.617243608E0
1.196074029E1,-1.087911748E-1,-1.165153905E0,-1.762803372E0,2.115867404E0
1.197071129E1,4.263994306E-2,-1.157416577E0,-9.742297429E-1,1.513457925E0
1.198068229E1,-5.416383301E-1,-1.902346297E0,2.877297878E-1,1.998770108E0
1.199065329E1,-4.540766412E-1,-1.840697055E0,4.481920034E-1,1.948134317E0
1.200062429E1,-7.971670628E-1,-6.588309306E-1,1.120991932E0,1.525174230E0
1.201059529E1,-3.116622222E-1,-4.077202079E-1,1.778862165E0,1.851410195E0
1.202056629E1,-6.617199668E-1,2.163835242E-1,4.842985600E-1,8.480803259E-1
1.203053729E1,-8.373337799E-1,-5.327991673E-1,-2.760558218E-1,1.030150294E0
1.204050829E1,-1.039988480E0,-5.350216940E-1,-1.269385495E0,1.726025430E0
1.205047929E1,-3.689211546E-1,-9.347969976E-1,-1.960617017E0,2.203172106E0
1.206044929E1,-3.027843947E-1,-6.973640817E-1,-2.230541448E0,2.356546245E0
1.207042029E1,5.955250271E-2,-7.602283743E-1,-4.685987860E-1,8.950298900E-1
1.208039129E1,5.145549774E-4,-9.826222515E-1,2.278940021E0,2.481756309E0
1.209036229E1,-3.188111743E-1,-1.459310076E-1,2.221951888E0,2.249445847E0
1.210033329E1,-7.678117745E-2,3.710327303E-1,1.274950290E0,1.330059727E0
1.211030429E1,-2.525887527E-2,2.611091691E-1,7.315164989E-1,7.771308752E-1
1.212027529E1,4.717646147E-1,3.737747821E-1,-5.901764327E-1,8.429576865E-1
1.213024629E1,9.571036868E-2,-8.428422225E-1,-1.303243212E0,1.554987574E0
1.214021729E1,-3.138622371E-1,-1.341158897E0,-1.515926911E0,2.048231210E0
1.215018829E1,-4.351163135E-1,-1.194394954E0,-1.064218392E0,1.657849902E0
1.216015929E1,-2.595750790E-1,-1.412653680E0,1.325586593E0,1.954520262E0
1.217013029E1,-7.942857742E-2,-5.345331591E-1,2.686177542E0,2.739997150E0
1.218010029E1,2.013572033E-1,1.560364288E0,2.281014029E0,2.770975719E0
1.219007129E1,1.239492774E-2,1.779234340E0,1.277997859E0,2.190686422E0
1.220004229E1,-1.071429178E-2,1.058402166E0,5.727517301E-1,1.203484311E0
1.221001329E1,-9.381652862E-2,1.093721688E-3,-2.385377473E-1,2.563259529E-1
1.221998429E1,2.048053063E-2,-4.108370662E-1,-5.316136444E-1,6.721752851E-1
1.222995529E1,-6.480906918E-1,5.272864124E-1,-5.119576442E-1,9.798740404E-1
1.223992629E1,-1.128869301E-1,5.916092929E-1,-1.488164915E0,1.605422010E0
1.224989729E1,-2.992787696E-2,-2.922964633E-2,-1.042132289E0,1.042971600E0
1.225986829E1,1.218033493E-2,4.507998616E-2,-1.364827842E0,1.365626451E0
1.226983929E1,7.098556347E-2,4.299729565E-1,-8.887311709E-1,9.898276555E-1
1.227981029E1,7.243365566E-1,1.758351595E0,-9.644151914E-1,2.132266503E0
1.228978129E1,7.464505070E-1,8.456445006E-1,-1.295285152E0,1.717575793E0
1.229975229E1,7.575540771E-1,-1.948435512E-1,-2.650028300E-1,8.258805538E-1
1.230972229E1,6.636359531E-1,-1.091928347E0,5.254688054E-1,1.381606912E0
1.231969329E1,7.218373105E-1,-1.116452446E0,3.500880039E-1,1.374800632E0
1.232966429E1,8.351018976E-1,-2.029627025E-1,1.011982875E0,1.327666516E0
1.233963529E1,7.000003720E-1,-1.360430735E-1,1.308265386E0,1.489988778E0
1.234960629E1,4.356261908E-1,-7.872194141E-2,6.430528039E-1,7.806947103E-1
1.235957729E1,4.573034272E-1,4.340136749E-1,3.944122374E-2,6.317039691E-1
1.236954829E1,2.192565536E-1,2.433643314E-1,-2.241822481E-1,3.969348996E-1
1.237951929E1,6.476001835E-1,4.401313242E-1,-7.409895730E-1,1.078038556E0
1.238949029E1,5.228718377E-1,-2.904943514E-1,-7.071102208E-1,9.261677986E-1
1.239946129E1,5.545883048E-1,-1.463720046E0,6.141096711E-2,1.566466044E0
1.240943229E1,1.979769279E-1,-8.864399394E-1,1.206690479E0,1.510321999E0
1.241940329E1,4.902193044E-1,5.264862210E-1,1.197833117E0,1.397249757E0
1.242937329E1,7.355370444E-1,7.143300703E-1,4.899019468E-1,1.136347707E0
1.243934429E1,9.089329355E-1,-2.785160378E-1,-1.260484278E-2,9.507308487E-1
1.244931529E1,2.518973925E-1,-1.403874086E0,-7.226246381E-1,1.598906224E0
1.245928658E1,2.841559696E-1,-1.455267311E0,-2.454333687E-1,1.502925514E0
1.246925758E1,-1.560581658E-1,-6.969179392E-1,1.165046024E-1,7.236173626E-1
1.247922858E1,9.214539438E-2,-7.986337638E-1,1.213612998E-1,8.130407293E-1
1.248919958E1,6.780766024E-1,-1.017553810E0,9.120370030E-2,1.226181777E0
1.249917058E1,3.972552998E-1,-1.207416411E0,6.308777314E-1,1.419039420E0
1.250914158E1,-7.155098923E-2,-5.019422409E-1,9.634322745E-1,1.088699823E0
1.251911258E1,-2.360153315E-1,-4.368513286E-2,1.636248575E0,1.653759665E0
1.252908358E1,-3.217880648E-1,-3.009541431E-1,1.035983942E0,1.125781365E0
1.253905458E1,-3.329126119E-1,-9.264837188E-1,-3.685616970E-2,9.851706784E-1
1.254902458E1,-2.810271245E-1,-5.485439649E-1,-1.670534894E0,1.780607637E0
1.255899558E1,-1.191520024E-1,-9.305153739E-1,-1.652170544E0,1.899927253E0
1.256896658E1,-4.987688839E-1,-1.315785782E0,-1.625084487E0,2.149642345E0
1.257893758E1,-5.740055924E-1,-1.216696527E0,-9.847196478E-1,1.667184946E0
1.258890858E1,-8.970223765E-1,-5.275983614E-1,6.683759254E-1,1.236824787E0
1.259887958E1,-1.119057235E0,1.048866235E0,1.815991985E0,2.377022583E0
1.260885058E1,-1.022547771E0,8.083094439E-1,6.943878490E-1,1.476869184E0
1.261882158E1,-1.141499652E0,5.357587355E-1,3.359967989E-1,1.304972309E0
1.262879258E1,-6.159281552E-2,2.825745901E-1,-2.392142701E-1,3.753205842E-1
1.263876358E1,-7.219410986E-3,-5.354909331E-2,7.402867377E-2,9.165080375E-2
1.264873458E1,-5.021593919E-1,8.316766718E-1,2.308422267E-2,9.717937140E-1
1.265870558E1,-2.400146078E-1,1.621848053E0,5.979964989E-1,1.745164156E0
1.266867658E1,-3.522238456E-1,1.967825172E0,-2.497287333E-1,2.014636936E0
1.267864758E1,-1.178103588E-1,2.077024848E0,-1.100589243E0,2.353552247E0
1.268861758E1,9.315401716E-1,9.980442828E-1,-1.200775436E0,1.818164219E0
1.269858858E1,6.407205688E-1,1.114923984E0,-1.083468010E0,1.681511602E0
1.270855958E1,6.162778187E-1,1.386994344E0,-1.050111399E0,1.845612530E0
1.271853058E1,1.290644217E-1,8.827222797E-1,-9.016991258E-2,8.966531443E-1
1.272850158E1,-3.784709734E-1,-6.709066004E-2,4.627831453E-1,6.015892901E-1
1.273847258E1,-3.541681179E-1,-4.370328847E-1,3.893415320E-1,6.841195996E-1
1.274844358E1,-1.924805452E-1,-6.197633439E-1,-1.133038366E-1,6.587815436E-1
1.275841458E1,-1.556499571E-1,-7.607657334E-1,-2.516501284E-1,8.162837726E-1
1.276838558E1,6.769285016E-2,-4.762899211E-1,4.819310224E-1,6.809492795E-1
1.277835658E1,8.648455873E-2,-5.506773216E-1,1.358844386E0,1.468735223E0
1.278832758E1,-2.254908550E-1,-8.141826797E-1,1.137391033E0,1.416826709E0
1.279829858E1,-2.555795304E-1,-4.211047769E-1,1.142958752E0,1.244590229E0
1.280826958E1,-7.803123906E-2,-1.133486263E0,1.357887197E0,1.770519026E0
1.281823958E1,4.164650112E-2,-9.505488119E-1,6.899708623E-1,1.175303053E0
1.282821058E1,-1.218113892E-2,-1.163931253E0,-4.154587054E-1,1.235916776E0
1.283818158E1,2.434298202E-2,-9.228639999E-1,-1.069850430E0,1.413099602E0
1.284815258E1,-1.286953893E-1,-7.119306654E-1,-7.754910690E-1,1.060563140E0
1.285812358E1,1.707987772E-1,-7.474966469E-1,4.349170697E-1,8.815193231E-1
1.286809458E1,-5.683464378E-1,-1.072269715E0,8.411202174E-1,1.476571446E0
1.287806558E1,-6.337858441E-1,-2.785905898E-1,9.974999070E-1,1.214208910E0
1.288803658E1,-1.277436380E0,1.213957983E-1,1.333704867E0,1.850769925E0
1.289800758E1,-9.266338460E-1,1.799226263E-1,7.135713941E-1,1.183303245E0
1.290797858E1,-7.846309248E-1,-9.554174960E-2,-6.727630913E-2,7.932843222E-1
1.291794958E1,-2.574116092E-1,3.629384297E-1,-7.212207216E-1,8.474339913E-1
1.292792058E1,-3.624240209E-1,6.026824576E-1,-6.470359272E-1,9.556321503E-1
1.293789158E1,-1.336437417E-1,4.122781125E-1,-1.003651763E0,1.093229506E0
1.294786158E1,9.788772561E-2,-3.087171990E-1,-6.363577420E-1,7.140304556E-1
1.295783258E1,8.849527001E-2,-5.835246402E-1,-6.712702972E-1,8.938323279E-1
1.296780358E1,4.428468443E-1,1.462143052E-1,-4.919671834E-2,4.689480436E-1
1.297777458E1,9.006539360E-1,2.204207343E-1,3.575046122E-2,9.279228998E-1
1.298774558E1,4.085429111E-1,-4.896855998E-1,5.827744424E-2,6.403870372E-1
1.299771658E1,6.075823512E-1,-8.883262512E-1,7.201723158E-2,1.078640961E0
1.300768758E1,1.823699784E-1,-1.041407526E0,-2.699314481E-1,1.091169754E0
1.301765858E1,1.264817796E-1,-8.389064616E-1,-5.370381063E-1,1.004077497E0
1.302762958E1,-2.936910242E-1,-1.344856092E0,4.884880900E-2,1.377417341E0
1.303760058E1,-7.604089802E-1,-1.433752481E0,1.142686272E-1,1.626937403E0
1.304757158E1,-8.133590262E-1,-1.282320413E0,2.465051633E-1,1.538396354E0
1.305754258E1,-6.606819398E-1,-2.400890136E-1,2.693052113E-1,7.527739746E-1
1.306751258E1,-8.615838642E-1,4.751678404E-1,1.388766927E0,1.701994362E0
1.307748358E1,-4.944841904E-1,5.184769973E-1,9.813422960E-1,1.215057905E0
1.308745458E1,-1.362717728E-1,6.104384968E-1,-2.111014420E-1,6.601279976E-1
1.309742558E1,-2.844584168E-1,1.179105654E-1,-4.074690700E-1,5.107352889E-1
1.310739658E1,-3.920031115E-1,-2.269547054E-1,2.802751726E-1,5.326622289E-1
1.311736758E1,-6.465916119E-1,7.454966068E-1,4.010476577E-1,1.065216000E0
1.312733858E1,-3.183710251E-1,1.606440932E0,-4.997708774E-1,1.712245166E0
1.313730958E1,3.426844787E-1,1.582997105E0,-9.014295691E-1,1.853614781E0
1.314728058E1,5.252648838E-1,1.218999745E0,-8.058778793E-1,1.552836995E0
1.315725158E1,6.288328870E-1,6.443973711E-1,8.645400703E-2,9.045181408E-1
1.316722258E1,6.911227638E-1,7.326526129E-1,2.833554858E-1,1.046289089E0
1.317719358E1,6.350411683E-1,1.279905805E0,-8.582601607E-1,1.666747329E0
1.318716458E1,3.355980188E-1,2.865694079E-1,-5.492008996E-1,7.045350835E-1
1.319713558E1,4.036526654E-1,-1.137825481E0,-3.401892525E-1,1.254316957E0
1.320710558E1,-2.696159908E-1,-6.748528862E-1,-4.235524213E-1,8.411396163E-1
1.321707658E1,-2.040410022E-1,-1.420133731E-1,1.131190061E0,1.158184563E0
1.322704758E1,5.711560249E-3,-4.856463432E-2,2.390417773E-1,2.439920427E-1
1.323701858E1,1.569244308E-1,-3.528879431E-1,-6.061106801E-2,3.909333433E-1
1.324698958E1,-2.887610905E-2,-9.477146664E-1,-2.973718464E-2,9.486206928E-1
1.325696058E1,5.625416145E-2,-4.448158211E-1,-3.486811638E-2,4.497126092E-1
1.326693158E1,2.348591908E-1,-1.556721765E-1,2.717218655E-1,3.914402103E-1
1.327690258E1,5.206904608E-1,-6.873305520E-1,-2.875719130E-2,8.627681147E-1
1.328687358E1,5.993618238E-1,-9.441882107E-1,1.494437224E-1,1.128299339E0
1.329684458E1,5.114600462E-1,-5.195625329E-1,2.312205416E-1,7.648526285E-1
1.330681558E1,2.173783549E-1,6.740547413E-1,1.535724413E-1,7.246983084E-1
1.331678658E1,7.484248924E-1,-1.264752746E-3,1.178137940E0,1.395761593E0
1.332675758E1,5.351074288E-1,-8.109231493E-1,3.767255795E-1,1.042045333E0
1.333672758E1,4.572736795E-1,-6.712805298E-1,8.447332120E-1,1.171874979E0
1.334669858E1,4.092201649E-1,-1.835721660E-1,4.150172406E-1,6.110639848E-1
1.335666958E1,1.721785008E-1,2.821354643E-1,1.103236277E0,1.151684045E0
1.336664058E1,1.139904459E-1,4.221376875E-1,3.582764447E-1,5.652928973E-1
1.337661158E1,3.005242266E-1,-2.770440012E-2,-1.557973069E0,1.586934916E0
1.338658258E1,-4.344495848E-2,-7.511967650E-1,-2.599341711E0,2.706060121E0
1.339655358E1,3.392148140E-1,-1.261725350E0,-1.411471666E0,1.923348593E0
1.340652458E1,-4.124935824E-1,-1.673823076E0,5.117132306E-2,1.724660299E0
1.341649558E1,-5.482882954E-1,-4.528721148E-1,8.118724447E-1,1.079282203E0
1.342646658E1,-8.876336485E-2,2.380395645E-1,2.319460641E0,2.333332260E0
1.343643758E1,2.201652841E-1,1.062146723E-1,2.354498911E0,2.367154290E0
1.344640858E1,4.930840015E-2,-5.334879693E-1,1.062243787E0,1.189706937E0
1.345637958E1,2.237986708E-1,-3.466475022E-1,-8.524912977E-1,9.470964832E-1
1.346634967E1,-4.116599887E-1,-1.873760721E-1,-1.337549411E0,1.411953316E0
1.347632067E1,-6.186589511E-1,-7.139786527E-1,-1.278855645E0,1.589961061E0
1.348629167E1,-2.257179462E-1,-1.128105362E0,-1.321540319E0,1.752152709E0
1.349626267E1,-5.213962197E-2,-4.813617960E-1,-2.859826398E-1,5.623288976E-1
1.350623367E1,1.471639661E-1,1.562063196E-1,5.975234592E-1,6.348952130E-1
1.351620467E1,2.535259151E-1,6.948413005E-1,8.285124511E-1,1.110636171E0
1.352617567E1,3.140442317E-1,-5.778773993E-2,2.006729913E0,2.031976414E0
1.353614667E1,3.009083156E-1,7.345131969E-1,1.888867003E0,2.048871398E0
1.354611767E1,1.514797959E-1,1.649094616E0,5.289432210E-1,1.738459120E0
1.355608867E1,2.893827226E-1,1.445461238E0,-6.478492749E-1,1.610220244E0
1.356605967E1,1.174030271E-1,7.259669065E-1,-1.830308892E0,1.972521752E0
1.357603067E1,-4.888136338E-1,-7.396821356E-1,-1.503886324E0,1.745778481E0
1.358600167E1,-6.104171544E-1,3.899142668E-1,-1.378377010E0,1.557101608E0
1.359597267E1,-7.060759945E-1,1.050406684E0,-8.024163276E-1,1.498589161E0
1.360594267E1,-7.924254826E-1,3.872716177E-1,9.457777762E-1,1.293218100E0
1.361591367E1,-1.335998729E0,1.345111030E-1,1.164682328E0,1.777490019E0
1.362588467E1,-1.129258433E0,-9.775755197E-2,1.000700673E0,1.512012892E0
1.363585567E1,-6.844831773E-1,-4.123590964E-1,1.060391389E0,1.327775261E0
1.364582667E1,-2.915933356E-1,-2.541884047E-1,9.110956013E-1,9.898149388E-1
1.365579767E1,-2.546585208E-1,-1.071057003E0,3.549844623E-1,1.156731617E0
1.366576867E1,4.055635355E-1,-3.610030013E-1,-1.360567560E0,1.464905811E0
1.367573967E1,2.489042028E-1,2.818767250E-1,-1.470399905E0,1.517723186E0
1.368571067E1,1.174201302E-1,-3.727076653E-1,-1.006874163E0,1.080043551E0
1.369568167E1,-4.651949756E-2,-8.760944608E-1,-1.288736855E0,1.559021568E0
1.370565267E1,8.470576264E-2,-1.812262923E0,9.024668652E-1,2.026306593E0
1.371562367E1,-5.472257102E-1,-5.364642021E-1,1.795308044E0,1.952019670E0
1.372559467E1,-7.527984636E-1,1.017831261E0,1.105430737E0,1.680673412E0
1.373556467E1,-7.773379851E-1,1.682010055E-1,7.359568745E-1,1.083595147E0
1.374553567E1,3.869161069E-2,-9.755941907E-1,-8.867355162E-1,1.318931742E0
1.375550667E1,3.021769421E-1,-9.636842895E-1,-1.285578774E0,1.634842836E0
1.376547767E1,4.365175257E-1,-1.418606730E0,5.184433758E-2,1.485153339E0
1.377544867E1,1.361133132E-1,-7.741181427E-1,8.779459816E-1,1.178378072E0
1.378541967E1,-6.936098769E-2,-3.826537791E-1,9.321906012E-1,1.010056522E0
1.379539067E1,7.973646256E-1,4.431443945E-1,1.383885087E0,1.657499693E0
1.380536167E1,8.887291975E-1,7.576719716E-1,8.773314393E-1,1.460690541E0
1.381533267E1,1.313127930E0,7.873325577E-1,-5.779300243E-1,1.636520892E0
1.382530367E1,1.048264702E0,-2.924955609E-1,-1.662635306E0,1.987150900E0
1.383527467E1,6.620663412E-1,-1.138630351E0,-2.329630703E0,2.676189479E0
1.384524567E1,6.770743896E-1,-9.720431766E-1,-1.915436751E0,2.252153550E0
1.385521667E1,2.529499644E-1,-1.044243718E0,-2.270462143E-1,1.098170575E0
1.386518667E1,7.844292690E-1,-1.261575076E0,2.138815591E0,2.604118485E0
1.387515767E1,5.203059333E-1,-6.227202809E-1,2.439874692E0,2.571281261E0
1.388512867E1,4.996742521E-1,4.781180531E-1,9.399995577E-1,1.166992031E0
1.389509967E1,8.081017216E-1,4.614567044E-1,4.548198223E-1,1.035775918E0
1.390507067E1,5.016232753E-1,2.890688002E-1,3.135721421E-1,6.584179295E-1
1.391504167E1,3.101570027E-1,2.567956781E-1,-2.856423318E-2,4.036797023E-1
1.392501267E1,4.119241367E-1,3.017572582E-2,-1.742162701E0,1.790453279E0
1.393498367E1,-3.836081909E-1,-2.602768180E-1,-6.951438940E-1,8.355383291E-1
1.394495467E1,-1.115984961E-1,-7.270340234E-1,1.346096871E0,1.533952242E0
1.395492567E1,-5.712282380E-1,7.130869523E-1,7.118219072E-1,1.158224991E0
1.396489667E1,-2.411658514E-1,1.801502877E0,1.649897146E-1,1.825046626E0
1.397486767E1,-2.519103295E-1,1.926876243E0,1.041367473E0,2.204712472E0
1.398483867E1,-3.803869598E-1,1.079748889E0,6.715024316E-1,1.327202855E0
1.399480967E1,1.793900181E-1,3.844576451E-1,-8.474170840E-1,9.476835831E-1
1.400477967E1,6.259741833E-1,6.086869633E-1,-1.592923631E0,1.816521178E0
1.401475067E1,4.247721505E-1,4.497385919E-1,-1.114387502E0,1.274580592E0
1.402472167E1,5.961068981E-1,-7.508003238E-1,-9.197956735E-1,1.328558859E0
1.403469267E1,2.494878280E-1,-5.642259049E-1,-1.170040716E0,1.322720804E0
1.404466367E1,2.547067603E-1,-3.646730062E-1,7.242185891E-2,4.506737854E-1
1.405463467E1,-1.104949804E-1,3.643938017E-1,-4.569066936E-1,5.947736629E-1
1.406460567E1,3.611225769E-1,-1.741373911E-1,1.930598581E-1,4.449780392E-1
1.407457667E1,1.332914469E-1,-8.949031994E-1,8.597050077E-1,1.248082948E0
1.408454767E1,4.859419200E-1,-9.491919655E-1,5.394880897E-1,1.195053277E0
1.409451867E1,-1.182059229E-1,-2.938611782E-1,-4.372185338E-1,5.398954329E-1
1.410448967E1,6.023458041E-2,-1.425413767E-1,-4.456917340E-1,4.717916600E-1
1.411446067E1,-1.635635056E-1,-6.027625644E-1,-6.914887995E-1,9.317899384E-1
1.412443167E1,1.833546495E-1,-6.809842765E-2,-7.619980341E-1,7.867002780E-1
1.413440167E1,-1.472344250E-1,5.327924430E-2,3.693493170E-1,4.011677601E-1
1.414437267E1,1.062985799E-1,-2.510209680E-1,1.430297946E0,1.456043656E0
1.415434367E1,1.480770819E-1,1.406886864E-1,1.610080531E0,1.622984734E0
1.416431467E1,8.760145001E-1,-9.299645662E-2,2.408257043E0,2.564322860E0
1.417428567E1,4.524414673E-1,-2.868927589E-1,2.572970184E0,2.628152641E0
1.418425667E1,2.337378410E-1,1.680288050E-1,1.564268181E0,1.590535130E0
1.419422767E1,1.373945113E-1,-2.093507856E-1,1.061315249E0,1.090456355E0
1.420419867E1,1.129206978E-1,-2.944839066E-1,1.860677576E-1,3.661872003E-1
1.421416967E1,-1.752963824E-1,-1.224284166E0,-7.515391195E-1,1.447208205E0
1.422414067E1,4.329494085E-1,-1.547691325E0,-1.305628876E0,2.070618359E0
1.423411167E1,7.003100552E-1,-1.449437052E0,-7.111594176E-1,1.759843646E0
1.424408267E1,9.455104854E-1,-9.979866877E-1,-1.004557496E0,1.702675327E0
1.425405367E1,7.765887375E-1,-8.229804003E-1,-4.473266155E-1,1.216753018E0
1.426402367E1,1.235333211E-1,-2.758920997E-2,5.478589636E-1,5.622909300E-1
1.427399467E1,-4.486616079E-1,5.759065953E-1,2.711511773E-1,7.787737835E-1
1.428396567E1,-6.670467802E-1,-2.862957582E-1,4.690753341E-2,7.274042788E-1
1.429393667E1,-9.208166704E-1,-1.078533253E0,-4.452882761E-1,1.486411439E0
1.430390767E1,-7.524425874E-1,-1.158091346E0,-6.700189930E-1,1.535014939E0
1.431387867E1,-5.795801816E-1,-8.697879463E-2,-8.662743545E-1,1.045901408E0
1.432384967E1,-3.542795804E-1,7.543539691E-1,-3.599721372E-2,8.341820732E-1
1.433382067E1,-1.322909883E-1,5.951676160E-1,-2.308153296E-1,6.519210942E-1
1.434379167E1,8.404809706E-2,6.660651058E-2,1.017064691E-1,1.477995796E-1
1.435376267E1,1.768870443E-2,5.470470777E-1,3.397296613E-1,6.441968940E-1
1.436373367E1,-8.373212814E-3,7.079858413E-1,4.144149774E-1,8.203985835E-1
1.437370467E1,1.155492405E-1,6.091360295E-1,2.562384385E-1,6.708624798E-1
1.438367567E1,2.981136388E-1,5.313484731E-1,4.225016767E-1,7.414247152E-1
1.439364567E1,2.877302264E-1,2.860557300E-1,-5.724453360E-1,7.016482213E-1
1.440361667E1,-2.076594785E-2,1.438634321E0,-5.653251815E-1,1.545863026E0
1.441358767E1,-6.411303855E-2,7.703671539E-1,-3.820383596E-1,8.622814748E-1
1.442355867E1,-5.338471346E-2,1.735170016E-1,-8.091540742E-1,8.292697952E-1
1.443352967E1,1.757863791E-1,4.236056310E-1,-6.034770942E-1,7.579757152E-1
1.444350067E1,-2.438516968E-1,3.687657648E-1,5.888666564E-1,7.363530257E-1
1.445347167E1,-1.306463128E-1,-3.704521018E-1,1.578615494E0,1.626754468E0
1.446344233E1,-7.359293195E-1,-5.175999150E-1,1.500162817E0,1.749282743E0
1.447341333E1,4.815927610E-2,-8.853473872E-2,4.803838491E-2,1.116485659E-1
1.448338433E1,-6.390823983E-2,-2.694981694E-2,1.577596325E-1,1.723329840E-1
1.449335533E1,1.440270811E-1,-9.186583900E-1,-7.870644629E-2,9.332050913E-1
1.450332633E1,-1.599724381E-1,-9.720621800E-1,-8.423329300E-1,1.296156174E0
1.451329733E1,2.474898344E-1,-6.263590032E-1,-4.107125205E-1,7.888355935E-1
1.452326833E1,4.206773454E-1,-3.400828332E-2,2.016295373E-2,4.225311077E-1
1.453323833E1,7.124801575E-1,-6.145040658E-1,4.661944109E-1,1.050038309E0
1.454320933E1,2.157254201E-1,-4.125479615E-1,-1.411769289E-1,4.864814515E-1
1.455318033E1,1.166979991E-2,-7.122671726E-1,3.051112211E-1,7.749539126E-1
1.456315133E1,-1.040972932E0,-2.612416086E-1,1.207137791E0,1.615256472E0
1.457312233E1,-1.200640365E0,1.859651390E-1,1.368060767E0,1.829674993E0
1.458309333E1,-1.664397364E0,4.937868369E-1,1.771595246E0,2.480442247E0
1.459306433E1,-1.144779648E0,2.925820997E-1,1.409071383E0,1.838914596E0
1.460303533E1,-9.785703503E-1,1.201449912E0,-1.215150815E-1,1.554299758E0
1.461300633E1,-4.379644923E-1,9.469130132E-1,-1.299361830E0,1.666372803E0
1.462297733E1,-1.277257747E-1,3.700220391E-1,-2.179071917E0,2.213952258E0
1.463294833E1,3.482133865E-1,-4.269245106E-1,-2.438575441E0,2.500033456E0
1.464291933E1,-2.375745647E-2,-1.163886521E0,-1.416912500E0,1.833804047E0
1.465288933E1,4.735399756E-1,-1.084067935E0,-5.528600872E-1,1.305793886E0
1.466286033E1,4.779124504E-1,-7.536432400E-1,3.110835671E-1,9.450668914E-1
1.467283133E1,9.133411514E-1,-1.239724324E0,1.712433118E0,2.302940651E0
1.468280233E1,6.044957522E-1,-9.321932325E-1,1.895771395E0,2.197350341E0
1.469277333E1,6.628264792E-1,-9.272812790E-1,1.347446993E0,1.764880424E0
1.470274433E1,1.227284519E-1,-7.754901919E-1,1.479343806E0,1.674785182E0
1.471271533E1,6.391277142E-2,-7.576026821E-1,1.376304172E0,1.572342151E0
1.472268633E1,-4.130891944E-1,-9.884232742E-1,-1.492326379E-2,1.071375730E0
1.473265733E1,-5.337185689E-1,-7.094821438E-1,-8.512703991E-1,1.229992567E0
1.474262833E1,-5.891912500E-1,-4.774842149E-1,-1.078120732E0,1.318135735E0
1.475259933E1,-2.098576661E-1,-4.300387377E-1,-4.250756210E-1,6.400490915E-1
1.476257033E1,-3.984930092E-1,3.548567006E-1,-5.601363623E-1,7.736101736E-1
1.477254133E1,-3.455032752E-1,6.134062511E-1,3.756175321E-1,7.979525503E-1
1.478251133E1,6.255548649E-2,1.101962461E0,3.611105901E-1,1.161307588E0
1.479248233E1,5.003518713E-1,6.328613994E-1,3.198175532E-1,8.678414678E-1
1.480245333E1,4.085884463E-1,2.726702839E-2,1.085991084E0,1.160631140E0
1.481242433E1,4.905202898E-1,5.077365392E-1,1.295883322E-1,7.177741176E-1
1.482239533E1,2.448916242E-2,5.533515456E-1,-2.897271967E-1,6.250915938E-1
1.483236633E1,4.778713737E-1,9.645464614E-1,-2.267901063E-2,1.076673239E0
1.484233733E1,6.753127697E-1,1.111409515E0,-3.059707618E-1,1.336000207E0
1.485230833E1,3.016963010E-1,9.045695239E-1,-7.744344771E-1,1.228419896E0
1.486227933E1,5.285809129E-1,2.391309473E-1,-8.813473070E-1,1.055156134E0
1.487225033E1,4.378439666E-1,2.486686331E-1,-9.705150068E-1,1.093363072E0
1.488222133E1,2.317197476E-1,-6.903316355E-1,-7.610092700E-1,1.053274379E0
1.489219233E1,9.887524724E-1,-7.364638281E-1,-3.619900113E-1,1.284930811E0
1.490216333E1,3.996623792E-1,-1.009329117E0,6.186903799E-1,1.249501128E0
1.491213333E1,-3.708655000E-2,-1.149509680E0,1.344315224E0,1.769161196E0
1.492210433E1,-3.656979501E-1,-6.913671774E-1,8.937550986E-1,1.187653881E0
1.493207533E1,-4.089581365E-1,-1.895287246E-1,2.600461453E-1,5.203766833E-1
1.494204633E1,-3.664495365E-1,-5.970355090E-1,2.334185100E-1,7.383907249E-1
1.495201733E1,-2.940348405E-1,-4.634517744E-1,3.424889624E-2,5.499245598E-1
1.496198833E1,-2.003251697E-1,1.577108082E-1,-5.751040649E-1,6.290846987E-1
1.497195933E1,1.880218971E-1,3.428465196E-1,-8.626701307E-1,9.471513735E-1
1.498193033E1,6.103294462E-2,-1.358574244E-1,-2.380173451E-1,2.807748505E-1
1.499190133E1,4.855474522E-1,3.338643193E-2,3.469819629E-1,5.977185498E-1
1.500187233E1,1.065475982E-1,-1.807035220E-1,8.492320597E-1,8.747578206E-1
1.501184333E1,4.342788461E-1,2.684529796E-1,7.592901886E-1,9.149790756E-1
1.502181433E1,1.851289140E-1,1.703881565E-1,9.077153260E-1,9.419405245E-1
1.503178433E1,-6.001428656E-2,1.764754003E-1,2.420981169E-2,1.879664771E-1
1.504175533E1,-1.130406388E-1,4.546180934E-2,-6.847405279E-1,6.954959041E-1
1.505172633E1,-1.210562213E-1,-8.575774983E-1,-8.924394751E-1,1.243600414E0
1.506169733E1,-3.293950000E-1,-1.268970635E0,-3.996700537E-1,1.370592459E0
1.507166833E1,-2.872736319E-1,-1.716881972E0,1.007888655E0,2.011479402E0
1.508163933E1,-6.702427952E-1,-1.090265106E0,7.859593391E-1,1.501877322E0
1.509161033E1,-8.087764172E-1,-1.316658479E-1,1.125785480E0,1.392425271E0
1.510158133E1,2.550500650E-1,1.211578166E-1,1.404900565E0,1.432995237E0
1.511155233E1,4.749634071E-1,-4.792798948E-1,9.361725551E-1,1.154001087E0
1.512152333E1,5.054706701E-1,3.622180527E-1,1.303782910E-1,6.353747043E-1
1.513149433E1,5.300642784E-1,3.418931311E-1,-4.398164517E-1,7.689587528E-1
1.514146533E1,8.959160102E-1,3.469495109E-1,-5.342209178E-1,1.099286791E0
1.515143633E1,8.624497638E-1,4.699313664E-1,-1.199836373E0,1.550568414E0
1.516140633E1,8.589119060E-1,1.610615551E-3,-9.391283226E-1,1.272672095E0
1.517137733E1,8.229073832E-1,2.555335566E-1,-2.150044584E-1,8.880883273E-1
1.518134833E1,4.774521283E-1,2.144241223E-1,-7.758518422E-1,9.358869163E-1
1.519131933E1,7.302242643E-1,-9.327800006E-2,-1.037166249E0,1.271865594E0
1.520129033E1,1.245490117E0,5.861974025E-1,-1.069109588E0,1.742948174E0
1.521126133E1,8.192900033E-1,2.160408774E-1,-6.143371278E-1,1.046575309E0
1.522123233E1,4.085770442E-1,3.619213066E-1,-7.597287297E-2,5.510844859E-1
1.523120333E1,-3.207268683E-1,2.467147860E-1,7.860909015E-1,8.841226245E-1
1.524117433E1,-4.825508273E-1,4.562333867E-1,1.652079912E0,1.780553914E0
1.525114533E1,-1.031478077E-1,5.827490070E-1,1.611697286E0,1.716917010E0
1.526111633E1,3.744733782E-1,1.214752620E0,1.333759831E0,1.842490034E0
1.527108733E1,8.921309613E-1,1.530280071E0,-7.878772259E-2,1.773093977E0
1.528105733E1,1.106381787E0,1.354142640E0,-1.096469294E0,2.063983493E0
1.529102833E1,1.362426682E0,1.129642888E0,-1.530955424E0,2.340111970E0
1.530099933E1,1.024736311E0,1.052099160E0,-1.891620457E0,2.394833001E0
1.531097033E1,9.851213515E-1,2.422229549E-1,-3.846374470E-1,1.084934101E0
1.532094133E1,5.633719191E-1,-6.195247775E-1,1.630777920E0,1.833203615E0
1.533091233E1,-1.175397058E-1,-9.094180351E-1,2.514193972E0,2.676196569E0
1.534088333E1,-7.301366291E-1,-9.100059727E-1,1.384446419E0,1.810497792E0
1.535085433E1,-2.423177529E-1,-8.727703187E-1,1.087172806E-1,9.122857939E-1
1.536082533E1,7.190449727E-1,-1.451338859E0,-1.027394966E0,1.918059064E0
1.537079633E1,1.012044491E0,-2.467080032E0,-1.278830502E0,2.957384890E0
1.538076733E1,3.144532444E-1,-2.552492943E0,-6.599547654E-1,2.655116072E0
1.539073833E1,-2.882153260E-1,-1.593236457E0,5.384858769E-1,1.706293504E0
1.540070833E1,-8.892205828E-1,-1.522340137E0,2.017753669E0,2.679470583E0
1.541067933E1,-1.507082851E0,-1.710471084E0,1.896535626E0,2.965443884E0
1.542065033E1,-1.650476313E0,-6.848969409E-1,8.479076654E-1,1.977903761E0
1.543062133E1,-6.320666897E-1,-2.384275272E-1,-1.114081693E-1,6.846661713E-1
1.544059233E1,-2.064097092E-1,-6.807074109E-1,8.200363272E-1,1.085553833E0
1.545056333E1,-4.728272000E-1,-9.615754911E-1,1.092654571E0,1.530387859E0
1.546053421E1,-7.965863612E-1,-2.737730688E-1,1.735582244E-1,8.600139425E-1
1.547050521E1,-5.957324570E-1,-2.202836171E-1,-3.802081811E-1,7.402569104E-1
1.548047621E1,-1.867991712E-1,-1.302516988E-1,-3.201982069E-1,3.929202554E-1
1.549044721E1,-4.436999530E-1,-2.842632660E-1,-7.776352429E-1,9.393571333E-1
1.550041821E1,-2.773053718E-1,8.957720956E-1,-1.439489769E0,1.717974596E0
1.551038921E1,5.014034931E-1,2.098387942E0,-2.377467359E0,3.210449885E0
1.552036021E1,6.222853211E-1,1.115711604E0,-1.349212267E0,1.858070275E0
1.553033021E1,4.740866172E-1,1.391043833E-1,7.571337354E-1,9.040794453E-1
1.554030121E1,-9.986828718E-1,2.561726573E-1,6.584204561E-1,1.223319012E0
1.555027221E1,-1.967338976E0,6.943612441E-1,-3.449974179E-2,2.086564261E0
1.556024321E1,-1.706204079E0,-3.974410951E-2,-3.077506542E-2,1.706944363E0
1.557021421E1,-1.553995208E0,-4.753862339E-1,1.095031464E-1,1.628767668E0
1.558018521E1,-1.788790153E0,1.615845886E-1,6.366062486E-1,1.905556954E0
1.559015621E1,-1.174253123E0,1.119220811E0,-3.055234498E-1,1.650718086E0
1.560012721E1,-9.386571832E-2,1.127275350E0,-1.989834384E0,2.288886490E0
1.561009821E1,1.299709740E0,-4.788846231E-1,-2.727587523E0,3.059135431E0
1.562006921E1,1.505653791E0,-1.103252942E0,-2.375976319E0,3.021493648E0
1.563004021E1,4.434219910E-1,-1.064945201E0,-4.598525208E-1,1.241851716E0
1.564001121E1,-7.026914068E-1,-4.160852346E-1,2.307072730E0,2.447342787E0
1.564998121E1,-1.627838379E0,-5.082192269E-1,3.472557880E0,3.868695233E0
1.565995221E1,-1.965044528E0,1.584887803E-1,2.696800763E0,3.340546819E0
1.566992321E1,-1.860969060E0,5.442374906E-1,1.532275726E0,2.471288973E0
1.567989421E1,-8.317235226E-1,9.214606681E-1,3.022835076E-1,1.277587218E0
1.568986521E1,2.830294304E-1,7.466666347E-1,-9.819971842E-1,1.265675785E0
1.569983621E1,6.151251132E-1,5.551162353E-1,-1.145437387E0,1.413704264E0
1.570980721E1,3.951727409E-1,1.581308430E0,-5.447576004E-1,1.718562972E0
1.571977821E1,4.484717195E-1,9.711760345E-1,-4.724924469E-1,1.169426734E0
1.572974921E1,4.772952767E-1,6.043135384E-1,-1.109469409E0,1.350528787E0
1.573972021E1,3.762634302E-1,4.877332145E-1,-9.351030993E-1,1.119765897E0
1.574969121E1,-1.087947562E-3,4.162165046E-2,-6.949538594E-1,6.961999800E-1
1.575966221E1,-3.066251383E-1,-7.951920927E-3,-2.784830010E-1,4.142885351E-1
1.576963221E1,-1.028093563E0,-2.608559847E-1,6.734097934E-1,1.256384881E0
1.577960321E1,-1.248840718E0,-9.149003845E-1,1.248921994E0,1.989083206E0
1.578957421E1,-1.357274555E0,-1.213384079E0,1.036867456E0,2.095134664E0
1.579954521E1,-1.067280944E0,-2.165044154E0,1.312031577E0,2.747349935E0
1.580951621E1,-3.806049147E-1,-1.754919279E0,1.503271197E0,2.341885153E0
1.581948721E1,3.337778536E-1,-1.004220112E0,5.615402788E-1,1.197995481E0
1.582945821E1,1.345825414E0,-1.424507448E-1,-7.911440653E-1,1.567624697E0
1.583942921E1,2.336775124E0,5.206583011E-1,-1.323863418E0,2.735729774E0
1.584940021E1,2.269195344E0,2.943020582E-1,-2.905820596E-1,2.306577366E0
1.585937121E1,1.325433396E0,-1.429965824E-2,9.669014275E-2,1.329032411E0
1.586934221E1,6.078443065E-1,-3.420884281E-1,3.997367120E-1,8.039207874E-1
1.587931321E1,3.356610225E-1,-1.629192156E-1,7.111138093E-1,8.030528268E-1
1.588928321E1,1.868127660E-1,-3.617222089E-1,6.733273476E-1,7.868365033E-1
1.589925421E1,-4.775157899E-2,-8.405775958E-1,9.193723351E-1,1.246634027E0
1.590922521E1,-1.981627232E-1,-7.008104306E-1,8.537911338E-1,1.122213449E0
1.591919621E1,4.775006602E-1,-5.020039290E-1,3.344613200E-1,7.693368572E-1
1.592916721E1,4.695186261E-1,-6.254368973E-1,-9.789332432E-1,1.252968215E0
1.593913821E1,1.074298041E0,-9.145863891E-1,-5.426315528E-1,1.511632742E0
1.594910921E1,5.924480760E-1,-6.418301511E-1,-7.561385393E-2,8.767314985E-1
1.595908021E1,7.399084228E-1,2.842536181E-2,-1.877517557E-1,7.638869008E-1
1.596905121E1,7.340917589E-1,1.162543416E-2,-6.137266785E-1,9.569149895E-1
1.597902221E1,1.113949107E0,-9.702495432E-1,4.514290220E-1,1.544686036E0
1.598899321E1,-5.438592488E-1,-9.064587593E-1,1.278777877E0,1.659133275E0
1.599896421E1,-1.529155798E0,-2.489022294E-1,1.894355199E0,2.447212985E0
1.600893421E1,-1.611118412E0,4.688446614E-1,8.293275529E-1,1.871710994E0
1.601890521E1,-6.052890732E-1,9.785964435E-1,-1.028721115E0,1.543467847E0
1.602887621E1,1.597517788E-1,2.194343090E-1,-1.611944624E0,1.634636815E0
1.603884721E1,6.752958859E-1,5.311359268E-1,-1.167179673E0,1.449288893E0
1.604881821E1,-9.231810652E-2,7.534470659E-1,-1.218220603E-1,7.687949846E-1
1.605878921E1,-1.037114866E0,9.948338690E-1,5.399406642E-1,1.535199529E0
1.606876021E1,-1.333280067E0,1.216720793E0,3.119226426E-1,1.831758979E0
1.607873121E1,-1.485000987E0,8.975183666E-1,-7.386337298E-1,1.885827918E0
1.608870221E1,-1.259077000E0,1.322406584E0,-2.982233765E0,3.496820312E0
1.609867321E1,-1.042968514E0,1.015269888E0,-3.007905965E0,3.341564687E0
1.610864421E1,-8.171725803E-1,5.533512533E-2,-1.560692024E-1,8.337809053E-1
1.611861521E1,-1.458602855E0,-9.792519164E-1,2.386228243E0,2.963197906E0
1.612858521E1,-2.171839496E0,8.175343037E-2,2.465107182E0,3.286384615E0
1.613855621E1,-2.003727076E0,6.990466180E-1,8.757205313E-1,2.295751471E0
1.614852721E1,-9.497637501E-1,-1.548918656E-1,9.029030675E-1,1.319574409E0
