"Time (s)","Linear Acceleration x (m/s^2)","Linear Acceleration y (m/s^2)","Linear Acceleration z (m/s^2)","Absolute acceleration (m/s^2)"
9.700041614E-3,3.899923856E0,-3.462461201E0,3.995311239E0,6.569669363E0
1.967004163E-2,3.352596404E0,-2.140472985E0,4.325340954E0,5.876231923E0
2.964004164E-2,-1.360050520E0,-1.702537582E0,5.503844930E0,5.919516927E0
3.961004165E-2,1.560593499E0,-3.113917739E0,4.570849167E0,5.746703217E0
4.958004167E-2,1.566610576E0,-4.245234684E0,3.718660755E0,5.857023479E0
5.955004162E-2,4.188357283E-1,-2.288489986E0,-4.755774379E-2,2.326987650E0
6.951904163E-2,1.335396905E0,-5.172491405E0,-4.926496119E0,7.266933070E0
7.948904164E-2,-8.317861609E-1,-5.901809936E0,-4.301567345E0,7.350286413E0
8.945904166E-2,-4.186617371E-1,-3.322706315E0,-2.601458403E0,4.240665128E0
9.942904167E-2,1.371710307E0,-1.738916034E0,3.979289868E0,4.554137239E0
1.093990416E-1,-5.481827532E-1,9.767063311E-1,8.366704863E0,8.441339340E0
1.193690416E-1,-9.881541561E-1,3.583824839E0,4.700466151E0,5.992881707E0
1.293380416E-1,3.895351479E-1,2.587325976E0,1.529592438E0,3.030783127E0
1.393080417E-1,1.917283009E-1,-2.733454911E0,-5.509515560E-1,2.795010396E0
1.492780416E-1,1.983162564E0,-1.743273964E0,-2.371334800E0,3.548966977E0
1.592480416E-1,1.841767242E0,-5.899995545E-1,-6.698832207E0,6.972414143E0
1.692180416E-1,2.836784568E0,-1.377244696E0,-6.282774162E0,7.029751120E0
1.791880417E-1,2.191798820E0,1.417912958E0,-4.293787624E0,5.025044417E0
1.891570417E-1,1.227627129E-1,3.464348390E0,-2.668960415E0,4.374943445E0
1.991270416E-1,1.589942867E0,1.548903160E0,1.422804739E0,2.636549382E0
2.090970416E-1,4.437497275E-1,8.746060520E-2,8.373212814E-2,4.599720072E-1
2.190670416E-1,-4.758578850E-1,1.780643812E-1,-1.878187063E0,1.945696352E0
2.290370417E-1,4.297304432E-1,3.618754644E0,-1.462450030E0,3.926679706E0
2.390070416E-1,1.102886760E0,5.891463872E0,-1.359815024E0,6.146120944E0
2.489760416E-1,3.090494305E-1,6.784682781E0,-4.720160158E0,8.270873225E0
2.589460416E-1,1.496192704E0,3.250759542E0,-2.957037528E0,4.642208650E0
2.689160416E-1,-2.777019592E-1,-3.439287808E0,3.258360922E-1,3.465831525E0
2.788860417E-1,4.663132556E-1,-6.012753836E0,4.979108781E-1,6.051328118E0
2.888560416E-1,2.098765234E0,-4.184642035E0,3.111041493E0,5.620909503E0
2.988260416E-1,-8.383127499E-1,-1.182882956E-1,1.525236847E0,1.744450581E0
3.087950416E-1,-5.890933822E-1,5.240599773E0,-1.064304346E-1,5.274679557E0
3.187650417E-1,-4.007558817E-1,7.722649262E0,-4.631509936E0,9.013922631E0
3.287350417E-1,-1.365707555E0,9.781688367E0,-7.661732385E0,1.249994910E1
3.387050416E-1,-1.704741983E0,5.601942497E0,-5.341043243E0,7.925569248E0
3.486750416E-1,-2.587375677E0,9.833788812E-1,-3.836099158E0,4.730454911E0
3.586450416E-1,-1.018184140E0,-5.039978296E-2,-3.630222203E0,3.770643490E0
3.686144583E-1,-4.887517410E0,4.086679246E0,-1.841273591E0,6.631671141E0
3.785844583E-1,-8.223053977E0,9.212030983E0,-2.557806015E-2,1.234831105E1
3.885544583E-1,-7.722582604E0,1.295963078E1,-4.864295778E0,1.585092065E1
3.985244583E-1,-7.386439040E0,1.226701054E1,-3.732795230E0,1.479772920E1
4.084944583E-1,-8.530483035E0,8.411903840E0,9.668195665E-1,1.201931808E1
4.184644583E-1,-5.825654629E0,4.463572348E0,8.940135455E-1,7.393307121E0
4.284334583E-1,-4.851682749E0,5.159466147E-2,5.186223006E-1,4.879595946E0
4.384034583E-1,-1.428709257E0,-4.343960535E0,9.308825791E-1,4.666663224E0
4.483734583E-1,-4.806427346E-1,-3.388816981E0,1.007461224E0,3.567923218E0
4.583434583E-1,-2.777560459E-1,-3.313450465E-1,-5.751186830E-1,7.195133497E-1
4.683134583E-1,1.262275573E0,4.125316477E0,3.651949872E0,5.652283921E0
4.782834583E-1,-2.248517397E0,3.993642736E0,4.878719689E0,6.693797023E0
4.882524583E-1,-1.758231580E0,1.758882522E0,3.039914208E0,3.927610521E0
4.982224583E-1,-1.751846567E0,-6.684911156E-1,8.811069864E-1,2.071761639E0
5.081924583E-1,-3.510771189E0,-4.334584525E0,9.741683471E-1,5.662432455E0
5.181624583E-1,-2.836375847E0,-3.523197691E0,-8.122776568E-1,4.595404760E0
5.281324583E-1,-1.274015905E0,-6.861046833E0,-2.958098212E0,7.579407972E0
5.381024583E-1,-1.459437106E0,-5.016465472E0,4.499818361E-1,5.243793107E0
5.480714583E-1,2.456333435E-1,2.657898068E0,2.583334959E-1,2.681696119E0
5.580414583E-1,1.691457839E0,2.656818964E0,-4.338505375E-1,3.179299124E0
5.680114583E-1,-1.816180265E-1,-3.453783348E0,4.096400827E0,5.361166315E0
5.779814583E-1,3.056144325E0,-6.504576008E0,8.738342196E-1,7.239690147E0
5.879514583E-1,3.507601121E0,-7.453225937E0,6.023253681E0,1.020457875E1
5.979214583E-1,5.367256896E0,-4.954700164E0,3.454888764E0,8.080393349E0
6.078904583E-1,1.788743813E0,-1.593269202E0,-1.179753526E0,2.670192795E0
6.178604583E-1,3.220584693E0,-8.645125884E-1,-5.027646518E-1,3.372287069E0
6.278304583E-1,1.286837972E0,5.167658097E-1,-2.652022786E0,2.992695060E0
6.378004583E-1,2.956414214E0,1.518880339E0,2.497380888E-1,3.333129401E0
6.477704583E-1,2.120674166E0,-2.715613595E-1,-1.271154862E0,2.487335758E0
6.577404583E-1,5.934723986E-1,-2.410424606E0,-4.245461556E0,4.917956902E0
6.677104583E-1,2.819776991E-1,-6.823080862E-1,-4.494209712E0,4.554445815E0
6.776794583E-1,-1.034772983E0,1.665261290E0,4.102726929E0,4.547111011E0
6.876494583E-1,1.379114636E0,1.762595211E0,2.821200861E0,3.601093355E0
6.976194583E-1,1.361176255E0,1.517293113E0,-6.662143852E0,6.967003652E0
7.075894583E-1,-7.987350668E-1,1.609814483E-1,-5.058878835E0,5.124075312E0
7.175594583E-1,9.199311827E-1,-3.902519435E-1,-1.001452625E-1,1.004290314E0
7.275294583E-1,-1.828574169E0,2.125869271E-1,1.793740405E0,2.570288182E0
7.374984583E-1,-9.192314172E-1,1.234281443E0,1.670486362E0,2.271334798E0
7.474684583E-1,1.940293411E0,-3.339955601E0,4.522559352E0,5.947569674E0
7.574384583E-1,3.352965948E0,-2.981377440E0,6.262830479E0,7.704157169E0
7.674084583E-1,3.576033132E0,2.216464276E0,1.042447454E0,4.334446163E0
7.773784583E-1,1.991402022E0,2.472754170E0,-5.686844069E0,6.513093786E0
7.873484583E-1,3.291011482E0,-3.951136986E0,-3.502452355E0,6.221688883E0
7.973174583E-1,4.393316005E0,-4.053088454E0,2.112432954E0,6.339647035E0
8.072874583E-1,2.872883230E0,-1.749146908E0,4.861783814E0,5.911845297E0
8.172574583E-1,3.874555418E0,1.025576775E0,6.163214974E0,7.351816525E0
8.272274583E-1,5.426064829E-1,9.656781900E-1,7.296898288E-1,1.326425048E0
8.371974583E-1,-7.223356394E-1,-2.445613149E0,-5.266528666E-2,2.550601122E0
8.471674583E-1,-2.369248111E-1,-1.177189522E0,-3.663701021E0,3.855465433E0
8.571364583E-1,9.552248302E-1,-4.637967601E-1,-2.473499106E0,2.691794891E0
8.671064583E-1,7.602406535E-1,5.873025262E-1,1.661914344E0,1.919596154E0
8.770764583E-1,-1.030034765E0,-2.058305864E0,4.345959406E0,4.917820432E0
8.870464583E-1,-2.653758458E-1,-2.173187279E0,2.447178449E0,3.283572696E0
8.970164583E-1,-7.938674060E-1,2.447057704E0,-2.935015744E0,3.902900752E0
9.069864583E-1,-5.004629684E-1,4.317034984E0,-2.016812852E0,4.791115561E0
9.169554583E-1,-5.060147170E-1,-1.520566092E0,2.805069562E0,3.230570752E0
9.269254583E-1,-1.992028405E0,-4.397421920E0,4.821444458E-1,4.851593550E0
9.368954583E-1,-1.464038573E0,4.033909294E-1,-4.223046255E-1,1.576221552E0
9.468654583E-1,-4.864289200E-1,1.277065228E0,-2.185253593E0,2.577371133E0
9.568354583E-1,-1.965912694E0,-1.789917496E-1,-1.233298234E0,2.327632982E0
9.668054583E-1,-1.110847963E0,2.645280361E-3,-3.812229654E0,3.970778907E0
9.767754583E-1,-1.644622081E0,-1.048043531E0,-6.650660505E0,6.930689878E0
9.867444583E-1,-1.457935541E0,3.018949601E-1,-6.219412563E0,6.395139502E0
9.967144583E-1,6.171427681E-1,-2.238176450E0,-8.892059648E-1,2.486158938E0
1.006684458E0,1.239188573E0,-2.638763932E0,5.814613917E0,6.504490634E0
1.016654458E0,7.569358072E-1,-1.225536055E0,6.959008160E0,7.106524116E0
1.026624458E0,1.141944406E0,3.444828629E-2,5.803956197E0,5.915330189E0
1.036594458E0,-6.192563903E-1,-3.331956902E-1,1.787720697E0,1.921052611E0
1.046563458E0,3.974769093E-1,1.255226462E0,-3.773602948E0,3.996706215E0
1.056533458E0,-1.175776323E0,-7.573524213E-1,-1.992964398E0,2.434736073E0
1.066503458E0,-1.898664743E0,8.241241157E-1,2.245798588E0,3.054131573E0
1.076473458E0,2.124165685E0,-1.410436124E-1,7.874482741E0,8.157171789E0
1.086443458E0,2.537844205E0,1.839447505E0,3.653890563E0,4.814056146E0
1.096413458E0,-1.160042270E0,-1.563453664E0,-6.714129692E-1,2.059339895E0
1.106383458E0,1.357699939E0,1.598434047E0,-2.749178367E0,3.457791524E0
1.116352458E0,-1.827364344E-1,2.865398210E0,-4.611468020E0,5.432268109E0
1.126322458E0,-3.755798176E-1,-2.515908376E0,-1.706635019E0,3.063243092E0
1.136292458E0,7.125223305E-2,-9.547874585E-1,-8.110684526E-1,1.254801979E0
1.146262458E0,2.198837954E-1,7.991389632E-1,2.218100327E-1,8.580044619E-1
1.156232458E0,8.133191190E-1,1.302499446E-1,4.209369618E-1,9.250086287E-1
1.166202458E0,-9.483316939E-1,1.074772324E0,6.034098512E-1,1.555175874E0
1.176171458E0,-1.409608194E-1,1.227154272E0,2.547637122E0,2.831295192E0
1.186141458E0,7.813423046E-1,8.414388907E-1,3.002960390E-1,1.186883699E0
1.196111458E0,1.805723689E0,2.973563221E0,3.270260006E-1,3.494232716E0
1.206081458E0,-8.532523859E-2,2.365284685E0,-9.207820988E-1,2.539624325E0
1.216051458E0,-1.192426635E0,1.362392476E0,-1.181902962E0,2.162149197E0
1.226021458E0,-9.450470936E-1,-1.710690647E-1,-2.270138792E0,2.464935855E0
1.235990458E0,-9.249133028E-1,-7.775080660E-1,-4.069286118E0,4.244887857E0
1.245960458E0,7.245808972E-1,2.913547692E-1,-2.652077749E0,2.764673845E0
1.255930458E0,-2.621693790E-1,-4.029962423E-1,-8.955162799E-1,1.016409446E0
1.265900458E0,-1.807415435E0,1.009092889E0,-2.110189962E-1,2.080756600E0
1.275870458E0,-4.309433750E-1,1.552243382E0,3.477723311E0,3.832718505E0
1.285840458E0,1.090959463E0,-3.220941666E-1,7.066360116E-3,1.137535554E0
1.295810458E0,-9.615395308E-1,6.277678898E-1,-2.258426819E0,2.533602670E0
1.305779458E0,-1.302926147E0,-1.575500683E0,-2.142232704E-1,2.055653316E0
1.315749458E0,-1.269967585E0,-3.013225177E-1,3.000553676E0,3.272145365E0
1.325719458E0,-1.826261303E0,8.041333625E-1,-3.407991171E-2,1.995751050E0
1.335689458E0,-2.318720676E0,5.108449191E0,4.711604512E-1,5.629805581E0
1.345659458E0,1.518865429E-2,1.985524109E0,-3.755070198E0,4.247715724E0
1.355629458E0,-2.363959560E0,-2.839021128E0,-4.962726637E0,6.186840990E0
1.365598458E0,-1.900468317E0,-3.522332888E0,-4.713530000E0,6.183524388E0
1.375568458E0,9.474725917E-1,-3.367223799E0,2.159098998E0,4.110670128E0
1.385538458E0,9.255341309E-1,-3.624328502E0,1.132426747E1,1.192608084E1
1.395508458E0,7.007073004E-2,9.862557113E-2,7.081678652E0,7.082712011E0
1.405478458E0,2.501516916E0,7.057004571E-2,4.829706573E0,5.439543418E0
1.415448458E0,1.909092522E0,2.829622605E-1,1.526915583E0,2.460929315E0
1.425418458E0,2.343187180E0,2.414514148E-1,-2.996516758E0,3.811553178E0
1.435387458E0,2.483746351E0,-6.530930579E-1,-6.995347436E0,7.451873069E0
1.445357458E0,-9.877790572E-1,-1.427574313E0,-6.830839532E0,7.047981597E0
1.455327458E0,-5.539907048E0,-1.927207780E0,-1.206374145E0,5.988325184E0
1.465297458E0,-1.595167646E0,-4.655974102E0,8.373291167E0,9.712603133E0
1.475267458E0,-2.503812533E0,-6.076660395E-1,5.477683318E0,6.053375071E0
1.485237458E0,-1.175760608E0,2.253378626E0,1.203466909E0,2.812198578E0
1.495206458E0,8.124410865E-1,3.737018966E0,-4.899084372E0,6.215013995E0
1.505176458E0,1.849165505E-1,-4.323483878E-1,-3.810170850E0,3.839078166E0
1.515146458E0,8.963905849E-2,-2.269035715E0,-2.433421705E0,3.328377898E0
1.525116458E0,-7.684084828E-1,-3.858381727E-1,1.141761242E0,1.429315020E0
1.535086458E0,-2.656963098E-1,3.253454816E0,3.251865835E0,4.607623485E0
1.545056458E0,1.013456301E0,3.764683312E0,2.418915932E0,4.588146511E0
1.555026458E0,6.836702681E-1,-1.083768850E0,-1.725280620E0,2.149081937E0
1.564995458E0,1.081561233E0,5.143693283E-1,-4.661257061E0,4.812657052E0
1.574965458E0,-4.679845360E-1,1.706096782E0,-4.249118990E-1,1.819430097E0
1.584935458E0,1.238840225E0,-2.350423110E0,-1.211531973E0,2.920106782E0
1.594905458E0,1.905480550E0,-4.752654889E-1,-4.778618281E0,5.166422949E0
1.604875458E0,3.144881085E0,1.997668191E0,-4.359918464E0,5.734966804E0
1.614845458E0,2.953615737E0,1.506568442E0,-3.069215775E0,4.518150049E0
1.624814458E0,1.464249511E0,8.374832493E-1,6.875202942E-1,1.821562236E0
1.634784458E0,1.410758890E0,1.085550204E-1,9.269849421E0,9.377213505E0
1.644754458E0,8.955306056E-1,9.718736073E-1,7.757075329E0,7.868845597E0
1.654724458E0,4.470270918E-1,3.500996983E0,8.979522300E-1,3.641858221E0
1.664694458E0,6.159629461E-1,7.976242420E-1,6.551717430E-1,1.202025289E0
1.674664458E0,4.220595102E0,-4.271627262E0,-1.948489307E0,6.313226834E0
1.684634458E0,3.296278654E0,-4.468196619E0,-2.038700150E0,5.914941444E0
1.694603458E0,1.133664310E0,2.579402414E0,-2.945063599E0,4.075771238E0
1.704573458E0,2.083224797E-1,7.931270900E0,-3.808359382E0,8.800685060E0
1.714543458E0,2.761653986E0,1.325412346E0,4.111528158E-1,3.090711449E0
1.724513458E0,2.204049468E0,-1.124349696E0,3.044313653E0,3.922988901E0
1.734483458E0,1.667053754E0,-3.178364580E0,7.690392512E-1,3.670489204E0
1.744453458E0,1.131878351E0,-2.772968056E0,-2.835563961E0,4.124430072E0
1.754422458E0,-1.556253257E0,-1.133324295E0,2.609214735E0,3.242583798E0
1.764392458E0,-1.322612114E0,-1.417324144E-1,3.681109352E0,3.914071657E0
1.774362458E0,-9.096720967E-1,1.088835754E0,1.571047443E-1,1.427497294E0
1.784332458E0,6.644485699E-1,9.927057749E-1,-2.057444569E0,2.379082767E0
1.794302458E0,-2.446908454E-1,1.202331087E0,5.536868834E-1,1.346121398E0
1.804272458E0,-5.465637323E-1,6.164608365E-1,-6.279544160E0,6.333358566E0
1.814242458E0,-2.057053098E0,-2.663096827E0,-1.081070886E1,1.132232212E1
1.824211458E0,-2.109971715E0,-7.416141726E0,-9.045171329E0,1.188554850E1
1.834181458E0,-2.383372462E0,-7.030472245E0,-9.399879218E0,1.197771821E1
1.844151458E0,-1.067059481E0,-6.644394044E0,1.574583605E1,1.712360771E1
1.854121458E0,1.410437001E0,-1.570326481E0,3.148741066E1,3.155807801E1
1.864091458E0,1.649888668E0,1.130695503E1,8.666808529E0,1.434165035E1
1.874061458E0,2.150461345E0,8.916084103E0,-3.128802996E0,9.690740318E0
1.884030458E0,3.993728105E0,1.867293701E0,-5.408220150E0,6.977499203E0
1.894000458E0,5.428802349E0,-1.118314200E0,1.190856804E0,5.669273456E0
1.903970458E0,7.785423800E0,-1.320927531E0,-1.986844118E0,8.142801903E0
1.913940458E0,4.235254949E0,3.636037551E0,-5.102003805E0,7.562314222E0
1.923910458E0,1.103621609E0,3.785084540E0,-2.600602371E0,4.723132258E0
1.933880458E0,-4.408402260E-1,2.739346858E0,-7.562572378E-1,2.875810551E0
1.943850458E0,1.093398191E0,-9.564583004E-3,-4.970304043E0,5.089158414E0
1.953819458E0,9.550159384E-1,-1.641124861E0,-7.821229225E0,8.048414306E0
1.963789458E0,1.663011720E-1,-5.141592963E0,2.314986936E0,5.641169985E0
1.973759458E0,-3.106890994E-1,-7.793467230E-1,1.295867651E1,1.298580787E1
1.983729458E0,-8.859278695E-1,4.725959719E0,1.026121911E1,1.133190986E1
1.993699458E0,3.708501510E-1,4.930282191E0,2.806477572E0,5.685202607E0
2.003669458E0,-2.711238416E-1,3.127126014E-1,-1.666907866E0,1.717521220E0
2.013638458E0,-2.284189359E0,1.335495869E0,-7.943775755E0,8.372851575E0
2.023608458E0,-2.659855131E0,1.048132994E0,-1.046880111E1,1.085215226E1
2.033578458E0,-2.815880187E0,-9.564550844E-1,-9.155235223E0,9.626126923E0
2.043548458E0,2.581175143E-1,-4.298986968E0,-4.396222656E0,6.154241403E0
2.053518458E0,-1.353305903E0,-8.720419310E0,9.547304481E-1,8.876297654E0
2.063488458E0,-1.425311148E0,-2.378214341E0,2.949946024E0,4.048406707E0
2.073458458E0,-1.277137879E-1,1.048413602E1,-4.358506361E0,1.135473454E1
2.083427458E0,-2.349876103E0,1.310925869E1,-5.506363910E-1,1.332958294E1
2.093397458E0,-9.364245701E-1,3.654297821E0,7.490694895E0,8.386971655E0
2.103367458E0,-1.396468002E0,-4.240629710E0,2.822192549E0,5.281840020E0
2.113337458E0,-2.649302076E0,-6.041447877E0,-5.253886401E0,8.433339567E0
2.123307458E0,-1.690903085E0,-6.109665588E0,-4.536205584E0,7.795147718E0
2.133277458E0,3.984499225E-1,1.921383369E0,-4.942940243E0,5.318189038E0
2.143246458E0,1.119272047E0,-1.030369153E0,-5.877983701E-1,1.630931461E0
2.153216458E0,1.395010730E0,-4.458151979E0,5.384546528E0,7.128430074E0
2.163186458E0,-7.480667505E-1,-5.965475004E0,1.139838912E1,1.288680606E1
2.173156458E0,-1.890858711E0,-3.107312724E-1,1.215864877E1,1.230872213E1
2.183126458E0,9.605605607E-1,1.958072308E0,7.614437765E0,7.920630419E0
2.193096458E0,-1.240570416E0,1.603458267E0,1.316677190E0,2.417381268E0
2.203066458E0,-1.862087340E0,1.101989651E0,-4.391382916E0,4.895507570E0
2.213035458E0,-3.146620339E0,-2.020150735E0,-3.727940286E0,5.280129480E0
2.223005458E0,-3.050035738E0,-3.958882501E0,3.104867418E0,5.883508336E0
2.232975458E0,-4.293038888E0,-5.171157070E0,5.029967862E-1,6.739736947E0
2.242945458E0,-9.886596479E-2,-5.671837190E0,3.828411824E-1,5.685602779E0
2.252915458E0,1.380424193E-1,-1.704125394E0,1.384082723E-1,1.715300532E0
2.262885458E0,-5.698768003E-1,-2.720799198E0,1.517982792E0,3.167298470E0
2.272855458E0,-3.704051414E-1,-3.580484910E0,2.120027318E0,4.177509783E0
2.282824458E0,-5.311808042E-2,5.610295245E-1,3.257881451E-1,6.509328485E-1
2.292794458E0,-2.687768861E0,1.530235924E0,-1.375114848E0,3.384769458E0
2.302764458E0,-3.494432022E-1,-1.357094314E0,2.267976492E0,2.665995667E0
2.312734458E0,1.771209329E-2,-2.124944826E0,-1.364817901E0,2.525555808E0
2.322704458E0,2.572273196E0,-3.874777320E-1,-2.749263151E0,3.784861459E0
2.332674458E0,2.368491079E-1,1.585116429E0,-3.005965274E0,3.406540594E0
2.342643458E0,5.058099548E-1,-1.822480932E0,-5.338928890E0,5.664048212E0
2.352613458E0,8.805576405E-1,-3.735840459E0,-3.530377488E0,5.214925781E0
2.362583458E0,1.660932012E0,-1.403986937E0,4.662745178E0,5.145004087E0
2.372553667E0,2.748536927E0,-1.142363505E0,1.656074145E0,3.406175449E0
2.382523667E0,1.286304705E0,4.708492039E0,-6.043267531E0,7.768240439E0
2.392493667E0,2.404544061E0,4.862848007E0,-3.545123581E0,6.480511097E0
2.402463667E0,3.321386013E0,7.887837782E0,1.215782899E0,8.644519534E0
2.412432667E0,1.013380068E0,8.622315896E0,5.061321217E0,1.004929067E1
2.422402667E0,1.202378961E0,5.054595750E0,2.907411039E0,5.953796462E0
2.432372667E0,3.300879682E-1,2.120105378E0,-3.078371345E0,3.752355930E0
2.442342667E0,4.631388022E0,-9.559121704E-1,-1.042355652E0,4.842522937E0
2.452312667E0,1.258253565E0,1.662045906E0,-5.452827389E0,5.837715748E0
2.462282667E0,6.588156547E-1,4.705855237E0,-5.877691340E0,7.558198666E0
2.472252667E0,2.645579446E0,9.170560775E0,-1.522695063E0,9.665240597E0
2.482221667E0,1.416548657E0,1.076195010E1,-5.209961532E0,1.204034381E1
2.492191667E0,1.494154511E0,3.886091975E0,3.210577476E0,5.257567524E0
2.502161667E0,1.537774740E0,-2.037207940E-1,1.967904401E0,2.505773542E0
2.512131667E0,1.890128540E0,-1.557876298E0,1.858039897E0,3.074390462E0
2.522101667E0,1.008791611E-1,3.100986037E0,-1.433018655E0,3.417577135E0
2.532071667E0,1.127810078E0,2.339711011E0,-4.679899154E0,5.352350818E0
2.542041667E0,1.606037182E0,1.096143312E0,-1.048795893E1,1.066668496E1
2.552010667E0,1.176231236E0,1.842019111E-1,-1.060092596E1,1.066757149E1
2.561980667E0,2.308312632E0,-2.712582983E0,-2.062227007E0,4.115725194E0
2.571950667E0,5.005958829E-1,-2.744297988E0,1.081589885E1,1.116984492E1
2.581920667E0,2.650215704E0,9.305285302E-1,1.093813723E1,1.129302319E1
2.591890667E0,-1.642441946E-1,4.455151188E0,6.081828164E0,7.540821048E0
2.601860667E0,8.260341087E-1,1.265958734E0,5.893086475E0,6.083868182E0
2.611829667E0,-4.919418941E-1,-1.760248139E0,1.822080106E0,2.580785975E0
2.621799667E0,-6.609065460E-1,-4.897148359E-1,-1.166735870E1,1.169631895E1
2.631769667E0,2.123305998E0,-2.655437559E0,-7.796394346E0,8.505500678E0
2.641739667E0,4.931515369E0,-1.619677274E0,3.162057281E-1,5.200306180E0
2.651709667E0,5.004004763E-1,-8.937533444E-1,4.842482155E0,4.949629188E0
2.661679667E0,4.766861796E-1,2.612863690E0,4.649352715E0,5.354509039E0
2.671649667E0,2.675649922E0,3.714116299E-1,4.664391169E0,5.390138596E0
2.681618667E0,-1.127200213E0,-2.708224176E0,5.670582962E-1,2.987743901E0
2.691588667E0,-4.965173696E0,-3.675332010E0,-6.890779340E0,9.254396530E0
2.701558667E0,-2.940327647E0,-8.537028408E-1,-1.222847154E1,1.260594509E1
2.711528667E0,4.782425257E-1,-3.432040769E-1,-2.997164045E0,3.054422575E0
2.721498667E0,-3.199026302E0,3.116168332E-1,1.005734190E1,1.055845635E1
2.731468667E0,1.679992765E0,-1.699771557E0,1.351425555E1,1.372394631E1
2.741438667E0,-1.031970705E0,-5.116154652E0,4.927190183E0,7.177548680E0
2.751407667E0,-3.966407867E0,-1.393010544E0,-6.286926270E0,7.562956542E0
2.761377667E0,-1.221134271E0,2.030374299E0,-9.436223171E0,9.729126191E0
2.771347667E0,-7.698416354E-1,1.798891218E0,-5.086422145E0,5.449803298E0
2.781317667E0,-4.373635082E-1,3.827337982E0,-2.185898541E0,4.429216105E0
2.791287667E0,1.202417261E0,2.383150268E0,1.794719814E0,3.216555872E0
2.801257667E0,-9.698827766E-1,1.954023989E0,3.654957095E0,4.256476678E0
2.811227667E0,-6.670237568E-1,-1.353239245E0,6.345964437E0,6.522840008E0
2.821196667E0,1.140901775E-1,-2.885004801E0,5.166344227E0,5.918393527E0
2.831166667E0,5.050486838E-1,-2.264980379E-1,-9.550198853E-2,5.616904521E-1
2.841136667E0,-3.622499201E-1,-8.772168338E-1,-4.775380093E0,4.868776993E0
2.851106667E0,-1.055371262E0,3.260436684E-2,-3.223350719E0,3.391881690E0
2.861076667E0,-8.550163447E-1,-4.436577800E-1,3.052124949E0,3.200523688E0
2.871046667E0,-7.981727108E-2,2.896964988E-1,3.387200226E0,3.400502938E0
2.881016667E0,-2.409916921E0,-1.877589770E0,-1.746288496E0,3.518887100E0
2.890985667E0,-3.501863540E0,-4.683456308E0,-3.381083454E0,6.754963846E0
2.900955667E0,-2.834720793E0,-5.395967309E0,-1.508488083E0,6.279143371E0
2.910925667E0,-2.059770591E0,-1.864423595E0,4.483437386E0,5.274461207E0
2.920895667E0,-2.300098756E-1,1.225890396E0,9.239316430E0,9.323126080E0
2.930865667E0,-4.116083139E0,3.275200903E-1,7.020464151E0,8.144711579E0
2.940835667E0,-3.476216191E0,4.005935045E0,2.231576990E0,5.754261938E0
2.950805667E0,-1.488123546E0,2.850631651E0,-3.888044068E0,5.045542505E0
2.960774667E0,-8.121970383E-1,-4.284144981E0,-8.252829754E0,9.333957424E0
2.970744667E0,-3.826412441E-2,-7.734471163E0,-1.388081517E1,1.589026551E1
2.980714667E0,1.066863818E0,-6.327691888E0,-1.487458104E1,1.619972358E1
2.990684667E0,1.961833968E0,-4.674783718E0,-9.303026522E0,1.059474860E1
3.000654667E0,7.827008320E-1,-2.787854775E0,1.253257470E1,1.286274401E1
3.010624667E0,-6.398867559E-1,1.736981483E0,3.220771512E1,3.226086597E1
3.020594667E0,-2.706382011E0,1.287989815E1,1.781362435E1,2.214817131E1
3.030563667E0,-2.045830537E0,9.556814393E0,2.264030791E0,1.003214630E1
3.040533667E0,3.580056601E0,-3.487641943E-1,-1.072502493E1,1.131214398E1
3.050503667E0,4.526663805E0,-4.438333426E0,-1.642409670E1,1.760512542E1
3.060473667E0,2.058946134E0,-3.066788304E0,-1.592756401E1,1.635028272E1
3.070443667E0,-2.398211819E0,3.607041209E0,-5.317336292E0,6.858296542E0
3.080413667E0,-1.860933099E0,6.761436006E0,7.910753605E0,1.057166550E1
3.090383667E0,7.584814455E-1,3.195862958E0,8.526778239E0,9.137547881E0
3.100352667E0,2.499103771E0,1.360896758E0,4.282325327E-1,2.877662723E0
3.110322667E0,4.668742082E0,9.312994856E-1,-2.451558014E0,5.354867697E0
3.120292667E0,3.289127802E0,3.264690241E0,-5.835220090E0,7.451601006E0
3.130262667E0,1.468302655E0,5.355419793E0,-6.264173584E0,8.371159091E0
3.140232667E0,8.979706487E-1,5.009765732E0,-5.199029578E0,7.275576440E0
3.150202667E0,6.000534398E-1,-3.102412757E0,4.985164742E0,5.902278929E0
3.160172667E0,3.001508234E0,-7.490525326E0,1.436620189E1,1.647740204E1
3.170141667E0,1.401815281E0,-1.708319894E0,5.310318464E0,5.751775824E0
3.180111667E0,1.866332565E-1,1.083232075E0,-4.550275154E0,4.681156660E0
3.190081667E0,-5.178533552E-1,-2.996227321E-1,-4.673201753E0,4.711343811E0
3.200051667E0,-1.689126262E0,1.923625191E0,3.657655585E-1,2.585974836E0
3.210021667E0,3.370278092E-1,9.017660179E0,1.972522532E0,9.237024845E0
3.219991667E0,9.391404556E-1,9.518557230E0,3.829483618E0,1.030290548E1
3.229961667E0,1.464159172E0,2.876042189E0,-4.080862436E0,5.202770317E0
3.239930667E0,3.412554630E0,-1.209533044E1,-3.339789248E0,1.300372023E1
3.249900667E0,1.573153318E0,-1.491828196E1,-5.306323646E0,1.591185152E1
3.259870667E0,6.385075439E-2,-6.080987919E0,-9.703477764E0,1.145163620E1
3.269840667E0,-2.757295179E0,-7.288794047E-1,-4.651675229E0,5.456374651E0
3.279810667E0,-1.212205427E0,8.526947808E-1,6.361202281E0,6.531571391E0
3.289780667E0,-8.746290755E-1,-4.504309022E-1,1.584916103E1,1.587966528E1
3.299750667E0,9.056620762E-1,-1.886532210E0,8.766358545E0,9.012672728E0
3.309719667E0,5.316859306E-1,-1.016783732E0,4.249264001E0,4.401452446E0
3.319689667E0,-2.119767117E0,-9.030375534E-1,2.490943104E-1,2.317528302E0
3.329659667E0,-6.446352066E-1,-4.687646423E0,2.750588130E0,5.473145220E0
3.339629667E0,1.874418533E0,-2.487126334E0,-3.984842384E-1,3.139750297E0
3.349599667E0,1.899066886E0,-2.270690185E-1,2.320592077E0,3.007185223E0
3.359569667E0,5.780523042E-1,4.792924079E0,-1.974294823E-1,4.831691639E0
3.369539667E0,1.162731843E0,5.844358703E0,-6.656901239E0,8.934361090E0
3.379508667E0,4.227648599E0,5.290706903E-2,-1.188603053E1,1.261560675E1
3.389478667E0,3.057354698E0,-8.744567142E0,-4.124953950E0,1.014051859E1
3.399448667E0,-1.650413163E-1,-5.420267168E0,3.102028595E0,6.247328727E0
3.409418667E0,2.174244602E0,3.305314649E0,5.724504231E0,6.958620065E0
3.419388667E0,1.058288877E0,4.252137907E0,3.793750114E0,5.795963428E0
3.429358667E0,3.686420231E-1,-1.368833477E0,6.035916996E-1,1.540754675E0
3.439328667E0,-8.097724903E-2,-3.334501903E0,-2.860761368E0,4.394248042E0
3.449297667E0,3.275845193E-1,-7.182409805E-1,-1.969755630E0,2.122055363E0
3.459267667E0,-6.392905591E-1,6.760582897E-1,5.394907209E0,5.474556697E0
3.469237667E0,7.612951988E-1,2.147736104E0,7.257991499E0,7.607284756E0
3.479207667E0,1.200937769E0,5.488679591E0,-1.939989794E0,5.944023518E0
3.489177667E0,-8.648077266E-1,6.004787589E0,-9.358642314E0,1.115300643E1
3.499147667E0,-1.772006012E0,5.497500116E0,-6.680050950E0,8.830945223E0
3.509117667E0,-2.217604191E0,6.753721189E-1,-1.930835978E0,3.016955986E0
3.519086667E0,-1.230429297E0,3.503917667E-1,4.277425945E0,4.464650419E0
3.529056667E0,-3.838017337E-2,-1.354042945E0,3.551481843E0,3.801043096E0
3.539026667E0,7.010799142E-1,5.389749965E-1,-1.097796028E0,1.409667766E0
3.548996667E0,4.136978895E-1,1.181388407E0,-5.741231360E0,5.876100922E0
3.558966667E0,-1.894426243E0,-4.640725148E0,1.136561898E0,5.139742566E0
3.568936667E0,-4.788557524E-1,-4.790340194E0,4.369992632E-1,4.834007692E0
3.578906667E0,-2.459819471E-1,-4.261054034E0,2.150392494E0,4.779254803E0
3.588875667E0,7.684825963E-1,-2.239102064E0,3.308126575E-1,2.390309722E0
3.598845667E0,2.939267401E-2,1.060278538E0,5.642252033E0,5.741085482E0
3.608815667E0,-4.379907682E-1,6.956069934E-1,4.466999109E0,4.542002426E0
3.618785667E0,-1.488804601E0,1.911005438E0,3.169616561E0,3.989354593E0
3.628755667E0,-1.051864102E0,9.946306783E-1,8.929288870E-1,1.700891023E0
3.638725667E0,-6.535457785E-1,-4.924416849E-1,-1.331841944E0,1.563145502E0
3.648695667E0,-9.814627486E-1,9.276055071E-1,-8.028359823E0,8.141147496E0
3.658665667E0,-1.444000457E0,5.229740909E-1,-8.349674263E0,8.489740839E0
3.668634667E0,-1.460623653E0,-1.300420469E0,-1.021146047E0,2.206185418E0
3.678604667E0,8.575187337E-1,-5.080760286E0,1.627355545E1,1.706979995E1
3.688574667E0,-6.552275839E-1,1.020684409E0,6.184440951E0,6.302255924E0
3.698544667E0,1.349833388E-2,2.323768577E0,-4.745708982E0,5.284111689E0
3.708514667E0,3.405416057E0,-1.516037715E0,-1.024805469E1,1.090494630E1
3.718484667E0,1.793177172E0,-3.569795322E-1,-5.547326580E0,5.840869023E0
3.728454667E0,1.427498664E-1,-2.475265257E0,4.819613110E0,5.419961821E0
3.738423667E0,-5.176948591E-1,7.618188170E-1,8.260861489E0,8.312051998E0
3.748393667E0,-7.925573373E-1,2.803898950E0,2.706321784E0,3.976703918E0
3.758363667E0,3.545414772E0,-5.473528871E-1,3.803091626E0,5.228103576E0
3.768333667E0,1.861878083E-1,-2.473458467E0,1.773786782E0,3.049423263E0
3.778303667E0,-1.259635555E0,-8.870781630E-2,-1.105295666E0,1.678162483E0
3.788273667E0,-2.281227891E0,2.986299918E0,-8.329782035E0,9.138230499E0
3.798243667E0,-4.991371854E-1,2.290412551E0,-1.098907700E1,1.123632239E1
3.808212667E0,6.184466971E-1,-1.597517788E-2,-9.949252610E0,9.968468239E0
3.818182667E0,8.943382122E-1,-3.716152884E0,-3.151200755E0,4.953756080E0
3.828152667E0,6.875581549E-1,-3.564847993E0,9.859394939E0,1.050659536E1
3.838122667E0,2.544056580E0,1.520614039E0,1.185863749E1,1.222341090E1
3.848092667E0,2.379359957E-2,4.195309988E-1,7.220975701E0,7.233191720E0
3.858062667E0,3.034084242E0,7.296608850E-1,-1.312957776E0,3.385547270E0
3.868032667E0,8.278929386E-1,4.423982313E0,-4.323220754E0,6.240774303E0
3.878001667E0,-1.140696610E0,6.642904758E0,-3.256588047E0,7.485635450E0
3.887971667E0,-4.187062855E-1,3.754070324E-1,-1.491214823E0,1.593727405E0
3.897941667E0,-1.265543289E0,-3.942849728E0,-2.525385543E0,4.850282047E0
3.907911667E0,2.097142778E0,-5.186451048E0,-1.815715996E0,5.881675516E0
3.917881667E0,1.188208161E0,-3.753694348E0,7.117443731E0,8.133883768E0
3.927851667E0,-8.112392644E-1,2.211271072E0,5.883787063E0,6.337726651E0
3.937821667E0,-1.535049499E0,4.782775359E0,-3.935161516E0,6.380972751E0
3.947791667E0,1.088396555E0,-1.357032041E0,-4.386304024E0,4.718665703E0
3.957760667E0,1.317569768E0,-4.402687630E0,-1.648400259E-1,4.598567244E0
3.967730667E0,1.320202476E0,-1.977462845E0,2.215962585E0,3.250197542E0
3.977700667E0,-1.087787349E0,-3.607647273E0,5.313546712E0,6.513998681E0
3.987670667E0,-9.903839917E-1,-3.228563511E-1,8.957533261E0,9.017898801E0
3.997640667E0,2.962296221E0,-7.396353579E-1,-1.620742929E-1,3.057536171E0
4.007610667E0,2.416232645E0,-2.018538365E0,-6.088058957E0,6.853987102E0
4.017580667E0,9.619866966E-1,1.645817252E0,-8.006005332E0,8.229839258E0
4.027549667E0,8.357108121E-1,-4.152941063E-1,-3.499029980E0,3.621338503E0
4.037519667E0,-8.797150567E-1,3.120494979E0,2.233133519E0,3.936784577E0
4.047489667E0,3.560651373E-1,-1.336965274E0,6.975495554E0,7.111385009E0
4.057459667E0,2.295699311E0,-5.412501481E-1,1.153767915E0,2.625712751E0
4.067429667E0,6.611710594E-1,3.890041476E-1,-6.212850818E0,6.260030885E0
4.077399667E0,6.943749851E-1,-7.110250486E0,-3.532059731E0,7.969520973E0
4.087369667E0,4.103758305E-1,-7.004562063E0,2.133028017E0,7.333628470E0
4.097339667E0,1.129251490E0,-3.394486734E0,1.928242738E0,4.063972093E0
4.107308667E0,4.485158295E-1,5.177468555E0,-1.122633246E0,5.316733254E0
4.117278667E0,1.635004434E0,4.752976486E0,5.599697167E-1,5.057429294E0
4.127248667E0,5.517859536E-1,2.324201856E0,-2.767446238E-1,2.404780571E0
4.137218667E0,-7.014331591E-1,-2.023467861E0,-3.462353904E0,4.071157724E0
4.147188667E0,-1.004126118E0,-3.193154235E0,1.700527017E0,3.754503345E0
4.157158667E0,-4.109663262E-1,-8.950639978E-1,8.072869998E0,8.132727887E0
4.167128667E0,-2.806107735E0,3.327650428E0,5.556674523E0,7.058620952E0
4.177097667E0,-2.962330135E0,9.587929181E0,6.669228923E-1,1.005726464E1
4.187067667E0,4.106219252E-1,5.707372473E0,-1.705372020E0,5.970846225E0
4.197037667E0,-1.668584701E0,-2.255440354E0,-8.935714960E-2,2.806986070E0
4.207007667E0,-1.085865076E0,5.539619949E-1,-5.453914971E0,5.588485069E0
4.216977667E0,-1.363243246E0,-1.961134787E0,-2.639898584E0,3.559992463E0
4.226947667E0,1.129185270E0,1.264432611E0,2.500020906E0,3.020588309E0
4.236917667E0,1.526793157E-1,3.817196279E0,1.343145781E0,4.049486263E0
4.246887667E0,3.547397563E-1,2.931182894E0,8.531982261E-1,3.073372849E0
4.256856667E0,-5.627333666E-1,-3.516975085E0,2.370379949E0,4.278373954E0
4.266826667E0,3.935289058E-1,-3.962223307E0,-2.612969232E0,4.762529448E0
4.276796667E0,-1.575628737E0,-2.360546979E0,-4.671774448E0,5.466284337E0
4.286766667E0,-1.140542609E0,1.293781832E0,-4.037355643E0,4.390324528E0
4.296736667E0,-4.221013617E-1,-1.633814380E-1,-1.059539450E0,1.152166177E0
4.306706667E0,-2.247421483E0,-3.849377892E0,3.322101420E-1,4.469784900E0
4.316676667E0,1.965084728E-1,-4.567328851E0,1.725795175E0,4.886458574E0
4.326645667E0,1.791789336E0,-8.333326033E-1,-1.178120983E0,2.300634978E0
4.336615667E0,-1.382532772E0,3.307995012E-1,1.977103241E0,2.435110347E0
4.346585667E0,1.231910397E0,1.973823245E0,6.076679106E0,6.506889455E0
4.356555667E0,4.039252918E-2,2.402348724E0,2.536823282E0,3.494049700E0
4.366525667E0,1.789931091E0,9.375881660E-1,-1.163127553E0,2.331478197E0
4.376495417E0,3.181941834E-1,-7.258008456E-1,1.106630586E0,1.361126614E0
4.386465417E0,-1.353240853E0,-4.746039057E0,5.352260542E-1,4.964132801E0
4.396435417E0,1.501806470E0,-6.744113045E0,-9.660477340E-2,6.909979444E0
4.406404417E0,1.389919413E0,9.960208538E-1,-2.002065589E0,2.632907165E0
4.416374417E0,4.868964779E-1,3.694671384E-1,-7.866645133E-1,9.962003830E-1
4.426344417E0,1.164066543E0,-4.058483680E0,3.642653384E0,5.576312793E0
4.436314417E0,1.141776957E0,-1.613789712E0,5.674636252E0,6.009115446E0
4.446284417E0,-4.226512923E-1,-1.801021651E0,5.502306527E0,5.804971165E0
4.456254417E0,-9.016907935E-1,-6.430095345E-2,6.904511526E0,6.963437392E0
4.466224417E0,-1.356064327E-2,2.095487139E0,-3.021800703E0,3.677299244E0
4.476193417E0,3.465285113E0,1.927169189E-1,-5.262576533E0,6.303971169E0
4.486163417E0,1.658344326E0,-2.421820244E0,-6.193663180E-1,2.999822301E0
4.496133417E0,-9.788193686E-1,4.631114665E-1,-7.857435769E-1,1.337891085E0
4.506103417E0,1.603785273E-1,2.571913007E0,-3.978578846E0,4.740205420E0
4.516073417E0,1.514262208E0,1.059254690E0,-1.825590774E0,2.597651287E0
4.526043417E0,9.287021524E-1,1.774378520E0,1.876213043E0,2.744281728E0
4.536013417E0,8.678364381E-3,3.078846139E0,-2.113266183E0,3.734335660E0
4.545982417E0,-5.820070319E-1,3.003778123E0,-4.605610279E0,5.529291206E0
4.555952417E0,1.261310928E0,3.769955162E0,-2.703687029E0,4.807638790E0
4.565922417E0,1.482346644E0,2.614590080E0,-2.693423996E0,4.035835190E0
4.575892417E0,-6.980349036E-1,-4.301094013E0,6.154451752E-1,4.400617592E0
4.585862417E0,6.907979509E-1,-2.669119167E0,2.284403660E0,3.580488656E0
4.595832417E0,8.799758425E-1,3.882727779E0,2.374587606E0,4.635579660E0
4.605802417E0,2.149677964E0,4.375111577E0,-2.781048616E0,5.612214185E0
4.615772417E0,3.162195567E0,1.434821936E-1,-4.302736203E0,5.341685762E0
4.625741417E0,3.510945436E0,-5.426800847E0,-8.758702201E-1,6.522580312E0
4.635711417E0,-1.606287442E0,-1.732247285E0,5.228264487E-1,2.419542829E0
4.645681417E0,-7.234572816E-1,-7.027540451E-1,2.748963189E-1,1.045381113E0
4.655651417E0,-6.827075972E-1,-2.853160280E0,2.744814590E0,4.017539095E0
4.665621417E0,-2.265039216E-1,-4.410567631E0,4.127564147E0,6.044931483E0
4.675591417E0,1.259359859E0,-2.365706854E0,3.633373268E0,4.514859630E0
4.685561417E0,-1.177863998E0,-2.529896962E0,-1.364329659E0,3.106306111E0
4.695530417E0,1.464501818E0,3.502075794E-1,2.215100706E0,2.678447696E0
4.705500417E0,2.404486027E0,9.208385244E-1,3.672513945E0,4.485181748E0
4.715470417E0,-2.198742827E0,-4.411146213E0,5.620466477E0,7.475448103E0
4.725440417E0,6.090969628E-1,-2.478688509E0,1.152185658E0,2.800433471E0
4.735410417E0,2.357651145E0,-1.721811759E0,1.030423239E0,3.095953280E0
4.745380417E0,9.561384577E-1,-1.345201662E-1,6.533506862E0,6.604468816E0
4.755350417E0,-5.995232069E-1,-1.301948931E0,2.249065427E0,2.666982263E0
4.765320417E0,1.646334730E0,-1.435006124E0,-3.061316772E0,3.760494781E0
4.775289417E0,5.577038110E-1,3.669361711E-2,1.350793355E0,1.461855892E0
4.785259417E0,5.545497863E-1,9.108900717E-1,8.212010341E0,8.280963714E0
4.795229417E0,1.908530093E-1,-1.794387692E0,6.623603100E0,6.865010567E0
4.805199417E0,9.240859218E-1,4.746317677E0,-5.028536464E0,6.976219983E0
4.815169417E0,-8.456468394E-1,3.635680871E0,-1.327463900E1,1.378946462E1
4.825139417E0,-2.948083906E-1,-5.041069386E0,-1.021541553E1,1.139535023E1
4.835109417E0,-9.483736476E-1,-3.930780490E0,-6.100766711E0,7.319139450E0
4.845078417E0,-5.559627660E-2,-1.135313810E0,2.777589988E0,3.001172193E0
4.855048417E0,-2.203186638E-1,5.113781852E0,5.416772287E0,7.452565139E0
4.865018417E0,6.466970079E-1,5.748263222E0,4.800932425E0,7.517293345E0
4.874988417E0,4.383383925E0,2.913523426E0,2.789770907E0,5.956970295E0
4.884958417E0,-1.296100400E0,1.271906814E0,-4.259488442E0,4.630428163E0
4.894928417E0,-9.236864108E-1,5.596105222E0,-1.101552045E1,1.238996695E1
4.904898417E0,-3.056275302E0,3.159337741E0,-1.016565455E1,1.107532240E1
4.914867417E0,-2.267608995E0,1.194577679E0,-7.317641870E0,7.753512038E0
4.924837417E0,-3.033450330E-1,5.718907276E-1,-7.630587190E-1,1.000667688E0
4.934807417E0,-3.189988260E0,-1.277593816E0,1.005891831E1,1.062968055E1
4.944777417E0,-1.002777019E0,9.515159413E-1,1.245051371E1,1.252702024E1
4.954747417E0,-1.006692899E0,2.456443070E0,2.283949916E0,3.501995198E0
4.964717417E0,-8.332726693E-1,-2.850498335E0,-4.231221247E0,5.169421374E0
4.974687417E0,-4.025303947E0,-1.603438971E0,-3.514124567E0,5.578813482E0
4.984656417E0,-2.234444026E-1,-2.288199380E0,-1.916036090E0,2.992821094E0
4.994626417E0,-2.862127862E0,-7.090829544E0,-6.954982352E-1,7.678239207E0
5.004596417E0,-1.847249153E0,-5.664091383E0,3.920285615E0,7.131823044E0
5.014566417E0,8.092775966E-1,-3.318463575E0,2.039442161E0,3.978247737E0
5.024536417E0,-3.813037739E0,-6.549218330E0,9.559186023E-1,7.638409384E0
5.034506417E0,-5.152218889E-1,-1.126083688E0,4.314713640E0,4.488905419E0
5.044476417E0,-4.320607779E-1,7.570507050E-2,7.826400502E0,7.838683091E0
5.054446417E0,-2.161735653E0,1.619868770E-1,6.880029234E0,7.213469556E0
5.064415417E0,-4.197492461E0,-2.599318323E-1,-2.239899917E0,4.764835690E0
5.074385417E0,6.294116883E-1,-2.464265767E0,-5.304670054E-1,2.598107020E0
5.084355417E0,1.236224911E0,-4.515543863E0,8.908828878E0,1.006407573E1
5.094325417E0,-1.166965811E0,-2.486351578E0,1.391864197E0,3.079129636E0
5.104295417E0,2.484597596E-1,-1.698100130E0,-2.339930574E0,2.901818636E0
5.114265417E0,1.120069972E0,2.409072437E0,-8.365426077E0,8.777160145E0
5.124235417E0,-2.564833784E0,8.222071061E-1,-3.048800222E0,4.068117458E0
5.134204417E0,-4.630543099E-1,2.022830806E0,4.723842149E0,5.159549246E0
5.144174417E0,-1.450903534E0,4.113873769E0,-4.581006950E-1,4.386221004E0
5.154144417E0,-9.674333780E-1,3.443954763E0,-8.127363124E0,8.879796343E0
5.164114417E0,-1.056122995E0,-3.444135442E0,-1.416864552E0,3.871042480E0
5.174084417E0,1.300982459E-1,-3.883374189E0,5.506322980E0,6.739222018E0
5.184054417E0,1.018748543E0,-1.901896646E0,6.587928652E0,6.932233649E0
5.194024417E0,-3.607092518E-1,4.691794145E0,-4.119186841E0,6.253858305E0
5.203993417E0,1.486896070E0,9.091233940E0,-9.275088526E0,1.307243901E1
5.213963417E0,6.846096233E-1,3.182487452E0,-9.363996609E0,9.913695034E0
5.223933417E0,1.371296031E0,3.497661147E-1,-2.080964409E0,2.516585388E0
5.233903417E0,-4.732283190E-1,2.958951321E0,3.925572667E0,4.938568490E0
5.243873417E0,3.678452961E0,4.475749759E0,2.466346791E0,6.296524326E0
5.253843417E0,3.247883881E0,5.339870877E0,-8.281461230E0,1.037523835E1
5.263813417E0,2.932755210E0,1.570603347E0,-8.276284690E0,8.919906741E0
5.273782417E0,3.707924975E0,-6.031373709E-1,2.475126386E0,4.498747929E0
5.283752417E0,3.593458712E0,7.987536317E-1,8.459656296E0,9.225873267E0
5.293722417E0,5.079435892E0,-2.375168819E0,8.275867199E0,9.996603112E0
5.303692417E0,3.208210523E0,-6.334926063E0,5.684943724E-1,7.123699098E0
5.313662417E0,5.000416034E-1,-4.077503503E0,-1.934898039E0,4.540914758E0
5.323632417E0,9.841154111E-1,-5.268809665E0,-2.728228962E-1,5.366867872E0
5.333602417E0,-8.786769567E-1,-4.802127889E0,5.687058077E0,7.495007340E0
5.343571417E0,1.011248904E-1,-4.142567518E0,2.260794357E0,4.720411318E0
5.353541417E0,2.325702544E0,-5.757521703E0,-3.333151488E0,7.047541935E0
5.363511417E0,-9.409582087E-1,-5.138855882E0,4.550408471E-1,5.244073254E0
5.373481208E0,-1.404937694E0,-7.276199144E-1,3.648884761E0,3.977139759E0
5.383451208E0,-1.355676364E0,-1.264843670E0,-1.237358540E-1,1.858224549E0
5.393421208E0,-1.106803079E0,-7.535265881E-1,-2.308202997E0,2.668448322E0
5.403391208E0,-3.033240488E0,-5.298518783E0,4.892507424E0,7.823776457E0
5.413360208E0,-1.864876462E0,-3.108234245E0,1.188295723E1,1.242350824E1
5.423330208E0,-3.920200245E0,1.457270567E0,7.552352614E0,8.633054933E0
5.433300208E0,-3.154284577E0,6.862547228E0,-1.157082117E-1,7.553638464E0
5.443270208E0,-2.674313249E0,7.561388317E-1,-1.485949405E0,3.151466789E0
5.453240208E0,-1.593518147E0,-4.732123561E0,-2.052014844E0,5.398431106E0
5.463210208E0,3.494717804E-1,-3.568095537E0,-3.334567099E0,4.896199958E0
5.473180208E0,-4.016431236E-1,2.335525866E0,-4.933192935E0,5.472877744E0
5.483149208E0,3.790108468E0,4.994472340E0,-4.613106995E0,7.783985630E0
5.493119208E0,3.713569877E0,2.533555565E0,-3.358155352E-1,4.508023636E0
5.503089208E0,2.487423080E0,7.112289995E-2,1.395236287E0,2.852896132E0
5.513059208E0,1.443435762E0,4.763899085E-1,1.712200398E0,2.289559859E0
5.523029208E0,8.705543701E-1,1.576729475E0,1.234006332E0,2.183280187E0
5.532999208E0,1.344245642E0,3.172057481E0,-7.378327782E0,8.143013316E0
5.542969208E0,2.263552927E0,2.593073496E0,-8.574928306E0,9.239972806E0
5.552938208E0,1.323799391E-1,1.676696690E0,-4.251573651E0,4.572167401E0
5.562908208E0,4.930417554E-1,2.384341054E0,-2.846639757E0,3.745868436E0
5.572878208E0,-6.795900811E-1,1.662075727E0,9.998686141E-1,2.055255616E0
5.582848208E0,-1.652055646E0,3.325378492E0,3.572749336E0,5.152860156E0
5.592818208E0,-2.114796691E0,2.833420372E0,7.830484782E0,8.591689472E0
5.602788208E0,1.149423653E0,7.562474145E0,-5.192479527E-1,7.666929526E0
5.612758208E0,1.332542586E0,1.759402924E0,1.645938581E-1,2.213201195E0
5.622727208E0,-2.069064741E0,2.855340999E0,-3.246457745E0,4.793066765E0
5.632697208E0,1.144122933E0,-3.433163727E0,-5.982924850E0,6.992211397E0
5.642667208E0,-2.203623060E0,-7.886040348E0,-2.179313407E0,8.473192662E0
5.652637208E0,-7.217202931E-1,-6.833316997E0,4.538110022E0,8.234655059E0
5.662607208E0,2.408960170E0,-7.505228734E-1,4.718907684E0,5.351117960E0
5.672577208E0,1.782444170E0,-1.487038742E0,2.293144078E0,3.262958964E0
5.682547208E0,1.888798590E0,-4.000371712E0,-4.440188456E-1,4.446086670E0
5.692517208E0,1.251590663E0,-4.141406553E0,4.215431426E0,6.040495802E0
5.702486208E0,1.268360185E0,-2.877387633E0,1.970597629E0,3.710977252E0
5.712456208E0,-2.017694612E0,-3.500540023E0,-1.894668610E0,4.462582340E0
5.722426208E0,-3.169278300E0,3.197889018E-1,1.928645611E0,3.723743248E0
5.732396208E0,1.070383257E-1,-5.115771074E0,2.895252339E0,5.879205473E0
5.742366208E0,-7.659498748E-1,-4.179831823E0,7.397152308E0,8.530857844E0
5.752336208E0,1.024894112E0,2.501241805E0,-6.351017600E-1,2.776683769E0
5.762306208E0,1.151955643E0,3.490610282E0,-3.382424805E0,4.995213660E0
5.772275208E0,-2.083950582E-1,-1.652710826E0,-7.011305072E0,7.206474894E0
5.782245208E0,1.167002210E0,-2.542078759E0,-2.228627654E0,3.576428358E0
5.792215208E0,-1.230703239E0,1.604695246E-1,7.595377012E0,7.696111543E0
5.802185208E0,-1.828186060E0,3.690224576E-1,7.699072704E0,7.921752479E0
5.812155208E0,-1.928669292E0,4.557889983E-1,1.458131862E-1,1.987151311E0
5.822125208E0,-1.191011609E0,-1.041715967E0,-6.701749967E0,6.886009979E0
5.832094208E0,3.358686718E-1,-4.128492977E0,-8.050205605E0,9.053345918E0
5.842064208E0,2.442425832E0,-1.020729433E0,-1.656571743E0,3.122749183E0
5.852034208E0,-8.321517581E-1,3.546218764E0,-1.849500039E0,4.085192096E0
5.862004208E0,7.298561820E-1,2.475439796E0,1.102167406E0,2.806290296E0
5.871974208E0,-1.710552653E0,-1.113208119E0,7.760050392E0,8.023939480E0
5.881944208E0,-2.401586247E0,1.605008949E0,2.857540137E0,4.063152207E0
5.891914208E0,3.010619658E0,1.559425225E0,-3.555349776E0,4.912855563E0
5.901883208E0,-4.490137564E-1,2.840089121E0,-4.638420761E0,5.457349789E0
5.911853208E0,3.897472191E-1,1.930716110E0,1.821128179E0,2.682550174E0
5.921823208E0,2.391611043E0,4.794585857E0,-1.262826673E0,5.504778663E0
5.931793208E0,-2.051703626E0,5.444223211E0,-4.347610075E0,7.262972360E0
5.941763208E0,2.593791607E-1,6.837145754E0,-7.806463251E0,1.038049652E1
5.951733208E0,3.099096217E0,-2.409609504E0,-3.139049656E0,5.026355346E0
5.961703208E0,1.525619840E0,-6.383923391E0,-2.467269482E0,7.012090448E0
5.971673208E0,-5.565937171E-1,-2.985238941E0,4.684481617E0,5.582635231E0
5.981642208E0,-1.920872907E0,2.806328468E0,6.984670420E0,7.768581149E0
5.991612208E0,-1.147250462E0,3.709802223E0,6.702384975E0,7.746017074E0
6.001582208E0,-7.722005484E-1,-1.205611375E0,3.833835701E0,4.092442871E0
6.011552208E0,-5.508947283E-1,-7.511192894E0,1.113770036E0,7.613277046E0
6.021522208E0,-1.149114408E0,-4.365433850E0,1.412561586E0,4.729990154E0
6.031492208E0,-1.663710024E0,-1.954354941E0,1.606191548E0,3.027752560E0
6.041462208E0,4.460397164E-1,1.005256239E-1,1.801024282E-1,4.914200996E-1
6.051431208E0,1.610978371E0,1.390771937E0,-2.912095828E0,3.606910036E0
6.061401208E0,1.181830018E0,-9.137446824E-1,-3.864534752E0,4.143221016E0
6.071371208E0,-1.176026218E0,-2.555303407E0,1.659227548E0,3.265830556E0
6.081341208E0,6.355824742E-2,5.619647866E-1,2.261474388E0,2.331117861E0
6.091311208E0,-3.408596723E-1,-2.275010692E0,-4.705277240E0,5.237508269E0
6.101281208E0,-3.049671603E-1,-4.320639500E0,-1.154235692E0,4.482542882E0
6.111250208E0,-1.884827673E-1,-2.512355315E0,1.053892209E0,2.730960229E0
6.121220208E0,-7.727108641E-1,-1.715109681E0,4.400965333E0,4.786144498E0
6.131190208E0,-2.714920700E0,-7.865113163E-1,8.339289023E0,8.805290221E0
6.141160208E0,-1.634919065E0,6.649365932E-2,6.929640520E0,7.120203613E0
6.151130208E0,7.040487649E-1,1.341236665E0,-4.474986405E0,4.724415708E0
6.161100208E0,3.772763872E0,-1.617863760E0,-6.683696104E0,7.843661390E0
6.171070208E0,3.034779476E0,4.740676868E-1,-6.013267806E0,6.752334141E0
6.181039208E0,3.034163471E0,2.560850953E0,-1.373443714E0,4.201244245E0
6.191009208E0,3.284074930E0,2.302112537E0,-2.039817553E0,4.499525078E0
6.200979208E0,2.804297437E0,-5.373584753E0,-4.215304542E-1,6.075951377E0
6.210949208E0,1.890465339E0,4.929439607E-1,4.047601719E0,4.494433515E0
6.220919208E0,2.097106817E-1,6.340989625E0,7.193165758E0,9.591337843E0
6.230889208E0,-2.527747818E0,3.020383338E0,-4.652268721E0,6.095558120E0
6.240859208E0,-1.161692208E0,-3.594631079E0,-1.412557143E1,1.462199266E1
6.250829208E0,-1.014913938E0,-4.196487032E0,-7.815725241E0,8.928948132E0
6.260798208E0,-1.930836270E0,-1.196468669E0,4.556347488E0,5.091165722E0
6.270768208E0,-1.357346914E0,5.257930335E-1,3.894988806E0,4.158098935E0
6.280738208E0,2.981547155E-1,8.710000741E0,2.287371706E0,9.010276271E0
6.290708208E0,-1.191588802E0,1.910077193E0,1.060482021E0,2.488553972E0
6.300678208E0,4.276788745E-1,-4.196176837E0,6.437017863E0,7.695843569E0
6.310648208E0,-1.991786038E-1,-1.642020947E-1,7.559308462E0,7.563714621E0
6.320617208E0,2.526515810E0,7.595694516E0,-1.613724516E0,8.165902530E0
6.330587208E0,2.826210170E0,3.004498792E0,-1.202525741E1,1.271303633E1
6.340557208E0,-6.841999528E-1,-7.422466074E0,5.879012811E-1,7.477082326E0
6.350527208E0,7.958385754E-1,-1.139697526E1,1.527794653E1,1.907721296E1
6.360497208E0,1.101067837E0,4.181197733E0,-3.812247781E0,5.764373166E0
6.370467208E0,7.387927741E0,2.440810246E0,-7.627118622E0,1.089550226E1
6.380437167E0,2.702506768E0,-7.168167742E0,9.777938547E0,1.242152381E1
6.390406167E0,7.743287887E-1,-5.808064451E0,8.338901938E0,1.019168697E1
6.400376167E0,-1.405234148E0,2.769193971E0,-3.964097632E0,5.035592149E0
6.410346167E0,-1.812890768E0,4.978686612E0,-3.059622248E0,6.118429669E0
6.420316167E0,-2.218212740E0,7.414602739E-1,-8.942310619E-1,2.503972901E0
6.430286167E0,-1.761381329E0,-2.912667101E0,2.813034639E0,4.415796385E0
6.440256167E0,1.810631842E0,-3.419016096E0,-1.694649396E0,4.223730023E0
6.450226167E0,1.198651215E0,4.125274962E-1,-6.832206611E0,6.948812190E0
6.460196167E0,-1.123011780E0,4.227776068E0,-6.444544399E0,7.788927940E0
6.470165167E0,-5.885148295E0,-9.225157982E-1,-3.361737941E0,6.840123378E0
6.480135167E0,-3.332594980E-2,-6.230914621E0,-1.785887010E0,6.481882447E0
6.490105167E0,-3.221031128E0,-2.820766997E0,-1.063015620E0,4.411549636E0
6.500075167E0,6.288848542E-1,7.091355793E0,2.512378412E0,7.549494581E0
6.510045167E0,1.096176641E0,1.733781010E0,5.972244326E0,6.314689391E0
6.520015167E0,5.255736168E-1,-7.444271511E0,4.862669667E0,8.907242123E0
6.529985167E0,3.309943597E-1,-7.945209492E0,4.518927646E0,9.146399194E0
6.539954167E0,1.553920656E0,-1.897231152E0,7.316572414E0,7.716630569E0
6.549924167E0,-8.635660703E-1,1.094058721E1,-4.961820318E0,1.204416273E1
6.559894167E0,1.067002982E0,8.941537617E0,-7.933857123E0,1.200148654E1
6.569864167E0,-1.757896535E0,-4.210123616E0,-2.408871585E-1,4.568738088E0
6.579834167E0,2.363388726E0,-3.240010313E0,6.301826729E0,7.469691642E0
6.589804167E0,1.211165426E0,7.304193274E0,1.059820116E0,7.479397018E0
6.599774167E0,2.097839912E-1,7.538597624E0,-9.689867200E0,1.227876174E1
6.609743167E0,2.549996181E0,-1.569289478E0,-5.988969702E0,6.695738053E0
6.619713167E0,-2.089941785E0,-3.765857141E0,2.778469993E0,5.125371419E0
6.629683167E0,-4.223603202E-1,2.278422543E0,1.217441287E1,1.239297891E1
6.639653167E0,2.170490251E0,6.089375750E0,3.210801424E0,7.218086363E0
6.649623167E0,6.209388535E-2,3.103128456E0,-8.962573560E0,9.484776576E0
6.659593167E0,4.687774184E0,-4.241557370E0,-1.311475039E1,1.455893930E1
6.669563167E0,7.060375491E-1,-7.376669512E0,-1.299547772E0,7.523467719E0
6.679532167E0,2.061766685E0,-6.076601923E-1,1.161772753E1,1.181489423E1
6.689502167E0,-3.106845239E0,2.416701299E0,1.011254195E1,1.085156382E1
6.699472167E0,-6.610624620E0,1.295576051E0,3.037363653E0,7.389482602E0
6.709442167E0,3.258877670E-1,-9.822883755E-1,-3.845407925E0,3.982242509E0
6.719412167E0,-1.627651414E-1,-1.392806768E-2,-5.960536446E0,5.962774623E0
6.729382167E0,1.147352204E0,-3.537185401E-1,-4.915965868E0,5.060459890E0
6.739352167E0,2.582265284E-1,-2.482215258E0,-3.506027343E0,4.303521959E0
6.749321167E0,-6.297176439E-1,-5.925321590E0,-1.564809049E0,6.160731094E0
6.759291167E0,-1.774797181E0,-5.347786837E0,5.275243941E0,7.718609183E0
6.769261167E0,1.537316318E0,-1.196798744E0,8.927797245E0,9.137900872E0
6.779231167E0,-4.537058912E-1,2.711881025E0,7.834718751E0,8.303190088E0
6.789201167E0,1.306527008E0,3.151637542E0,-3.352592896E0,4.783274103E0
6.799171167E0,5.223256347E-1,-7.369892589E0,-4.386422138E0,8.592371036E0
6.809141167E0,-2.818843994E-2,-3.567037483E0,-7.201898575E-1,3.639124129E0
6.819110167E0,1.262271772E0,3.808941765E0,3.355816466E0,5.230953216E0
6.829080167E0,-1.840680391E0,3.237342521E0,1.796965730E0,4.134921611E0
6.839050167E0,1.204319872E0,-3.744247878E0,-4.174707323E0,5.735674308E0
6.849020167E0,1.621834897E0,-8.196438037E0,5.520256895E-1,8.373570163E0
6.858990167E0,-6.049949217E-1,-3.666390156E0,7.975479358E-1,3.800594472E0
6.868960167E0,4.169346523E-1,3.916086437E0,1.340821513E0,4.160212713E0
6.878930167E0,-2.458051347E0,5.658231304E0,5.329630648E0,8.152457344E0
6.888899167E0,-3.011915985E0,2.052830239E0,3.937799195E0,5.365818893E0
6.898869167E0,-1.697167499E0,9.779310304E-1,-2.239232749E0,2.975044525E0
6.908839167E0,-8.085464023E-1,-2.779611955E0,-1.245805896E1,1.278996571E1
6.918809167E0,-1.652146716E0,-3.262890760E0,-3.382751665E0,4.981872510E0
6.928779167E0,-2.181187440E0,-1.776042053E0,4.109827788E0,4.980219721E0
6.938749167E0,3.959447926E0,4.274311134E0,1.890645141E0,6.125479785E0
6.948719167E0,1.625019875E0,4.769116263E0,1.585387155E0,5.281913664E0
6.958688167E0,-3.354135757E-1,7.693341848E0,-3.301049690E0,8.378361421E0
6.968658167E0,-3.018747580E0,3.164639996E0,-4.076996257E0,5.979103756E0
6.978628167E0,-1.756246597E0,-2.846785060E0,-1.644652194E-1,3.348975380E0
6.988598167E0,-4.195700582E0,-4.011560943E0,-1.762315714E-1,5.807545277E0
6.998568167E0,-1.737575268E0,1.306593374E0,-1.878476501E-1,2.182118420E0
7.008538167E0,4.309647904E-1,1.514336760E0,4.064430590E0,4.358731753E0
7.018508167E0,1.864677802E0,3.876878517E0,-6.504518706E-1,4.350896227E0
7.028478167E0,3.031555613E0,-1.628813256E0,-4.100026685E-1,3.465755942E0
7.038447167E0,3.374957911E0,-5.463902600E0,8.447156703E-1,6.477508555E0
7.048417167E0,8.662774242E-1,-3.969453974E0,5.396583606E0,6.755006739E0
7.058387167E0,3.938112898E0,1.420847676E0,4.607729310E0,6.225649421E0
7.068357167E0,1.170347549E0,6.638716983E0,-1.850052601E0,6.990348431E0
7.078327167E0,1.605936317E0,-2.789716236E0,-1.796603202E0,3.686371006E0
7.088297167E0,3.314455455E-1,-3.682021517E0,-3.983208087E0,5.434435138E0
7.098267167E0,-1.327009805E0,-3.222468958E0,-7.096169221E-1,3.556517593E0
7.108236167E0,-3.979584568E0,-6.192400181E-1,5.645325914E0,6.934713852E0
7.118206167E0,-1.597037293E0,-6.890259522E-1,1.532283912E0,2.318011835E0
7.128176167E0,3.784023051E-1,-1.974031699E-1,2.796982278E0,2.829357910E0
7.138146167E0,1.374083253E-1,-6.710308537E-1,3.288767028E0,3.359338033E0
7.148116167E0,2.161298720E0,-1.906123306E0,2.582226911E0,3.869420375E0
7.158086167E0,1.953452058E-1,1.655232438E0,-4.796113150E0,5.077465462E0
7.168056167E0,-1.224983639E-1,-2.043202798E0,-5.050940071E0,5.449924690E0
7.178025167E0,1.094913058E-1,-4.577789812E0,-1.653342326E0,4.868438020E0
7.187995167E0,1.390821639E0,-3.051344345E0,2.650570337E0,4.274413440E0
7.197965167E0,-5.920577744E0,4.905430355E0,7.811137515E-1,7.728300362E0
7.207935167E0,-2.110594151E-1,4.648416576E-1,-4.494878633E0,4.523776936E0
7.217905167E0,7.459331015E-1,-6.823827551E0,-1.115540573E0,6.954528698E0
7.227875167E0,3.364304795E-1,-6.174623476E0,5.807998962E0,8.483632034E0
7.237845167E0,2.272721215E0,8.915118143E-1,8.308636749E0,8.659878733E0
7.247814167E0,1.339293051E-1,5.198815570E0,-3.944628158E0,6.527305087E0
7.257784167E0,2.583460674E0,2.008609793E0,-4.361039960E0,5.452288683E0
7.267754167E0,1.525620425E0,-1.360127557E0,6.116053087E-1,2.133430502E0
7.277724167E0,2.961524973E0,-1.866616301E0,3.424399043E0,4.897080292E0
7.287694167E0,3.929053515E0,1.437947858E0,5.134960467E0,6.623667757E0
7.297664167E0,-1.633785436E0,8.286849439E0,-2.127574319E0,8.710206712E0
7.307634167E0,-1.630055789E0,6.480269133E0,-4.831741989E0,8.246011191E0
7.317604167E0,2.789929074E0,-4.682520461E-1,-5.158671511E0,5.883439128E0
7.327573167E0,6.729059096E-1,-1.584957384E0,-4.174482206E0,4.515660966E0
7.337543167E0,-2.860048300E0,1.213487282E-1,-5.688247401E-1,2.918589278E0
7.347513167E0,-1.487194716E-1,-2.552612226E0,8.039604018E0,8.436419823E0
7.357483167E0,6.876111453E-1,-1.597035101E0,-1.003942954E0,2.007792732E0
7.367453167E0,1.493122185E0,1.090742239E0,-4.803339139E0,5.146960207E0
7.377423042E0,3.493254173E-1,-3.202769981E0,2.711524637E0,4.210953533E0
7.387393042E0,4.152522987E0,-2.850124990E0,1.165526081E0,5.169633513E0
7.397362042E0,-1.875855925E0,-2.513022775E0,-3.796674306E0,4.924312613E0
7.407332042E0,3.102063752E-1,-1.243720896E0,-3.443935175E0,3.674746134E0
7.417302042E0,-2.339286211E0,-1.994340833E0,1.952060786E0,3.641455292E0
7.427272042E0,-1.566110054E0,-1.430899624E0,9.106126798E0,9.349958272E0
7.437242042E0,2.967601984E0,-2.115306276E0,1.177929779E1,1.233016783E1
7.447212042E0,-7.097660261E-1,2.457270159E0,2.211568403E0,3.381268881E0
7.457182042E0,-2.786202644E0,5.554898724E-1,-6.151832784E0,6.776174494E0
7.467151042E0,8.021318606E-1,-1.456016631E0,-6.946545990E0,7.142681649E0
7.477121042E0,8.451048756E-1,-5.898080581E-1,-5.196362663E0,5.297571210E0
7.487091042E0,1.024043123E0,-4.878669696E0,-3.634904069E-1,4.998220443E0
7.497061042E0,2.123132482E0,-4.600691602E0,4.649146893E0,6.876672275E0
7.507031042E0,2.117956819E0,-1.775485398E0,1.192858072E1,1.224455501E1
7.517001042E0,7.471511496E-1,1.151465281E0,3.750971884E0,3.994232994E0
7.526971042E0,-1.555405410E0,1.828480175E0,-1.826143920E-2,2.400616426E0
7.536940042E0,8.296153821E-1,3.513907343E0,-5.633713928E0,6.691377969E0
7.546910042E0,1.910821836E0,2.006454509E-1,-9.377930524E0,9.572725819E0
7.556880042E0,2.112399918E0,-1.339728376E0,-1.230869534E1,1.256029803E1
7.566850042E0,7.301774865E-1,-1.066079853E0,-2.766081498E0,3.053013637E0
7.576820042E0,-2.392972275E0,-2.852856809E0,1.065292759E1,1.128494460E1
7.586790042E0,-2.296287687E0,2.081590646E0,1.229142735E1,1.267616436E1
7.596760042E0,-6.643625428E-1,4.157673799E0,1.907778652E0,4.622472109E0
7.606730042E0,-3.746158164E0,5.178462582E0,-1.071277501E1,1.247452300E1
7.616699042E0,-3.235686882E0,6.458729160E0,-1.035207782E1,1.262340553E1
7.626669042E0,-3.145294775E0,2.432502522E0,-4.965202348E0,6.361067685E0
7.636639042E0,-3.705321502E0,4.835735053E-2,7.573309035E0,8.431296200E0
7.646609042E0,6.690688936E-1,-1.463739341E0,1.800679530E1,1.807857470E1
7.656579042E0,1.344924066E0,3.111040324E0,-3.114338154E-1,3.403583944E0
7.666549042E0,-2.128084635E0,3.250945776E0,-1.458206940E1,1.509086282E1
7.676519042E0,-4.197530760E0,3.207054529E-1,-1.193817834E1,1.265868155E1
7.686488042E0,-9.784401767E-1,-1.002047988E1,1.107970768E1,1.497088122E1
7.696458042E0,-8.669145880E-2,8.803892407E-1,1.320731883E1,1.323691321E1
7.706428042E0,-2.147930450E-1,4.230362291E0,4.592275704E0,6.247487280E0
7.716398042E0,1.628095218E0,-1.949191265E0,-2.795364354E0,3.776784677E0
7.726368042E0,-4.564842688E-2,-7.506793449E0,-3.892522450E0,8.456108011E0
7.736338042E0,9.716129677E-1,-5.325635830E0,-1.450753260E0,5.604561872E0
7.746308042E0,-3.570685196E-1,-2.176711396E0,-1.741429460E0,2.810364210E0
7.756277042E0,-7.970436135E-1,-3.993937728E-1,7.010112825E0,7.066574540E0
7.766247042E0,-2.456922542E0,2.074229001E0,6.387485515E0,7.151144351E0
7.776217042E0,-2.174732260E0,-7.505065012E-1,-6.459126770E-2,2.301497869E0
7.786187042E0,1.310123192E0,1.442719478E0,-4.963843455E0,5.332692014E0
7.796157042E0,1.617934657E0,-1.124652582E0,-5.698064291E0,6.029136974E0
7.806127042E0,2.537414143E0,-5.525059798E0,4.066756028E-1,6.093450693E0
7.816097042E0,9.200443263E-1,-5.685885125E0,3.737269519E0,6.866072726E0
7.826067042E0,-1.187901475E0,2.305350433E0,5.770970299E0,6.326914629E0
7.836036042E0,1.706591018E0,1.046912738E1,4.530006366E0,1.153412497E1
7.846006042E0,3.508061589E0,5.012578243E0,3.573721143E0,7.085472430E0
7.855976042E0,4.553274337E-2,-5.368176663E0,-4.332593840E0,6.898605895E0
7.865946042E0,1.424730227E0,-7.691655511E0,-1.445982400E1,1.644013172E1
7.875916042E0,1.620783129E0,-9.299824002E-1,-1.090094777E1,1.105994880E1
7.885886042E0,2.539668537E0,3.839670930E0,4.241857917E0,6.259899976E0
7.895856042E0,2.104940186E0,2.693933873E0,9.980173856E0,1.054949871E1
7.905825042E0,1.120468241E0,-2.692258061E0,3.730720053E0,4.735184754E0
7.915795042E0,1.950509520E0,-1.749311799E0,-4.562645524E0,5.261398420E0
7.925765042E0,4.204291311E0,-3.149325261E0,-5.918317210E0,7.913330122E0
7.935735042E0,2.076974708E0,-1.609142930E0,-3.123908876E0,4.081907835E0
7.945705042E0,-2.955523391E-1,-1.210794640E-1,8.304068320E0,8.310208306E0
7.955675042E0,1.309093278E-1,5.558625154E0,1.061707480E1,1.198489584E1
7.965645042E0,-1.294018645E0,7.061935528E0,1.912482153E0,7.429872518E0
7.975614042E0,1.183311995E0,3.055115215E0,-5.672011437E0,6.550241980E0
7.985584042E0,3.797500226E0,-3.327291993E0,-7.200448465E-1,5.100033780E0
7.995554042E0,-1.580382231E0,-2.215978665E0,5.052070338E-1,2.768285315E0
8.005524042E0,-1.567379923E0,4.447194297E0,-1.397882152E0,4.918159356E0
8.015494042E0,3.921428599E-1,5.187055065E0,-2.170458384E0,5.636506530E0
8.025464042E0,6.856737435E-2,-1.541238338E-1,-1.250687853E0,1.262012578E0
8.035434042E0,-1.211633423E0,-6.091424614E0,-1.856890919E0,6.482403356E0
8.045403042E0,1.499644169E0,-5.130030679E0,2.448854846E0,5.879033718E0
8.055373042E0,4.313929528E-3,-1.618147935E0,-3.248748685E0,3.629433752E0
8.065343042E0,-7.720119026E-1,-1.397781872E0,-3.788679408E0,4.111433837E0
8.075313042E0,-1.902694206E0,-2.626065241E0,-1.467651129E-4,3.242909791E0
8.085283042E0,-1.185612436E0,-3.722775148E0,9.024734725E0,9.834153167E0
8.095253042E0,-1.256390643E0,-9.262702954E-1,1.018159289E1,1.030054989E1
8.105223042E0,4.307294035E-1,2.912983728E0,1.482140529E-1,2.948384205E0
8.115193042E0,7.014663421E-1,1.806112821E0,-4.113028554E0,4.546548409E0
8.125162042E0,3.356792220E-1,-3.125576210E0,-6.535983742E0,7.252654043E0
8.135132042E0,-1.705367635E0,8.071516952E-1,-1.865964044E0,2.653600279E0
8.145102042E0,-2.027363787E-1,1.892712424E0,-2.697472023E0,3.301487192E0
8.155072042E0,-1.601333462E-1,-3.422893385E0,1.026316155E0,3.577033221E0
8.165042042E0,1.924527709E-1,-6.346638036E0,7.290418988E0,9.667836441E0
8.175012042E0,6.108072003E-1,-3.623679461E0,7.098121022E0,7.992963175E0
8.184982042E0,1.733551068E-1,1.526313320E0,4.012886215E0,4.296852350E0
8.194951042E0,-1.465001317E0,8.836870703E-1,-1.035740113E0,1.999972319E0
8.204921042E0,-1.177407477E0,-1.197004566E0,-1.972121998E0,2.590052793E0
8.214891042E0,1.900548570E0,-2.959659127E0,-2.651854386E0,4.404997014E0
8.224861042E0,-1.173861067E-1,-1.954932646E0,-2.969836498E0,3.557452736E0
8.234831042E0,1.122156917E0,3.416669316E0,-9.601083078E0,1.025249539E1
8.244801042E0,1.237233702E0,-1.747634818E0,-1.075757287E0,2.396294730E0
8.254771042E0,-7.971664781E-1,-1.734754571E0,7.829280841E0,8.058690111E0
8.264740042E0,-4.744582808E-1,1.761117620E0,8.534977205E0,8.727684791E0
8.274710042E0,-9.159696210E-1,5.226701526E0,6.105440390E0,8.089116858E0
8.284680042E0,4.649321432E-1,9.074656498E0,-7.902965114E0,1.204252507E1
8.294650042E0,-2.407395894E0,3.890257239E0,-1.057278098E1,1.152012821E1
8.304620042E0,-1.311138415E0,-1.801095033E0,-4.856540031E0,5.343127205E0
8.314590042E0,-2.966120008E0,-4.770047725E0,2.610559595E0,6.194049127E0
8.324560042E0,-8.649630433E-1,-1.424820274E-1,3.481657902E0,3.590320869E0
8.334530042E0,-3.766513930E-1,5.266755538E0,-2.655189638E0,5.910212533E0
8.344499042E0,-1.423759735E0,3.258090489E0,-6.485290137E0,7.396028230E0
8.354469042E0,6.523435910E-1,-2.311479484E0,-1.026801474E0,2.612051078E0
8.364439042E0,-1.636120668E0,-3.397225570E0,5.777524443E0,6.899117415E0
8.374409417E0,-5.938558663E-1,-2.919609500E0,9.295178390E0,9.761000242E0
8.384379417E0,7.743251342E-1,-6.583286548E-1,4.709871397E0,4.818284405E0
8.394349417E0,7.803872350E-1,1.169633457E0,4.936500120E-1,1.490213742E0
8.404319417E0,3.649465097E-1,-3.560194194E-1,-4.661337168E0,4.689136379E0
8.414288417E0,3.584349042E-1,-4.396670553E0,2.839864004E-1,4.420388649E0
8.424258417E0,1.835619772E0,-2.053568157E0,5.994598231E0,6.597109221E0
8.434228417E0,1.625604450E0,2.756927389E0,6.474095643E-2,3.201160703E0
8.444198417E0,-1.473557840E0,-3.254586545E-1,-1.769896045E0,2.325903707E0
8.454168417E0,-8.690424263E-1,2.173800652E0,1.377568924E0,2.716310026E0
8.464138417E0,-7.045397848E-1,-2.555340829E0,2.649693840E0,3.747935499E0
8.474108417E0,6.153992745E-1,-1.051093439E0,-2.685864131E0,2.949132044E0
8.484077417E0,-1.039342144E0,-3.152799092E0,-5.314436658E0,6.266068241E0
8.494047417E0,-2.250632408E-1,-4.559475163E0,1.862800115E0,4.930465647E0
8.504017417E0,-1.150106242E0,-2.499470391E0,3.180081908E0,4.205118018E0
8.513987417E0,-1.770598149E0,-6.270992607E-2,-4.301354506E0,4.651945929E0
8.523957417E0,-6.985224152E-1,-3.444986797E0,2.629454287E0,4.389749132E0
8.533927417E0,2.719493222E0,-4.367603459E0,1.018372713E1,1.140964073E1
8.543897417E0,-2.280706465E0,4.059198794E0,6.533120946E0,8.022492513E0
8.553866417E0,-8.217185712E-1,8.040708557E0,-4.745763361E0,9.372858976E0
8.563836417E0,6.510401005E-1,2.816879184E0,-7.766540802E0,8.287208068E0
8.573806417E0,-1.277714999E0,-3.768520840E0,-4.966425585E0,6.363936520E0
8.583776417E0,7.914136950E-1,-9.698694742E-1,3.660222512E-1,1.304206549E0
8.593746417E0,-1.751787254E-1,-1.412521825E0,4.862199551E0,5.066250089E0
8.603716417E0,1.346609964E0,2.575699080E0,-2.221849562E0,3.658442240E0
8.613686417E0,-1.390772522E0,2.142715392E0,-6.888592481E0,7.346984676E0
8.623656417E0,3.183207537E0,7.692108670E-1,-3.159565197E0,4.550532696E0
8.633625417E0,3.064056302E-1,-3.553709632E-1,4.162416476E-1,6.272400186E-1
8.643595417E0,2.026285341E0,2.635086618E0,-2.663061744E-1,3.334731285E0
8.653565417E0,-7.477523530E-2,5.440571040E-1,2.861878771E0,2.914093266E0
8.663535417E0,2.863810983E0,-2.251592301E0,2.461318771E0,4.396495346E0
8.673505417E0,2.465867027E0,-1.311899723E0,3.612459531E0,4.566338242E0
8.683475417E0,-9.050439524E-1,3.209132629E0,-1.115543497E-1,3.336177627E0
8.693445417E0,1.374851431E0,9.161297616E-1,5.216967666E-1,1.732535054E0
8.703414417E0,-7.269232187E-1,-1.893173769E0,-2.929293659E0,3.562763762E0
8.713384417E0,-4.496660864E-1,-3.015291291E0,-3.466291419E0,4.616205949E0
8.723354417E0,-3.323875319E-1,4.994808555E-1,-1.727900757E0,1.829099129E0
8.733324417E0,-2.591384528E0,-1.397650894E0,6.236579404E0,6.896638634E0
8.743294417E0,-2.711490029E-1,-2.609811443E0,6.852457273E0,7.337629606E0
8.753264417E0,5.893822347E-1,-3.812592766E0,3.087684790E0,4.941359366E0
8.763234417E0,1.378278082E-1,-4.013457488E0,1.085032725E-1,4.017288945E0
8.773203417E0,-1.333656920E0,4.393763902E0,1.188492774E0,4.743028261E0
8.783173417E0,-3.717025874E0,1.562037176E0,3.243234175E0,5.174438076E0
8.793143417E0,-8.627316361E-2,-3.810302997E0,-3.179945667E0,4.963658573E0
8.803113417E0,-7.987418642E-1,-2.532264792E0,-1.142650721E1,1.173095991E1
8.813083417E0,6.438738260E-1,-2.690417065E0,-4.371644470E0,5.173412110E0
8.823053417E0,4.351125859E-1,-2.672245673E0,9.187962674E0,9.578563462E0
8.833023417E0,3.660256865E-1,9.564354962E-1,8.864961897E0,8.923916914E0
8.842993417E0,1.327462818E0,1.654654441E0,1.577310396E0,2.643472515E0
8.852962417E0,6.769894588E-1,-7.975701553E-1,-5.977792164E0,6.068643344E0
8.862932417E0,5.745417821E-1,-3.097515422E0,-2.465044032E0,4.000142763E0
8.872902417E0,-4.718370106E-1,-1.895364136E0,1.515364408E0,2.472117446E0
8.882872417E0,5.198044249E-1,-6.766044196E-1,-2.556196277E0,2.694833870E0
8.892842417E0,6.080749060E-1,-3.036239233E0,-3.575130322E0,4.729699841E0
8.902812417E0,2.172058474E0,1.386907805E0,2.272291737E0,3.435791177E0
8.912782417E0,-2.325593347E-1,3.140295990E0,3.666666729E0,4.833217112E0
8.922751417E0,2.166989669E0,2.715535242E0,3.187589732E0,4.714944769E0
8.932721417E0,3.357291060E-1,-6.021959692E-2,-3.957284456E-1,5.224379726E-1
8.942691417E0,-2.541505732E0,2.083854103E-1,-2.084951041E0,3.293887780E0
8.952661417E0,-4.176468505E0,2.354193687E0,-1.922759804E0,5.165474068E0
8.962631417E0,-2.231743489E0,1.560253483E-1,-2.413361077E0,3.290795436E0
8.972601417E0,2.288506359E0,3.579152037E0,-2.678237607E0,5.022006306E0
8.982571417E0,-2.102784756E0,8.266846114E-1,1.822846091E-1,2.266790431E0
8.992540417E0,9.926429904E-1,-2.453617403E-1,1.590755484E0,1.891043495E0
9.002510417E0,5.189036979E-1,-1.849664638E0,5.734076123E0,6.047325797E0
9.012480417E0,-5.152196231E-1,-3.470228934E-1,-1.442063713E0,1.570166839E0
9.022450417E0,1.115173879E0,4.110297904E0,-7.118286315E0,8.295068517E0
9.032420417E0,1.663065076E0,-5.555655938E-1,-7.039542446E0,7.254625864E0
9.042390417E0,3.506092831E0,-3.674862479E0,-1.739501633E0,5.368721180E0
9.052360417E0,-1.988201549E0,-7.401586837E0,4.546044109E0,8.910833302E0
9.062330417E0,-1.074272387E0,-3.686486159E0,1.138730046E1,1.201727311E1
9.072299417E0,-5.112005029E-1,1.898153843E0,5.638969406E0,5.971791182E0
9.082269417E0,-2.491304352E-1,-1.353793561E0,3.139958898E0,3.428434754E0
9.092239417E0,-2.472562966E0,-2.924952686E-2,-9.417075294E-1,2.645984926E0
9.102209417E0,-2.618830774E0,1.137510024E0,-4.798441511E-1,2.895246809E0
9.112179417E0,-4.265733268E0,-2.595956174E-1,5.714449359E0,7.135741144E0
9.122149417E0,-4.450221693E0,6.818590200E-1,-1.358534483E0,4.702661032E0
9.132119417E0,-1.616268055E0,-1.721972265E0,-4.788391902E0,5.339120519E0
9.142088417E0,-4.044922525E-1,-2.003337359E0,2.429395312E-1,2.058153097E0
9.152058417E0,5.089593382E-1,-2.100540302E0,9.140265182E0,9.392324353E0
9.162028417E0,-8.196341119E-1,1.815404339E0,8.451705837E-1,2.163748208E0
9.171998417E0,-1.211589715E0,-1.862700713E-1,-5.808875459E0,5.936807246E0
9.181968417E0,1.011899772E-1,-5.995664763E-1,-9.273581114E0,9.293493748E0
9.191938417E0,-5.594530421E-1,-1.561737506E0,-1.461601483E1,1.470985728E1
9.201908417E0,1.841433951E0,-2.778591031E0,-7.402253419E0,8.118177307E0
9.211877417E0,1.140849661E0,-6.302013255E0,1.537260594E1,1.665334568E1
9.221847417E0,3.790208748E0,-7.616449208E0,2.840562863E1,2.965224644E1
9.231817417E0,-5.404961497E-1,6.349975042E0,6.747098633E0,9.281037608E0
9.241787417E0,-5.092040734E0,1.028032196E1,-1.698926985E1,2.049998021E1
9.251757417E0,4.462145627E0,1.790771189E-1,-1.428269430E1,1.496456376E1
9.261727417E0,1.178522395E0,-3.436043480E0,-9.419397808E0,1.009556164E1
9.271697417E0,-1.159753198E0,-3.725468084E0,2.159100752E0,4.459356005E0
9.281667417E0,-1.578798805E0,2.287845331E0,8.348575571E0,8.799179279E0
9.291636417E0,-1.673850704E0,5.521471362E0,2.803889594E0,6.414843648E0
9.301606417E0,2.013527448E0,2.439891064E0,3.847577827E0,4.981085858E0
9.311576417E0,3.772027415E0,-1.578472822E0,3.690796434E0,5.508334194E0
9.321546417E0,3.640413900E0,-4.930024329E-1,3.221652102E-1,3.687743915E0
9.331516417E0,-1.127018146E0,2.301233116E0,-6.928608486E0,7.387249780E0
9.341486417E0,3.122540335E0,6.113680286E0,-5.291088141E0,8.667350143E0
9.351456417E0,3.592334292E0,5.253615090E-1,-4.991287361E0,6.172019111E0
9.361425417E0,-1.711476075E0,-5.957670141E0,-1.380505981E0,6.350494518E0
9.371395417E0,-4.600429939E0,-7.983499399E0,8.382075439E0,1.245629989E1
9.381365292E0,3.301809828E0,-4.673558726E0,7.304967445E0,9.279366825E0
9.391335292E0,5.350850778E0,3.050332485E0,1.151640113E0,6.265972173E0
9.401305292E0,5.176445292E0,2.210192845E0,1.855610964E0,5.926536115E0
9.411275292E0,5.172459245E0,2.246976802E0,3.153742540E0,6.461372254E0
9.421245292E0,1.979684641E0,-8.018704900E-1,-2.688017660E-1,2.152766116E0
9.431215292E0,2.670358484E0,-6.491777623E0,-5.451778398E0,8.887962581E0
9.441184292E0,6.599699682E-1,-5.159909366E0,-8.875981559E0,1.028801602E1
9.451154292E0,-7.817814305E-1,-1.762358691E0,-7.471730036E-1,2.067693851E0
9.461124292E0,3.772206925E-1,-5.771675473E-1,4.748455419E0,4.798254547E0
9.471094292E0,-2.494044467E0,8.126290745E-1,5.659857414E0,6.238157562E0
9.481064292E0,7.810021428E-1,-1.989242353E0,6.997367064E0,7.316433238E0
9.491034292E0,1.515261790E0,1.645055944E0,5.409144595E0,5.853295875E0
9.501004292E0,4.348237335E-1,3.787150362E0,-2.630349496E0,4.631448803E0
9.510973292E0,6.924706931E-1,2.562143480E0,-3.922444991E0,4.735997211E0
9.520943292E0,1.742522889E0,-1.070030524E0,-4.175242344E0,4.649085928E0
9.530913292E0,3.234300507E0,-1.039754928E1,8.813730347E-1,1.092458462E1
9.540883292E0,2.859907967E0,-5.020063848E0,2.133726175E0,6.158969233E0
9.550853292E0,2.601982606E0,-8.151895702E-2,-1.696894727E0,3.107476555E0
9.560823292E0,3.558379219E0,1.791941802E0,-3.974619697E0,5.627674459E0
9.570793292E0,-2.364672774E0,4.926189140E0,-2.212131490E0,5.895128709E0
9.580762292E0,-2.019033917E0,-1.221518433E-1,4.886968356E-1,2.080923744E0
9.590732292E0,9.193971857E-1,-1.288557053E0,2.777459010E0,3.196865498E0
9.600702292E0,5.902224065E-1,-9.341079032E-1,4.964040506E0,5.085530278E0
9.610672292E0,-1.428258875E0,-2.221104627E0,-9.262872523E-1,2.798434786E0
9.620642292E0,-1.534248869E0,9.652086586E-2,-3.682936606E0,3.990896881E0
9.630612292E0,-3.392510667E-1,6.641785017E-1,2.625916722E0,2.729773434E0
9.640582292E0,-1.693069771E0,1.299952399E0,1.060230942E1,1.081505092E1
9.650552292E0,-1.185122366E0,4.089944623E0,4.928512824E0,6.513248091E0
9.660521292E0,-2.661698612E-1,6.157336768E0,-9.703753168E0,1.149549773E1
9.670491292E0,-3.877683386E-2,5.287790312E0,-1.256926364E1,1.363629783E1
9.680461292E0,-1.762252126E-1,-7.203459781E-1,-1.227141350E1,1.229380099E1
9.690431292E0,-2.930679741E0,-3.130250182E0,2.317320560E0,4.874148595E0
9.700401292E0,-3.844044355E0,-3.877077907E0,1.363388491E1,1.468643006E1
9.710371292E0,-4.729596029E-1,-1.885737573E0,7.209984105E0,7.467500771E0
9.720341292E0,-2.434577115E0,7.725814945E-1,1.401244301E-1,2.558062303E0
9.730310292E0,-1.031578357E0,7.835204655E-1,3.056590467E0,3.319759556E0
9.740280292E0,-7.887707535E-2,1.097498404E0,3.224208505E0,3.406793922E0
9.750250292E0,4.769849358E-1,2.174735622E0,-2.528443637E0,3.368978611E0
9.760220292E0,4.750165803E-1,-1.253441892E0,-3.425233440E0,3.678176375E0
9.770190292E0,7.995261220E-1,-4.769176489E0,-4.264385485E0,6.447423514E0
9.780160292E0,-1.092595295E0,-4.182846355E0,-8.221074110E-1,4.400662303E0
9.790130292E0,-1.204843197E0,4.168013138E0,9.485265523E-1,4.441135359E0
9.800099292E0,-3.182770457E0,4.452917259E0,1.739494032E0,5.743199403E0
9.810069292E0,-1.888539705E0,-6.764105844E-1,6.281102443E-1,2.102055179E0
9.820039292E0,-3.175612296E0,-2.983157917E0,2.123886480E0,4.847126818E0
9.830009292E0,-1.204950348E0,3.345109337E0,-5.295534949E0,6.378428663E0
9.839979292E0,-2.775300803E0,1.485108868E0,-6.196872132E0,6.950472438E0
9.849949292E0,-1.152223153E0,-5.706925746E0,-2.905805978E0,6.506944602E0
9.859919292E0,-2.353822681E0,-1.228842422E1,7.006213317E0,1.433990502E1
9.869889292E0,-3.322210763E0,-6.858260635E0,8.373282981E0,1.132186783E1
9.879858292E0,-1.341371297E0,7.822054852E0,1.282519510E0,8.039196188E0
9.889828292E0,-2.493017989E0,4.765742420E0,2.643207523E0,5.992827839E0
9.899798292E0,-3.267332013E-1,-1.396826729E0,-1.235717812E0,1.893377407E0
9.909768292E0,-9.442346960E-1,-3.583156503E0,-5.161995068E0,6.354272796E0
9.919738292E0,-7.783304769E-1,-2.126715948E0,-7.154950111E0,7.504800473E0
9.929708292E0,-1.584266828E0,-1.808639696E0,-1.839044048E0,3.027071512E0
9.939678292E0,-6.386656380E-1,-5.333894438E0,8.110621376E0,9.728335046E0
9.949647292E0,-2.668765703E0,-5.633623881E0,9.485280726E0,1.135035589E1
9.959617292E0,-2.686441251E0,1.234368859E0,1.297866113E0,3.228790721E0
9.969587292E0,-1.927534823E-1,3.330822250E0,-1.001399415E0,3.483436745E0
9.979557292E0,2.587288846E0,3.555129336E0,-1.466700372E0,4.635107134E0
9.989527292E0,1.451449225E0,3.304373247E0,-1.633671708E0,3.961624750E0
9.999497292E0,2.356572188E0,2.480625400E0,-6.488953418E0,7.335765216E0
1.000946729E1,-1.454414641E0,8.766169095E-1,-1.139908260E0,2.045279930E0
1.001943729E1,-4.742593293E-1,-3.781920612E-2,6.573506495E0,6.590701013E0
1.002940629E1,-3.110739923E-1,3.837087630E0,1.729012313E0,4.220129392E0
1.003937629E1,4.275469467E-2,4.106879622E-2,-3.846183851E0,3.846640719E0
1.004934629E1,3.048675384E0,1.822316918E-1,-3.400571054E0,4.570723518E0
1.005931629E1,1.015947653E0,2.972170706E0,6.030408919E0,6.799395567E0
1.006928629E1,-1.947264169E0,4.188057394E0,5.517426842E-1,4.651460251E0
1.007925629E1,-5.049757179E0,3.133745062E-1,-6.935173155E0,8.584572082E0
1.008922629E1,-1.940978850E0,-7.772631261E0,-3.094181632E0,8.588082184E0
1.009919529E1,4.277206382E0,-6.454660667E0,2.829520279E-1,7.748367610E0
1.010916529E1,-1.139485433E0,-7.716897941E-1,3.968073154E0,4.199944850E0
1.011913529E1,3.115339197E0,-1.770048657E-1,1.316454294E1,1.352929636E1
1.012910529E1,1.251972925E0,9.750772968E-1,9.749152120E0,9.877458124E0
1.013907529E1,1.185061994E0,2.503766048E0,-3.143501142E0,4.189846749E0
1.014904529E1,3.542335044E0,-1.357056015E0,-1.026444092E1,1.094296514E1
1.015901529E1,1.210327155E0,-3.375763072E0,-9.391416543E0,1.005282910E1
1.016898529E1,-1.172250963E0,-5.328048976E0,-5.043293667E-1,5.478743133E0
1.017895429E1,-7.115114931E-1,-2.263838710E0,5.850669603E0,6.313600329E0
1.018892429E1,-2.657184123E0,-4.504487363E-1,4.900036883E0,5.592306589E0
1.019889429E1,-4.375611806E-1,2.335295486E0,-5.034839178E0,5.567285725E0
1.020886429E1,9.527373516E-1,-1.424143751E0,9.103266925E-1,1.940254770E0
1.021883429E1,7.999043638E-1,-1.938028345E0,1.003414716E1,1.025084924E1
1.022880429E1,1.028547526E0,1.197040234E0,-1.985679352E-1,1.590674247E0
1.023877429E1,3.748281580E-1,1.269526997E-1,-6.646797835E0,6.658568509E0
1.024874329E1,-1.248601420E0,-2.814618358E0,-2.000450004E0,3.671904441E0
1.025871329E1,-9.944449561E-1,-3.781132700E0,-1.519717661E0,4.194690338E0
1.026868329E1,-1.050505575E0,-1.948471473E0,3.769261390E-1,2.245479093E0
1.027865329E1,2.892421153E-1,1.769796642E0,5.630408497E0,5.909089693E0
1.028862329E1,-2.707391825E0,4.543484783E0,7.943736579E0,9.543383849E0
1.029859329E1,-2.066323127E0,1.315552478E0,6.322263333E0,6.780219999E0
1.030856329E1,-1.786575447E-1,2.449722280E0,-4.157899502E0,4.829201387E0
1.031853229E1,-2.332902549E-1,3.733500988E0,-1.010510196E1,1.077527445E1
1.032850229E1,9.641951168E-1,2.858735307E0,-8.019705359E0,8.568413728E0
1.033847229E1,1.889807966E0,-4.164121232E0,-4.570970204E0,6.465682361E0
1.034844229E1,-2.989941272E0,-4.759401991E0,2.081405874E0,5.993655524E0
1.035841229E1,-3.351041849E-1,-3.159075201E-2,4.925178741E0,4.936666732E0
1.036838229E1,-2.443563993E0,6.664436545E0,1.900483081E0,7.348302892E0
1.037835254E1,-3.358455899E0,5.139041238E0,-5.053111727E0,7.951283481E0
1.038832254E1,-9.309615165E-1,-2.611399255E0,-3.308092076E0,4.316198396E0
1.039829154E1,3.906915445E-1,-6.827985506E0,7.948899670E0,1.048613522E1
1.040826154E1,-3.071528934E0,3.677021563E-3,8.782962298E0,9.304554274E0
1.041823154E1,-1.462007981E0,3.337108591E0,-3.136860459E0,4.807666235E0
1.042820154E1,6.581555041E-1,3.508049602E0,-4.482175557E0,5.729701424E0
1.043817154E1,-2.082442147E0,-4.355595617E0,-2.951546407E0,5.658569136E0
1.044814154E1,-1.732419339E0,-5.182849163E0,-1.372990555E-1,5.466447955E0
1.045811154E1,-2.701157816E0,4.368434349E-1,-1.601220830E0,3.170330248E0
1.046808054E1,7.934200209E-1,2.791446134E0,1.871860961E0,3.453339008E0
1.047805054E1,7.862035335E-1,5.747128862E-1,2.387321087E0,2.578315898E0
1.048802054E1,5.606770105E-1,-3.838576916E0,8.232751000E-1,3.965704646E0
1.049799054E1,-7.934296688E-1,-1.228572222E0,-2.543169265E0,2.933705891E0
1.050796054E1,-4.522752968E-1,-3.863788940E0,9.683012509E-1,4.008868323E0
1.051793054E1,2.128705317E0,-4.515150053E0,2.604279685E0,5.630296529E0
1.052790054E1,1.922796933E0,-2.786544414E0,-1.611397324E0,3.749477184E0
1.053787054E1,-1.952121889E0,-1.435896070E0,2.462061367E0,3.454609033E0
1.054783954E1,-8.599665244E-1,1.421742007E0,1.737132926E0,2.403855978E0
1.055780954E1,-1.535789756E0,7.368982762E-2,3.877512063E0,4.171232451E0
1.056777954E1,-6.412805859E-1,-1.722121954E-1,5.440516076E0,5.480886151E0
1.057774954E1,-3.101360551E0,1.366101950E0,-6.100446868E-1,3.443374264E0
1.058771954E1,-1.989883939E0,5.972398692E-1,-4.706297579E0,5.144469890E0
1.059768954E1,-3.329931134E0,-8.075472593E-2,-1.468275027E0,3.640164040E0
1.060765954E1,4.445647928E-1,-2.033888184E0,7.583283216E-1,2.215716778E0
1.061762854E1,3.419673323E0,-3.469294842E0,1.325816388E0,5.048560332E0
1.062759854E1,1.560019594E0,-3.609380972E-1,-1.926209661E0,2.504839536E0
1.063756854E1,1.235102538E0,-3.015084592E-1,-2.464228345E0,2.772869807E0
1.064753854E1,2.539218886E0,3.566029716E-1,3.379367296E0,4.242042144E0
1.065750854E1,1.681686704E0,-1.238404900E0,5.346725568E0,5.740138601E0
1.066747854E1,1.961379640E0,2.245772568E0,-6.621363616E-1,3.054329563E0
1.067744854E1,9.644515903E-1,6.767225919E0,-3.625514025E0,7.737561984E0
1.068741754E1,1.311829848E0,3.617639580E0,-5.236210853E-1,3.883605634E0
1.069738754E1,-8.011748175E-1,2.963091150E-1,-3.116437304E-1,9.092865305E-1
1.070735754E1,-3.759747970E-1,1.043979132E0,-9.505526125E-1,1.461095392E0
1.071732754E1,-9.168160055E-1,6.299804762E-1,-1.200368469E0,1.636554750E0
1.072729754E1,-1.388891619E0,4.703872446E0,-6.891334825E0,8.458482819E0
1.073726754E1,1.338679970E0,3.101835637E0,-7.789877624E0,8.490915250E0
1.074723754E1,1.685636205E0,-2.484557652E0,8.091955894E-1,3.109532705E0
1.075720754E1,-2.872135152E-1,1.035819635E0,6.120625024E0,6.214295182E0
1.076717654E1,-9.690393157E-2,2.075662154E-1,3.614818883E0,3.622069804E0
1.077714654E1,-1.117383615E0,-3.691941026E0,5.661698118E0,6.850824787E0
1.078711654E1,1.987322858E0,-3.184453286E0,5.094225254E0,6.327821569E0
1.079708654E1,4.221442364E0,-4.241860841E0,3.410853968E0,6.888242433E0
1.080705654E1,-1.342962179E-1,-3.665739360E-1,3.942091636E0,3.961375821E0
1.081702654E1,1.479802520E0,4.170320157E0,2.087795126E0,4.892879950E0
1.082699654E1,2.317916684E0,3.596218890E-1,-7.687539071E0,8.037432589E0
1.083696554E1,8.563207123E-1,-1.474991139E0,-1.679952770E1,1.688588212E1
1.084693554E1,-2.231498930E0,-7.621966056E0,-1.091082021E1,1.349518253E1
1.085690554E1,1.733854758E-1,-5.758658402E0,-3.219252405E0,6.599681444E0
1.086687554E1,-3.238818066E0,-4.655174495E0,1.520350914E0,5.871291080E0
1.087684554E1,6.232365900E-1,-5.082761203E0,1.711970135E1,1.786916505E1
1.088681554E1,2.888651417E0,-3.273980882E0,2.103877776E1,2.148705256E1
1.089678554E1,7.147531164E-1,3.364762706E-1,1.076623026E1,1.079517495E1
1.090675454E1,4.768609017E0,5.417113180E0,-1.159498186E0,7.309526880E0
1.091672454E1,2.669245759E0,8.699963996E-1,-3.200012727E0,4.256976405E0
1.092669454E1,-1.162686965E0,-4.172975086E0,-5.850390691E0,7.279603923E0
1.093666454E1,-1.025408229E0,-2.723185447E0,-8.207654166E0,8.708202335E0
1.094663454E1,5.420774926E-1,3.527253905E-1,-7.215554747E0,7.244480210E0
1.095660454E1,-4.808864758E0,1.818859167E0,-6.765386385E-1,5.185666154E0
1.096657454E1,-2.638760131E0,5.050821957E-1,5.020091915E-1,2.733162323E0
1.097654454E1,-9.425553757E-1,1.370846381E0,-1.688301074E0,2.370230147E0
1.098651354E1,-8.214144429E-1,7.010986984E-1,9.657898718E-1,1.448796448E0
1.099648354E1,-5.361047811E-1,2.351912688E0,1.142640196E1,1.167825172E1
1.100645354E1,1.352172420E0,-3.393393597E-1,1.018598883E1,1.028094791E1
1.101642354E1,-1.036949098E0,6.661186078E-1,-1.637772945E0,2.049701844E0
1.102639354E1,-7.447283558E-1,1.196548191E0,-9.858468740E0,9.958702415E0
1.103636354E1,-4.859018666E-1,3.616415173E-2,-1.316622928E1,1.317524201E1
1.104633354E1,-3.272124683E0,2.119263672E0,-1.464312369E1,1.515318942E1
1.105630254E1,-6.206127251E-1,-1.635661807E0,9.068376589E-1,1.970508625E0
1.106627254E1,-1.627255996E0,3.936526841E-1,1.931672130E1,1.938913732E1
1.107624254E1,-4.907161716E-1,6.022712814E0,1.492957410E1,1.610608751E1
1.108621254E1,-5.304981783E-1,1.416119851E1,-1.052422453E1,1.765163657E1
1.109618254E1,-9.089008489E-1,7.804703824E0,-2.007307501E1,2.155615557E1
1.110615254E1,-7.584772063E-1,-4.669731139E0,-1.798678847E1,1.859855467E1
1.111612254E1,3.501818809E0,-1.449233101E1,-4.459110045E-1,1.491607287E1
1.112609154E1,-1.324047167E0,-1.209379613E1,3.030672684E1,3.265747537E1
1.113606154E1,-1.643819112E0,1.554868197E-1,2.327087749E1,2.332938183E1
1.114603154E1,2.139311435E0,9.359553310E0,-2.433182554E0,9.904457023E0
1.115600154E1,-3.506337245E0,-7.778200150E-1,-1.366034824E1,1.412460686E1
1.116597154E1,1.332736860E0,-3.164146198E0,-8.779325915E0,9.426800742E0
1.117594154E1,1.661560003E0,-4.949019009E-1,-2.770942288E0,3.268612962E0
1.118591154E1,-8.795679992E-1,-2.012448783E0,-8.394414818E-1,2.351223505E0
1.119588154E1,1.331911964E0,-2.710857762E0,3.117813154E0,4.340909829E0
1.120585054E1,9.712260282E-1,-3.774037688E0,1.003470733E1,1.076484982E1
1.121582054E1,-1.778821381E0,-1.610086671E0,1.120290968E1,1.145695291E1
1.122579054E1,-2.810116294E0,-7.136804447E-1,1.762812728E0,3.393169916E0
1.123576054E1,3.032057231E-1,-3.302256263E0,-6.836666867E0,7.598476425E0
1.124573054E1,1.424585070E0,-4.669015732E0,-8.470084805E0,9.776067059E0
1.125570054E1,7.211073587E-1,6.880839658E-1,-3.757570467E0,3.887517354E0
1.126567054E1,9.856758137E-1,8.360752398E-1,6.228666367E0,6.361357035E0
1.127563954E1,-8.260800093E-1,-5.132370150E-1,7.541552807E0,7.604001523E0
1.128560954E1,-1.969509316E0,-3.028491672E0,3.008010045E0,4.700941734E0
1.129557954E1,-1.007543779E-1,-6.079422619E0,1.281078172E-1,6.081606896E0
1.130554954E1,6.019586088E-2,-3.382504912E0,-3.102532625E-1,3.397237129E0
1.131551954E1,-2.245310638E0,4.178834873E0,-1.956164362E0,5.131340932E0
1.132548954E1,-2.689488820E0,1.186800005E1,-4.243837785E0,1.288770478E1
1.133545954E1,-3.820214904E0,7.947096974E0,-5.602849401E0,1.044711987E1
1.134542854E1,-1.622313199E0,-2.802719566E0,-5.227977973E0,6.149706560E0
1.135539854E1,1.657714435E0,-6.624781898E0,1.860342531E0,7.077897052E0
1.136536854E1,3.763055155E0,-5.252419335E0,3.022521665E0,7.133311306E0
1.137533854E1,3.042483182E0,2.397788480E0,-2.046622542E0,4.381182185E0
1.138530842E1,1.446557444E0,4.624973626E0,-1.555124305E0,5.089334052E0
1.139527842E1,1.529182110E0,2.695136061E0,-1.760942788E0,3.564137457E0
1.140524842E1,1.797958148E0,3.788988726E0,2.377276155E0,4.820843390E0
1.141521842E1,-6.674874410E-1,2.724631463E0,1.179743001E0,3.043180843E0
1.142518742E1,8.759243068E-1,-3.419369853E-1,-1.530276563E0,1.796082028E0
1.143515742E1,-7.838483481E-1,-1.485134011E0,-4.272627136E0,4.590793385E0
1.144512742E1,1.579564644E0,-1.811699836E0,-1.966976448E0,3.105845635E0
1.145509742E1,-4.471188566E-2,2.751360548E-1,1.635340503E0,1.658926629E0
1.146506742E1,-2.965643752E0,8.170022070E-1,7.817469465E0,8.400914492E0
1.147503742E1,-3.573909423E0,6.742979854E-1,8.142719082E0,8.918036801E0
1.148500742E1,6.381413620E-1,-6.705598605E-1,-3.325598055E-1,9.836010109E-1
1.149497742E1,7.647897872E-1,-1.049544804E0,-7.842979698E0,7.949765924E0
1.150494642E1,7.748826662E-1,-2.730303847E0,-4.728401808E0,5.514778862E0
1.151491642E1,-2.644454442E0,-6.343317987E0,-2.151401138E-1,6.875835051E0
1.152488642E1,-1.697787889E0,-4.979423361E0,6.216052169E0,8.143490977E0
1.153485642E1,5.005800589E-1,-2.183628360E0,8.202225611E0,8.502665357E0
1.154482642E1,4.680286094E-1,1.340094412E0,8.353694808E-1,1.647041584E0
1.155479642E1,2.632061086E-1,2.226623521E0,-6.376467606E0,6.759176643E0
1.156476642E1,5.312830848E-2,-1.379387408E0,-3.312203254E0,3.588345389E0
1.157473542E1,-5.477606938E-1,-4.443649423E0,4.516584082E0,6.359685035E0
1.158470542E1,1.502107309E0,-2.626810176E0,4.762053119E0,5.642127965E0
1.159467542E1,3.537182477E0,1.983166804E0,1.862323567E0,4.462382717E0
1.160464542E1,8.812375255E-1,4.174209141E0,-6.733543033E0,7.971273631E0
1.161461542E1,1.829854710E-1,1.661720216E-2,-8.083486202E0,8.085574129E0
1.162458542E1,-2.357838841E0,-7.721200322E0,1.072662356E0,8.144135494E0
1.163455542E1,-1.517516330E0,-6.919598511E0,1.176326122E1,1.373164280E1
1.164452442E1,4.367962917E-1,2.301101261E0,9.680326883E0,9.959647914E0
1.165449442E1,7.077356536E-1,8.922231281E0,2.126462764E-1,8.952782764E0
1.166446442E1,5.793440272E-1,7.252588087E0,-5.913331289E0,9.375668531E0
1.167443442E1,-9.032174284E-1,2.775647835E0,-1.211036363E1,1.245716380E1
1.168440442E1,6.107227811E-1,-2.902805187E0,-5.585228816E0,6.324084218E0
1.169437442E1,-7.293787569E-1,-6.072414147E0,3.745709390E0,7.171927619E0
1.170434442E1,-1.569521320E0,-5.492077993E0,5.766416488E0,8.116518771E0
1.171431442E1,8.172721291E-1,2.839411137E0,1.393629472E0,3.266862783E0
1.172428342E1,2.660417925E0,9.508722798E0,9.488405478E-1,9.919371511E0
1.173425342E1,-2.010539667E0,4.556616167E0,2.166668218E0,5.431341622E0
1.174422342E1,-1.091182534E0,-7.853746176E-1,5.035885245E-1,1.435651077E0
1.175419342E1,1.703792395E-1,1.272189527E0,-6.498277972E0,6.623829095E0
1.176416342E1,-1.245964911E0,3.629332842E0,-9.867286341E0,1.058715378E1
1.177413342E1,1.469678358E0,2.387298283E-1,-1.412085740E1,1.419913942E1
1.178410342E1,8.131589053E-1,-5.659783155E0,2.765363460E0,6.351504375E0
1.179407242E1,3.231128100E0,-6.225539861E0,2.290833141E1,2.395807136E1
1.180404242E1,2.080559782E0,-3.462311804E-1,1.762832608E1,1.775405547E1
1.181401242E1,4.656579581E0,8.885911301E0,-3.421820421E0,1.059962301E1
1.182398242E1,2.883788580E0,2.350474565E0,-1.412695254E1,1.460861921E1
1.183395242E1,-6.922116615E-1,-2.775121293E0,-8.228215315E0,8.711141282E0
1.184392242E1,-2.400876249E-1,-5.065556356E0,-6.184880662E-1,5.108818919E0
1.185389242E1,-1.069859201E0,-3.034341519E0,7.702813752E0,8.347764184E0
1.186386142E1,-1.426880541E0,-3.631500697E0,2.189227946E0,4.473980821E0
1.187383142E1,-1.763312957E0,-5.165550175E0,-3.849151897E-1,5.471776759E0
1.188380142E1,-2.241587131E0,-1.064381821E0,2.675344405E0,3.648984682E0
1.189377142E1,-6.973099950E-1,2.056134500E0,5.865906277E0,6.254821082E0
1.190374142E1,1.922860083E0,5.346758312E-1,4.994399250E-2,1.996437714E0
1.191371142E1,1.106117639E0,-5.400631633E-1,-3.999923522E0,4.185039144E0
1.192368142E1,2.471184997E-1,5.823604596E-1,-3.699321674E0,3.753024395E0
1.193365142E1,-1.424489614E0,-3.981430241E0,8.933434546E-1,4.321923178E0
1.194362042E1,7.157072358E-2,-2.374915927E0,-1.615490960E0,2.873179262E0
1.195359042E1,4.162267372E-2,-5.205618221E0,6.624395982E0,8.425130007E0
1.196356042E1,-1.508625200E0,-2.134386325E0,6.493913026E0,7.000175810E0
1.197353042E1,3.889001768E-1,-9.016324675E-1,-2.060925416E0,2.282892469E0
1.198350042E1,-1.578746764E0,2.077546712E0,-4.431373193E0,5.142539262E0
1.199347042E1,-2.707222548E0,4.902333085E0,-4.841526720E0,7.402857866E0
1.200344042E1,-2.468210884E0,1.013475377E0,4.686939202E0,5.393199087E0
1.201340942E1,-4.077826561E0,-2.472548641E0,8.601477588E0,9.835018198E0
1.202337942E1,-7.828728864E-1,-1.763791259E0,4.988025784E-2,1.930372400E0
1.203334942E1,1.464797322E-1,-2.818581893E0,-5.584851086E0,6.257509237E0
1.204331942E1,-3.049570592E0,-6.100403014E-1,-1.875476294E0,3.631727041E0
1.205328942E1,-7.137421328E-1,2.192694175E0,3.537740886E-1,2.332914847E0
1.206325942E1,-1.083342734E0,1.564469618E0,-3.468322742E0,3.956066140E0
1.207322942E1,-9.538331198E-1,2.920301518E0,-6.911900652E0,7.563883209E0
1.208319942E1,-1.729779175E0,7.741438705E-1,-1.369535435E0,2.338174937E0
1.209316842E1,-1.891632151E0,1.894749594E0,1.035538968E0,2.870660059E0
1.210313842E1,-3.857656307E-1,1.971717078E0,1.240247065E0,2.361079444E0
1.211310842E1,-6.187334483E-2,1.314765443E0,3.116996298E0,3.383504456E0
1.212307842E1,4.751785481E-3,5.963683417E-1,-1.832957096E0,1.927539752E0
1.213304842E1,-3.114624082E0,2.256025953E0,-1.605984557E-1,3.849198376E0
1.214301842E1,-9.674148130E-1,3.667940545E0,2.251796662E0,4.411379316E0
1.215298842E1,2.523071215E0,1.502274539E0,1.713960995E0,3.400055800E0
1.216295742E1,4.676072809E-1,-1.898345339E-1,-3.052571676E0,3.094008331E0
1.217292742E1,-1.682289990E-1,-3.027047995E0,-2.507193686E0,3.934125155E0
1.218289742E1,2.086318558E0,-1.132269457E0,3.499701240E0,4.228790373E0
1.219286742E1,-3.041482212E-1,-4.295165228E0,3.516865157E0,5.559612487E0
1.220283742E1,-4.833045699E-1,9.754436249E-1,-2.982990979E0,3.175422610E0
1.221280742E1,1.446693520E-1,-2.799888052E0,2.764607999E0,3.937430598E0
1.222277742E1,3.368173825E-1,-1.805359992E0,2.402617403E0,3.024126492E0
1.223274742E1,3.148326849E0,1.067378812E0,1.837993888E0,3.798615670E0
1.224271642E1,3.897382948E0,-1.461816485E0,-9.439107603E-1,4.268192686E0
1.225268642E1,-2.328342635E-1,-1.020419238E0,1.813648421E-1,1.062243109E0
1.226265642E1,-4.664604592E-1,-3.813738821E0,8.678203583E-2,3.843139377E0
1.227262642E1,3.163772707E-1,-3.931307909E0,-2.246628308E0,4.539010377E0
1.228259642E1,-1.122204937E-2,-3.824808769E0,3.631068880E0,5.273893179E0
1.229256642E1,3.515453493E-1,2.469201110E0,2.048397757E0,3.227455906E0
1.230253642E1,1.722386687E0,2.675358731E0,1.750183327E0,3.631432488E0
1.231250542E1,-8.972552419E-3,2.628428686E-1,1.723911202E-1,3.144607743E-1
1.232247542E1,2.874546215E-1,-2.822023272E0,-4.914948453E0,5.674783150E0
1.233244542E1,2.671982256E0,-3.587048117E0,7.724282974E-1,4.539058145E0
1.234241542E1,1.327421303E0,-4.002678146E0,2.155274919E0,4.735893752E0
1.235238542E1,3.682793861E-1,1.264355135E0,2.320674523E0,2.668286689E0
1.236235542E1,1.587857457E0,1.474809290E0,-3.193518224E0,3.859392750E0
1.237232542E1,1.025141011E0,-4.357093674E-1,-3.941919143E0,4.096276758E0
1.238229654E1,-1.501567026E0,-5.389493272E0,1.858488379E0,5.895364308E0
1.239226554E1,2.410990835E-1,1.306900645E0,6.517552149E0,6.651661754E0
1.240223554E1,7.163958916E-1,6.772132902E0,5.657798610E0,8.853569462E0
1.241220554E1,9.875730159E-1,4.047503778E0,9.311281621E-2,4.167284163E0
1.242217554E1,7.231727415E-1,2.126171280E0,-4.246273150E0,4.803583952E0
1.243214554E1,2.850245004E-1,4.542139631E0,-1.471783590E1,1.540541999E1
1.244211554E1,2.226112036E0,3.841211379E0,-1.294130093E1,1.368165740E1
1.245208554E1,-2.744890311E0,-2.546609766E0,-2.101398089E0,4.293660216E0
1.246205454E1,-2.503681263E0,-1.992581406E0,1.198774518E1,1.240745079E1
1.247202454E1,-7.046164564E-1,2.308253575E0,1.293079465E1,1.315408565E1
1.248199454E1,-1.467845183E-1,4.501365534E0,3.655182797E0,5.800361941E0
1.249196454E1,1.367443301E0,4.249593784E0,-6.930723424E0,8.244020602E0
1.250193454E1,2.863457226E0,-2.378247378E0,-9.894242005E0,1.057125691E1
1.251190454E1,5.959790999E-1,-3.799380690E0,-8.282384505E0,9.131723704E0
1.252187454E1,3.930535638E-1,-4.657930288E0,4.085087049E-1,4.692300612E0
1.253184454E1,-5.492106937E-2,-2.276431274E0,1.063775056E1,1.087873580E1
1.254181354E1,-2.374395525E0,-2.537387246E0,1.212081027E1,1.260912883E1
1.255178354E1,-1.634281426E0,5.784653369E-1,2.859656244E0,3.344118981E0
1.256175354E1,1.149845749E0,2.261453923E0,-7.774575461E0,8.178040272E0
1.257172354E1,9.721549315E-1,-2.110181192E0,-7.517825975E0,7.868650283E0
1.258169354E1,1.286309237E-1,-3.777014213E0,-4.788981886E0,6.100551597E0
1.259166354E1,-6.884092902E-1,-8.076142099E-1,-1.007574660E0,1.463336857E0
1.260163354E1,-1.609399769E0,-2.210537831E0,1.100653913E1,1.134109998E1
1.261160254E1,-2.593614364E0,-4.335505754E0,1.177585846E1,1.281383191E1
1.262157254E1,-7.006477319E-1,2.719507840E-1,7.043522061E0,7.083506723E0
1.263154254E1,-3.592430625E-1,3.376410652E0,3.340974478E0,4.763540168E0
1.264151254E1,1.497317270E0,-2.106138427E0,-2.629667711E0,3.686859144E0
1.265148254E1,1.599943506E0,2.485440874E-1,-8.276193473E0,8.433087916E0
1.266145254E1,-5.990958486E-1,1.367801151E0,-8.865540186E0,8.990417044E0
1.267142254E1,9.943713543E-1,-3.663847786E-1,-3.619208972E0,3.771165043E0
1.268139254E1,6.956595453E-1,-2.289082017E0,5.833799216E0,6.305319340E0
1.269136154E1,-9.834380112E-1,-2.194319116E0,6.408771134E0,6.845037192E0
1.270133154E1,1.209350450E0,3.969589922E-1,7.509807104E-1,1.477862301E0
1.271130154E1,-6.720266345E-1,-2.572131693E-2,-7.544371750E0,7.574287193E0
1.272127154E1,2.267097363E0,-2.129726679E0,-6.869611250E0,7.541022802E0
1.273124154E1,-2.273012991E-1,-1.297545100E0,-4.002536058E-1,1.376768723E0
1.274121154E1,-1.470092341E0,3.034735037E0,2.852702150E0,4.416865155E0
1.275118154E1,1.079548768E-1,4.516264532E0,5.703157800E-1,4.553411871E0
1.276115154E1,1.644745895E0,-2.362414872E0,2.526603518E0,3.830132951E0
1.277112054E1,7.918457311E-1,-4.368749221E0,2.390741708E0,5.042681364E0
1.278109054E1,3.348771448E0,3.495839739E-1,2.996692175E-1,3.380278214E0
1.279106054E1,2.429518981E0,6.707674366E0,-2.339688499E0,7.507969110E0
1.280103054E1,2.851759579E0,7.508223093E0,-5.585822309E0,9.783013727E0
1.281100054E1,2.074748234E0,1.719476381E0,-3.280459889E0,4.245302857E0
1.282097054E1,8.930475855E-1,-2.630699744E0,8.955158706E0,9.376192329E0
1.283094054E1,-1.990984239E-1,-1.375889604E0,8.775515869E0,8.884953076E0
1.284090954E1,-4.389200735E-1,1.273852183E0,1.665962371E0,2.142610752E0
1.285087954E1,-2.452253540E-1,3.552450434E0,-7.393607726E0,8.206428868E0
1.286084954E1,9.403815271E-1,-3.066125522E0,-2.333589268E0,3.966242807E0
1.287081954E1,-1.328141533E0,-4.724922130E0,1.384363389E0,5.099540279E0
1.288078954E1,1.681937695E-1,3.870712920E0,2.593654125E0,4.662375937E0
1.289075954E1,1.251324907E0,3.531542838E0,3.608095170E0,5.201534350E0
1.290072954E1,-4.887667099E-1,-2.168978161E0,-1.999681095E0,2.990331694E0
1.291069954E1,2.831493714E0,-5.605063741E0,-7.061571246E-1,6.319236828E0
1.292066854E1,3.264898987E0,-1.061438041E0,4.859059596E-1,3.467321835E0
1.293063854E1,3.886430821E-1,8.023660415E-1,9.624791783E-1,1.311945456E0
1.294060854E1,1.087146713E0,6.001316097E-1,-2.268301013E0,2.585968950E0
1.295057854E1,6.583532131E-1,-6.413351843E-1,1.377268378E0,1.655780165E0
1.296054854E1,-3.664255629E-1,-4.715906308E0,3.309107153E0,5.772714279E0
1.297051854E1,1.323509954E0,3.184186068E-1,-2.065359360E-1,1.376853696E0
1.298048854E1,1.698126004E0,4.671493782E0,-3.835153078E0,6.278127525E0
1.299045854E1,-1.258712279E0,-1.504036890E0,-2.156576509E0,2.915013861E0
1.300042754E1,9.656040765E-1,-5.481544819E0,-8.107269752E-1,5.624678041E0
1.301039754E1,1.956518118E0,-5.395336980E0,-7.869831866E-1,5.792837544E0
1.302036754E1,1.429759125E0,1.973546380E0,5.077464795E-1,2.489357940E0
1.303033754E1,2.847975554E0,4.029680588E0,1.377375966E0,5.123129409E0
1.304030754E1,2.289065937E0,-1.026034319E-1,2.521048079E0,3.406762942E0
1.305027754E1,5.900115412E-1,-5.565697947E0,4.475686902E0,7.166371501E0
1.306024754E1,2.074475169E0,-2.258144399E0,-5.223603086E0,6.057119163E0
1.307021654E1,2.784321887E0,-1.530140030E0,1.299748331E-1,3.179728029E0
1.308018654E1,-2.948019952E-1,5.700687352E-1,1.815818322E0,1.925897910E0
1.309015654E1,-1.371330822E0,-1.329537556E0,-5.566040593E-1,1.989478931E0
1.310012654E1,7.226793095E-2,-1.452814988E0,1.210981750E-1,1.459643385E0
1.311009654E1,3.420545874E-1,2.110561553E0,7.979553698E0,8.261037988E0
1.312006654E1,-2.805535585E0,3.256800593E0,2.939447349E0,5.207507152E0
1.313003654E1,4.488542005E-3,3.663330892E0,-1.098918108E0,3.824609050E0
1.314000654E1,-4.409645525E-1,1.860086715E0,-6.958257962E0,7.216074154E0
1.314997554E1,-8.666006291E-1,9.732377627E-1,-4.815377387E0,4.988591762E0
1.315994554E1,2.072193586E0,2.755697427E0,1.949473978E0,3.960846293E0
1.316991554E1,2.781705550E0,5.947158601E0,2.827980123E0,7.148709868E0
1.317988554E1,-1.972509376E0,-5.714375684E-1,-6.346877772E-1,2.149456375E0
1.318985554E1,-6.916086674E-1,8.535212848E-1,-9.515495043E0,9.578698610E0
1.319982554E1,1.324883465E0,2.397570671E0,-8.111500797E0,8.561548137E0
1.320979554E1,3.613520070E-1,-4.488081830E0,1.705504167E0,4.814789533E0
1.321976454E1,-6.157264993E-1,-5.803662667E0,9.099196093E0,1.081004112E1
1.322973454E1,1.636575289E0,5.877650410E-2,1.101160165E1,1.113270875E1
1.323970454E1,-4.220300987E-2,3.655350612E0,2.601299359E0,4.486661069E0
1.324967454E1,4.477951236E-1,1.018660980E-1,-2.444008089E0,2.486779587E0
1.325964454E1,1.395568116E-1,-2.248867791E0,-2.120197472E0,3.093884252E0
1.326961454E1,-1.074450800E0,-1.443114750E0,-1.528476205E0,2.360776188E0
1.327958454E1,-6.247268260E-1,1.709024191E-1,-1.050542924E0,1.234152211E0
1.328955454E1,1.420035205E0,-9.642883068E-1,-2.383411054E0,2.937175544E0
1.329952354E1,-2.095940444E0,1.855906248E-2,-4.503328444E0,4.967220336E0
1.330949354E1,-2.431412455E0,-1.191928598E0,5.010596037E-2,2.708315144E0
1.331946354E1,1.765062882E0,-2.832656433E0,6.828166185E0,7.600213346E0
1.332943354E1,4.532521107E-1,-1.886076419E0,1.057686701E1,1.075327101E1
1.333940354E1,-2.281636173E0,8.938626873E-1,1.055245839E0,2.668032591E0
1.334937354E1,-1.535039412E0,-5.806033713E-1,-3.101010595E0,3.508520056E0
1.335934354E1,-2.614801750E-3,2.723796773E0,-6.380456577E0,6.937528510E0
1.336931354E1,-1.588272756E0,-8.002885258E-1,-3.758601916E0,4.158143869E0
1.337928242E1,-3.621580822E-1,-3.581308490E0,-3.317204962E0,4.894974743E0
1.338925242E1,-5.139163884E-1,-5.444078200E0,-1.498571790E0,5.669904312E0
1.339922242E1,-1.677052931E0,-6.258866651E0,-3.557755905E-1,6.489414038E0
1.340919242E1,5.345207338E-1,-5.830574477E-1,1.801148243E0,1.967181587E0
1.341916242E1,-1.082671108E0,3.109230611E0,5.357461056E0,6.288233510E0
1.342913242E1,-2.455656912E0,3.043429554E0,6.849380468E0,7.887124135E0
1.343910242E1,-1.368868121E0,-9.967631578E-1,3.843415779E0,4.199902567E0
1.344907242E1,-1.380769836E0,-3.455610603E0,-2.534599001E0,4.502439569E0
1.345904142E1,1.166971586E0,-1.048271573E0,-2.128584133E0,2.644157027E0
1.346901142E1,8.011428040E-1,2.462719179E0,-4.318522516E0,5.035519066E0
1.347898142E1,-2.979386609E-2,1.017915460E0,-1.528117771E0,1.836350587E0
1.348895142E1,1.840875542E0,-2.690546581E-1,2.828933219E0,3.385864192E0
1.349892142E1,4.252138711E-1,2.454726035E0,-2.898332652E0,3.821886825E0
1.350889142E1,-1.074833719E-1,3.682418251E0,-6.041709833E0,7.076299495E0
1.351886142E1,5.030708266E-1,2.195035108E0,5.747397834E-1,2.324131064E0
1.352883042E1,-2.651013556E0,2.930361360E0,2.999051526E0,4.960766134E0
1.353880042E1,-1.615709792E0,2.939615456E0,5.783882706E0,6.686191466E0
1.354877042E1,-1.910583269E0,9.339634770E-1,-3.704281282E-1,2.158664681E0
1.355874042E1,6.508829565E-1,-1.207063531E0,-1.835528702E-1,1.383597719E0
1.356871042E1,9.468783684E-1,-1.516427725E0,-4.530772351E0,4.870731956E0
1.357868042E1,-5.427390319E-1,-1.149801748E0,-7.482506454E-2,1.273659494E0
1.358865042E1,-7.028668233E-1,1.290626675E-1,2.423168027E-1,7.545835781E-1
1.359862042E1,-9.542081456E-1,-2.321411857E-1,2.280291313E-1,1.008166653E0
1.360858942E1,6.607262325E-1,-5.429359004E-1,3.390720835E0,3.496902390E0
1.361855942E1,-2.479321215E-1,4.024691159E-1,9.591427571E-1,1.069301901E0
1.362852942E1,-7.815150898E-1,8.815274012E-1,-3.967242265E-1,1.243079445E0
1.363849942E1,1.474314470E0,-2.281903975E0,3.066080498E0,4.096527618E0
1.364846942E1,2.291349421E0,-2.305300439E0,-4.980646598E-1,3.288276249E0
1.365843942E1,-2.273837083E-1,-1.949796452E0,2.797179914E0,3.417254018E0
1.366840942E1,-5.002035805E-2,1.626541028E0,3.022566104E-1,1.655142535E0
1.367837942E1,-2.261841447E0,2.872877383E-1,-3.894771874E-1,2.313039873E0
1.368834842E1,-2.365761160E-1,-3.960289633E0,-8.764438319E-1,4.063005787E0
1.369831842E1,1.270007054E0,-1.673414940E0,-6.109357440E0,6.460455387E0
1.370828842E1,3.611136964E-1,-5.266057965E-1,-5.802626540E0,5.837652913E0
1.371825842E1,6.596626970E-1,-2.358467417E0,-2.840918257E0,3.750778582E0
1.372822842E1,1.083836750E0,-4.104155404E0,3.949317040E0,5.797921935E0
1.373819842E1,-1.228376486E0,-4.497324523E0,1.165624899E1,1.255400243E1
1.374816842E1,8.104985683E-1,9.323239177E-2,8.861631323E0,8.899107253E0
1.375813842E1,1.642856514E0,2.462083294E0,1.575357426E0,3.352996077E0
1.376810742E1,1.725613911E0,-3.651717737E-1,-3.123179728E0,3.586829437E0
1.377807742E1,2.530267676E0,-1.836869176E0,-8.665068982E0,9.211935917E0
1.378804742E1,2.388572976E0,-3.627596219E0,-4.964641600E0,6.596393060E0
1.379801742E1,-2.616294836E0,1.815250558E-1,6.850761580E-1,2.710586534E0
1.380798742E1,-1.242377790E0,2.833634672E0,4.059355792E0,5.104053044E0
1.381795742E1,3.225722495E-1,2.778358896E0,5.233877814E0,5.934375113E0
1.382792742E1,-3.051007509E-1,5.719138241E-1,2.765849948E0,2.840791760E0
1.383789642E1,-1.184156187E-2,5.559359565E0,-1.102617642E0,5.667661304E0
1.384786642E1,1.000764554E0,5.540434467E0,-6.492109160E0,8.593336088E0
1.385783642E1,4.150200181E-1,2.705384476E0,-7.763257590E0,8.231616803E0
1.386780642E1,-1.177911872E0,-1.034564530E0,-3.601401862E0,3.927835984E0
1.387777642E1,3.135518230E-2,9.157555398E-1,3.579666592E0,3.695078384E0
1.388774642E1,-1.268085841E-1,1.800504172E0,6.809515906E0,7.044671927E0
1.389771642E1,2.712775868E-1,-1.207949969E-1,2.611752427E0,2.628580168E0
1.390768642E1,5.377237654E-1,-1.088406569E-1,-4.865588012E0,4.896421126E0
1.391765542E1,1.239843241E-1,-7.030385122E-1,-3.963134596E0,4.026918311E0
1.392762542E1,-1.016865593E0,-1.843454310E0,7.905844867E-1,2.248858212E0
1.393759542E1,1.679945695E0,4.095203024E0,6.898796457E-1,4.479825809E0
1.394756542E1,-4.021952469E-1,-2.401925093E-1,3.577221871E0,3.607765205E0
1.395753542E1,-1.057674334E0,-4.965570138E0,3.079122128E0,5.937723037E0
1.396750542E1,-2.185649742E0,-6.258186035E0,2.747389119E0,7.175660542E0
1.397747542E1,-2.558041658E0,-2.185928654E0,-3.398485937E0,4.782422803E0
1.398744542E1,-1.217220218E0,-2.291491655E-1,-9.097542500E-1,1.536810722E0
1.399741442E1,-1.818406885E0,1.041722399E0,-6.050698757E-1,2.181260807E0
1.400738442E1,1.488200255E-1,2.833511004E-1,1.373489322E0,1.410286554E0
1.401735442E1,-1.948711062E0,-1.478075837E0,-1.208955106E0,2.728324657E0
1.402732442E1,-4.134098411E-1,-6.758346337E-1,-1.244068220E0,1.474912162E0
1.403729442E1,4.500050057E-2,-3.000658926E0,1.760938110E0,3.479494512E0
1.404726442E1,-1.883509199E0,-4.225278722E0,1.293716344E0,4.803570460E0
1.405723442E1,-5.699527410E-1,-2.045920292E0,2.408694999E0,3.211299981E0
1.406720442E1,-1.866116656E0,-1.006374226E0,2.021622187E0,2.929528413E0
1.407717342E1,-8.566955920E-1,4.452912874E0,5.092398584E-2,4.534859827E0
1.408714342E1,-3.174668263E0,1.864274198E0,-2.678106045E0,4.552613409E0
1.409711342E1,-1.348132433E0,-1.757453462E0,-4.265251458E-1,2.255665629E0
1.410708342E1,-1.956944527E0,-4.268253126E0,4.907696736E-1,4.721066776E0
1.411705342E1,-6.378871543E-1,-1.868521908E0,2.279787283E0,3.015908520E0
1.412702342E1,2.566527137E-1,-4.932907006E-1,1.150768878E0,1.278074857E0
1.413699342E1,5.662983592E-2,-4.032678455E-1,1.751812946E0,1.798521751E0
1.414696242E1,2.101642356E0,1.865466738E0,6.545034063E-1,2.885349451E0
1.415693242E1,2.397001153E0,2.236228742E0,-1.366536398E0,3.551584891E0
1.416690242E1,3.627613760E0,2.678409808E0,-6.687232500E0,8.065515433E0
1.417687242E1,1.172980915E0,-7.768838757E-1,9.992833078E-1,1.725688243E0
1.418684242E1,1.997029821E0,-4.733432168E-1,2.584685081E0,3.300421015E0
1.419681242E1,-6.560000742E-1,2.802862238E0,-3.029617846E-1,2.894504909E0
1.420678242E1,-1.359499274E0,3.869700475E0,-3.752269381E-1,4.118690969E0
1.421675242E1,-8.923399993E-1,3.142168854E0,1.321595283E0,3.523650078E0
1.422672142E1,-2.442895217E0,1.313462391E0,-3.174099036E0,4.215189816E0
1.423669142E1,-4.970107723E-2,1.991867461E0,-7.517093319E0,7.776676549E0
1.424666142E1,-9.501794140E-1,3.030657773E0,-5.564574696E0,6.407200560E0
1.425663142E1,6.701858579E-1,-1.723629951E0,2.967080705E0,3.496228997E0
1.426660142E1,1.334098531E0,-2.290863371E0,1.074919966E1,1.107127667E1
1.427657142E1,3.326408991E-1,-2.472868776E0,6.999442241E0,7.430876236E0
1.428654142E1,1.448579996E0,1.593894561E0,-2.316499026E0,3.163076290E0
1.429651142E1,1.432631423E0,1.459354514E0,-4.092224745E0,4.574762481E0
1.430648042E1,9.350301553E-1,-5.337753015E0,-1.215142629E0,5.553598856E0
1.431645042E1,4.911955336E-1,-2.538690882E0,3.337156831E0,4.221710573E0
1.432642042E1,6.579425193E-1,9.733169925E-1,7.661852837E0,7.751401372E0
1.433639042E1,-3.769402016E0,-8.911317453E-1,5.551548854E0,6.769209852E0
1.434636042E1,-1.495813951E0,-2.840551051E-1,-3.570239126E0,3.881334061E0
1.435633042E1,-1.784124952E0,-3.868500334E-1,-8.781150831E0,8.968911010E0
1.436630042E1,-2.401965146E0,-3.192021922E0,-5.815578707E0,7.055451525E0
1.437627042E1,-6.570294765E-1,-2.102484794E0,-4.092173874E-2,2.203135182E0
1.438623854E1,-4.794645207E-1,-2.842608102E0,6.042636616E0,6.695055214E0
1.439620854E1,1.075602044E0,1.225045766E0,5.596312214E0,5.828925053E0
1.440617854E1,1.096099823E0,6.736442667E-1,-6.685992891E-1,1.449916008E0
1.441614854E1,-1.159523110E0,-1.690009923E0,-3.019923162E0,3.649734687E0
1.442611854E1,-9.344794207E-1,-4.486452795E0,2.761083882E0,5.350242488E0
1.443608854E1,-2.497430882E0,-3.684454544E0,4.901927873E0,6.621273531E0
1.444605854E1,-1.024696184E0,6.067699537E-1,2.221570650E0,2.520624565E0
1.445602854E1,-6.939496733E-1,3.584338517E0,-2.393579947E0,4.365578280E0
1.446599754E1,-6.420776345E-1,3.478669390E0,-6.399227893E-1,3.594844307E0
1.447596754E1,1.793576300E-2,1.707819664E-1,-1.978598374E-1,2.619860434E-1
1.448593754E1,-5.297087677E-1,-3.046363979E0,-2.662545435E0,4.080450106E0
1.449590754E1,2.797118518E0,-3.179909415E0,-6.097073609E0,7.423611149E0
1.450587754E1,2.426981874E-2,-1.065232591E0,-3.405768059E0,3.568552308E0
1.451584754E1,-4.451966210E-1,1.118396061E0,2.238093712E0,2.541273941E0
1.452581754E1,5.638780687E-1,1.694224596E0,7.700815759E0,7.905119784E0
1.453578754E1,-1.570332804E-1,7.021821874E-1,5.961866103E0,6.005128367E0
1.454575654E1,-6.792081848E-1,1.688122441E0,-2.054777654E0,2.744666162E0
1.455572654E1,-1.385511782E0,2.784458712E-1,-3.904607475E0,4.152485345E0
1.456569654E1,-3.659919334E0,1.873948709E0,-5.712508668E0,7.038426570E0
1.457566654E1,-2.065411254E0,1.276097806E0,-4.431176142E0,5.052689508E0
1.458563654E1,2.468204452E0,3.494942191E0,3.228522581E-1,4.290791036E0
1.459560654E1,1.324346544E0,1.075786816E0,-1.324235886E0,2.159817521E0
1.460557654E1,8.175702640E-1,-3.373772973E0,3.497719619E0,4.927961824E0
1.461554654E1,1.117500852E-1,-1.977401157E0,5.740079459E0,6.072159057E0
1.462551554E1,-2.216006293E0,2.145464753E0,1.638539515E0,3.492637204E0
1.463548554E1,6.844959681E-1,2.625004264E0,4.653073883E-1,2.752397697E0
1.464545554E1,-9.918835102E-1,8.603862083E-1,-4.612348026E-1,1.391702148E0
1.465542554E1,-8.288059082E-1,-4.812780638E0,-1.337740030E0,5.063528917E0
1.466539554E1,-2.348414445E0,-2.857646556E0,1.232559730E0,3.898768746E0
1.467536554E1,-1.687668698E0,6.200252992E-1,-4.242900476E0,4.608129930E0
1.468533554E1,6.990255681E-1,-2.321206620E0,4.488040899E0,5.100896787E0
1.469530554E1,-2.135677098E0,-2.713464451E0,4.551852733E-1,3.482987170E0
1.470527454E1,-2.723955196E-1,-2.286108415E0,9.334220248E-1,2.484304265E0
1.471524454E1,-2.181437554E0,-4.967662856E-1,1.517499227E0,2.703377600E0
1.472521454E1,-4.538951582E-1,1.535190270E0,3.141200262E-1,1.631410853E0
1.473518454E1,-2.839704850E-1,-5.886845157E-1,3.451440076E0,3.512780565E0
1.474515454E1,-2.944260484E0,-2.579176419E0,4.380535161E0,5.874513520E0
1.475512454E1,-5.520729423E-1,2.582542661E-1,-1.782341259E0,1.883671989E0
1.476509454E1,-1.404542130E0,-1.185669446E0,1.195020606E0,2.192401624E0
1.477506454E1,-2.154497970E-2,-6.657867783E-1,-2.843652999E0,2.920633253E0
1.478503354E1,1.356637208E0,1.854403806E0,-3.953645734E0,4.572810141E0
1.479500354E1,-1.889006459E0,-1.953513527E0,-4.858091297E0,5.566472092E0
1.480497354E1,1.801498784E0,-1.189917448E0,-5.139193851E0,5.574281553E0
1.481494354E1,2.932216682E0,-4.734548986E-2,-6.910081583E0,7.506621327E0
1.482491354E1,7.079001796E-1,-5.086941962E0,3.994101450E0,6.506223758E0
1.483488354E1,1.329325741E0,-3.417732340E0,1.576670594E1,1.618755748E1
1.484485354E1,1.948005449E0,5.501788464E-1,8.679939621E0,8.912843195E0
1.485482354E1,3.026240494E0,2.903206306E0,-5.631398431E0,7.021352197E0
1.486479254E1,2.331630159E0,7.952669370E-1,-2.817651016E0,3.742740433E0
1.487476254E1,3.712905633E0,-2.316251689E-1,-1.450039315E-1,3.722948375E0
1.488473254E1,4.555191785E0,1.844884247E0,-5.211173660E0,7.163079017E0
1.489470254E1,5.318895599E-1,6.706586199E0,-8.404384906E0,1.076544893E1
1.490467254E1,1.799154196E0,1.062869439E0,-3.767075116E0,4.307841942E0
1.491464254E1,3.977157096E0,-3.926953195E0,3.939736962E-1,5.603030897E0
1.492461254E1,5.392867262E-1,-1.619024725E0,3.434473211E0,3.835058991E0
1.493458254E1,-8.738808511E-1,3.702125999E0,8.100619714E0,8.949270607E0
1.494455154E1,-2.412851200E0,7.285052998E0,1.303445526E0,7.784138895E0
1.495452154E1,-7.547246826E-1,-6.299804762E-1,-2.979452829E0,3.137455005E0
1.496449154E1,-1.376738035E0,-3.963892395E0,-4.413945567E0,6.090218880E0
1.497446154E1,-1.576457579E-1,5.744503462E-1,-3.410617740E0,3.462247645E0
1.498443154E1,-1.617501086E0,-3.289357597E0,-2.880170031E0,4.661712408E0
1.499440154E1,-2.206195689E0,-3.744207533E0,2.542313232E0,5.034853130E0
1.500437154E1,-1.423134229E0,-3.553060299E0,1.045235406E1,1.113109401E1
1.501434154E1,-1.791600325E0,-1.682750604E0,5.780605926E0,6.281471658E0
1.502431054E1,-1.533233207E0,3.625855210E0,-1.053272989E0,4.075170433E0
1.503428054E1,-1.914747218E0,4.008066063E0,3.478719091E-1,4.455543214E0
1.504425054E1,-1.305724917E0,3.285507790E0,-6.152905748E0,7.096317928E0
1.505422054E1,2.079674221E0,-3.584639649E0,-3.342347989E0,5.324093947E0
1.506419054E1,-7.532272837E-1,-8.186305397E0,-6.750142694E-2,8.221161951E0
1.507416054E1,3.114207322E-1,-1.509204659E0,-1.016018039E-1,1.544345979E0
1.508413054E1,-2.310703851E0,1.827439079E0,4.216208521E0,5.143471607E0
1.509410054E1,-5.417573210E-1,-3.791798313E0,2.602596272E0,4.630846877E0
1.510406954E1,2.479466774E0,-9.675513455E-1,-1.824331868E0,3.226778247E0
1.511403954E1,-2.508792315E0,-2.175128262E0,-2.512200657E0,4.163697152E0
1.512400954E1,1.247676537E0,8.726264772E-1,-1.178026843E-1,1.527105492E0
1.513397954E1,1.105444917E0,2.400770560E0,3.957390291E0,4.758849195E0
1.514394954E1,-1.223972290E0,-4.558805072E-1,6.825553064E0,6.949396365E0
1.515391954E1,4.057758332E0,-1.783190859E0,1.829741127E0,4.795114693E0
1.516388954E1,-2.088497889E-1,3.100310683E-2,4.843225336E-1,5.283443418E-1
1.517385954E1,1.081153025E0,-4.349901599E-1,1.348887162E0,1.782583765E0
1.518382954E1,-1.249839057E-1,-8.623616901E-1,-3.056477616E0,3.178261172E0
1.519379854E1,-1.238969887E0,1.004094397E0,-3.380449616E0,3.737738827E0
1.520376854E1,3.010112996E-1,3.292074506E0,-4.432384177E0,5.529411528E0
1.521373854E1,2.444041272E0,1.530858653E0,-5.893724990E0,6.561467840E0
1.522370854E1,1.223276472E0,-1.677105118E0,-1.681270967E0,2.671284142E0
1.523367854E1,-2.349358259E-1,-3.112355363E0,6.680502355E-1,3.191902546E0
1.524364854E1,3.729721787E-1,-4.104631367E-1,3.649270093E0,3.691173315E0
1.525361854E1,-1.930844456E0,2.149120724E-1,8.605616248E-1,2.124832658E0
1.526358754E1,-2.569107806E0,3.971951028E0,-5.042360451E0,6.913906913E0
1.527355754E1,1.322847391E-1,2.465501869E0,-2.307713000E0,3.379606191E0
1.528352754E1,4.700229850E-1,3.445698403E0,-1.589736314E0,3.823744322E0
1.529349754E1,7.376743479E-1,-3.302967869E0,2.832355594E0,4.413161950E0
1.530346754E1,-6.410534947E-1,-6.904336694E-1,4.533646842E0,4.630507739E0
1.531343754E1,4.270808140E-1,2.489651162E0,-1.259147020E0,2.822447900E0
1.532340754E1,3.116117461E0,8.989442101E-1,-3.234030658E0,4.580092032E0
1.533337754E1,1.173325682E0,2.799441909E0,-4.795847687E0,5.675713452E0
1.534334754E1,-9.170895821E-1,-4.248075846E0,2.033358718E0,4.798098517E0
1.535331654E1,1.538322039E-1,-4.647457925E0,4.751950884E0,6.648576293E0
1.536328654E1,2.230604890E0,3.147521980E0,5.620322050E0,6.816928395E0
1.537325654E1,-2.210359198E0,-7.469309288E-1,4.422851461E-1,2.374702034E0
1.538322696E1,-9.197975738E-1,-1.143247897E0,3.682360071E-1,1.512825531E0
1.539319696E1,5.125037376E-1,-2.323707182E0,1.597218996E0,2.865900149E0
1.540316696E1,4.324518836E-1,-4.639896306E0,3.932347251E0,6.097459082E0
1.541313696E1,-4.789667399E-1,2.065338018E0,-3.455713806E0,4.054255564E0
1.542310696E1,-3.260785178E0,1.633350695E0,-5.710296666E0,6.775547394E0
1.543307596E1,-3.462340748E0,-2.523611790E0,9.134227931E-1,4.380726095E0
1.544304596E1,-3.312338032E0,-2.151314892E0,3.242882173E0,5.110383918E0
1.545301596E1,3.175060026E-2,-6.594440112E-1,1.346275211E0,1.499443713E0
1.546298596E1,1.711395968E0,2.749127496E0,2.036591644E0,3.825478228E0
1.547295596E1,-1.061072882E0,-1.620468402E0,7.769142812E-1,2.086956948E0
1.548292596E1,-1.662756051E0,-3.196920719E0,4.861337671E0,6.051253070E0
1.549289596E1,-1.605275728E0,1.118988968E0,1.200462610E0,2.295682241E0
1.550286596E1,-4.209956532E-1,1.912404969E0,2.934997618E0,3.528277359E0
1.551283496E1,-5.259289082E-1,4.110178621E0,-7.575594127E-1,4.212370565E0
1.552280496E1,-1.062095706E0,1.085355492E0,-7.223713952E0,7.381604642E0
1.553277496E1,-1.704420386E0,-4.788581352E0,-2.084726508E0,5.493782379E0
1.554274496E1,-3.876046166E0,-3.147572558E0,-4.908593114E0,7.001802143E0
1.555271496E1,-3.353623760E0,1.438493111E0,-4.485842346E0,5.782632299E0
1.556268496E1,7.738109446E-1,3.545477922E0,5.115348905E-1,3.664814459E0
1.557265496E1,7.132848805E-1,-5.994685355E-1,2.598841774E0,2.760818070E0
1.558262496E1,2.127048070E0,-5.580532333E0,2.837000037E0,6.611750435E0
1.559259496E1,3.396833514E0,1.626143417E0,-1.599752010E0,4.091702192E0
1.560256396E1,2.614907292E0,4.039752709E0,6.340018988E-2,4.812625238E0
1.561253396E1,3.555439531E0,2.810294634E-1,4.131473011E0,5.457948063E0
1.562250396E1,1.114202803E0,-1.334408872E0,1.810531855E-2,1.738511641E0
1.563247396E1,4.759563959E0,5.549814570E0,-7.529702255E0,1.049525164E1
1.564244396E1,2.280103910E0,1.800651522E0,-5.610748404E0,6.318363506E0
1.565241396E1,1.355539539E0,7.382212088E-1,-7.197729510E-1,1.703094565E0
1.566238396E1,-8.913752087E-1,-3.281756802E0,6.226426299E0,7.094565661E0
1.567235396E1,-1.842066473E0,-1.970038635E0,4.701851356E0,5.420485891E0
1.568232296E1,3.692646785E-1,5.647851911E0,-5.941882074E-2,5.660222452E0
1.569229296E1,-1.273846335E0,1.747124063E0,1.024402946E0,2.392598666E0
1.570226296E1,-2.522520407E0,-2.646593646E0,4.543614006E-1,3.684292526E0
1.571223296E1,1.636618119E-1,-2.397066057E0,2.599250495E0,3.539606476E0
1.572220296E1,-1.309741588E-1,-4.884115500E0,1.855339653E0,5.226282012E0
1.573217296E1,1.645145406E0,3.434691019E0,-3.441461803E0,5.132958713E0
1.574214296E1,2.265078320E-1,-4.020677337E0,-2.187100729E0,4.582636975E0
1.575211296E1,7.350783303E-1,-1.738969829E0,-1.712678701E0,2.549043850E0
1.576208196E1,1.087862997E0,2.411365423E-1,1.584065684E0,1.936712891E0
1.577205196E1,-1.216585576E0,-8.100191697E0,4.698392728E0,9.442885164E0
1.578202196E1,-5.357975464E-1,5.577954295E-1,1.308208668E0,1.519744936E0
1.579199196E1,8.288848456E-2,4.636488256E-1,5.068366528E-3,4.710269872E-1
1.580196196E1,1.864096370E-1,-5.024360383E0,4.618271255E0,6.826959440E0
1.581193196E1,1.574097936E0,1.283616156E0,5.671454782E0,6.024189081E0
1.582190196E1,-3.203035664E-1,3.819028797E0,6.655803716E-1,3.889803665E0
1.583187196E1,4.610348644E-1,5.210915798E0,-2.854895441E0,5.959582584E0
1.584184096E1,-1.850365646E-1,-4.033982677E0,-7.302722699E0,8.344879483E0
1.585181096E1,6.081121089E-1,-5.570657555E0,-9.256452865E0,1.082053352E1
1.586178096E1,1.713715120E0,-3.844503361E0,-7.663182494E0,8.743076778E0
1.587175096E1,5.877383996E-1,1.362360024E0,-2.850752104E0,3.213759297E0
1.588172096E1,1.064413104E0,2.825937105E0,5.574020873E0,6.339448279E0
1.589169096E1,-5.049854974E-1,-1.000465322E0,1.066280939E1,1.072154118E1
1.590166096E1,2.530578748E0,-1.801141226E0,4.948302140E0,5.842399557E0
1.591163096E1,2.898113381E0,2.321980206E0,1.477587302E0,3.996738356E0
1.592160096E1,-6.957129011E-1,4.545917224E0,4.452212085E0,6.400904022E0
1.593156996E1,-7.616673741E-1,8.563782343E-1,3.721269783E0,3.893760350E0
1.594153996E1,1.755159015E0,-2.049858391E-2,-1.983949746E0,2.648973377E0
1.595150996E1,6.196392368E-1,-1.894249365E-1,-5.815173495E0,5.851160344E0
1.596147996E1,-1.743937916E-1,1.700707404E0,1.090575886E-1,1.713100238E0
1.597144996E1,1.252605447E0,4.941909379E0,-2.475776011E0,5.667535230E0
1.598141996E1,-3.129611081E0,2.443393839E0,-2.165472463E0,4.522599911E0
1.599138996E1,-2.635488614E0,1.503119169E0,1.559493930E0,3.411332407E0
1.600135996E1,-1.731387160E0,4.197675771E0,-1.714850941E0,4.853750831E0
1.601132896E1,-1.955685329E-1,3.206000860E0,-6.170566678E-1,3.270695262E0
1.602129896E1,1.806219533E0,-1.066481557E0,-2.642984160E0,3.374192819E0
1.603126896E1,-3.838034148E-1,-2.547324004E0,-3.752147759E0,4.551348970E0
1.604123896E1,7.662622623E-1,-6.728785738E-1,-1.662346453E0,1.950210030E0
1.605120896E1,1.079174912E-1,-3.218292877E0,-2.589313152E0,4.132021034E0
1.606117896E1,-5.347549513E-1,-4.536815448E0,-1.324280909E0,4.756298687E0
1.607114896E1,-2.442405367E-1,-2.546218003E0,2.857463538E0,3.835098099E0
1.608111896E1,-5.153575078E-1,7.772294462E-2,5.446924040E0,5.471801871E0
1.609108896E1,2.555381759E0,4.645500569E0,1.418711103E0,5.488478174E0
1.610105796E1,-1.805713310E0,2.253168711E0,-1.393717765E0,3.206215683E0
1.611102796E1,1.634468975E0,-1.493654574E0,-3.421293586E-1,2.240434180E0
1.612099796E1,3.780693574E0,-4.774330518E0,-3.986208293E0,7.278580380E0
1.613096796E1,-8.389508273E-1,-2.932608445E0,1.160336677E0,3.263496896E0
1.614093796E1,-2.173879297E-1,-1.609930258E0,3.580865271E0,3.932140516E0
1.615090796E1,-5.155425721E-1,-3.684045531E0,7.433391597E0,8.312237138E0
1.616087796E1,2.221131012E-1,-8.959630072E-2,8.875792109E0,8.879022880E0
1.617084796E1,5.590448041E0,1.532083645E0,-4.527195024E-1,5.814236368E0
1.618081696E1,3.191278741E-2,2.364226924E0,-6.860927550E0,7.256921814E0
1.619078696E1,-1.356910127E0,-2.389064434E0,-6.405864483E-1,2.821202751E0
1.620075696E1,-8.383575542E-1,-1.801458438E0,-1.431476744E0,2.448922531E0
1.621072696E1,-4.575034604E0,-1.650885910E0,-5.999434463E0,7.723314042E0
1.622069696E1,-1.345265982E0,-3.322953652E0,1.114169986E0,3.754082616E0
1.623066696E1,-4.588041151E-1,-3.975017892E0,2.708622079E0,4.831966683E0
1.624063696E1,-5.354317665E-1,-1.011737000E0,6.607019811E0,6.705446273E0
1.625060696E1,-3.053053779E0,2.851026338E-1,1.186484490E1,1.225467116E1
1.626057696E1,4.883644580E-1,3.928137841E0,3.372559968E0,5.200281480E0
1.627054596E1,-4.899572030E-1,4.160190441E0,-3.556800470E0,5.495277259E0
1.628051596E1,-2.206544183E0,2.691972717E0,-4.733007660E0,5.875109858E0
1.629048596E1,1.273774707E0,2.314805965E0,-1.143371565E1,1.173501948E1
1.630045596E1,-6.847809467E-1,-2.756397631E0,-8.992783785E0,9.430631636E0
1.631042596E1,-2.614337773E0,-8.157731223E-1,-6.190275888E0,6.769029720E0
1.632039596E1,-2.362710887E0,-5.741322577E-1,-1.154944375E0,2.691825978E0
1.633036596E1,-1.067437576E0,-2.170216894E0,8.336422133E-1,2.558168033E0
1.634033596E1,7.952968309E-1,-2.424896757E0,-7.411380923E-1,2.657424882E0
1.635030496E1,1.839314627E0,6.664128982E0,-4.485907250E0,8.241180573E0
1.636027496E1,2.151450255E0,4.381479194E0,-1.076511578E0,4.998497305E0
1.637024496E1,-1.047063100E-1,1.811397243E0,1.648354651E0,2.451366239E0
1.638021496E1,-3.817545504E-1,6.812725443E-1,8.407150639E0,8.443343572E0
1.639018408E1,-1.547455390E-1,-4.259855647E0,7.513992541E0,8.638888830E0
1.640015408E1,2.317298487E0,2.560432877E0,-1.042141644E0,3.607180062E0
1.641012408E1,2.174937935E0,-3.227288818E-1,-1.149026992E0,2.480881292E0
1.642009408E1,2.566084211E0,3.115190970E0,-3.182795016E0,5.139979287E0
1.643006408E1,9.875618331E-2,-2.297856349E-1,-1.497298266E0,1.518043583E0
1.644003308E1,-2.994023213E0,-2.890334246E0,6.569294161E-1,4.213046796E0
1.645000308E1,-8.920753397E-1,3.403629148E-1,1.957692239E0,2.178119425E0
1.645997308E1,-3.891395984E0,-2.279157830E0,1.208442305E0,4.668817401E0
1.646994308E1,-6.596738067E-1,-1.020646695E0,-5.670530337E-1,1.341058668E0
1.647991308E1,-1.784839628E0,-2.383971802E0,5.002626867E0,5.821962695E0
1.648988308E1,-6.219379234E-1,-2.061485872E0,7.078388423E0,7.398656192E0
