"Time (s)","Linear Acceleration x (m/s^2)","Linear Acceleration y (m/s^2)","Linear Acceleration z (m/s^2)","Absolute acceleration (m/s^2)"
3.719208296E-3,-5.490921414E0,2.765341533E0,-2.560907378E0,6.659998376E0
1.368920831E-2,-1.289546548E0,2.407830196E0,5.136710538E0,5.817763463E0
2.365920832E-2,-4.765925730E0,-2.896431722E0,8.051202555E0,9.794142503E0
3.362920834E-2,1.872446559E-1,-1.629789156E0,1.258677489E-1,1.645331561E0
4.359920829E-2,-4.326742970E-1,-7.092956176E-1,-6.867434916E0,6.917511810E0
5.356920831E-2,-9.826571155E-1,-7.513601947E-1,-1.716978158E0,2.116168978E0
6.353920832E-2,-8.103116036E-1,1.536916661E0,-3.462020613E0,3.873539007E0
7.350920833E-2,-3.515486091E0,-4.645396489E-1,-5.085919869E0,6.200082294E0
8.347920829E-2,-3.311206888E0,2.289860281E-1,-3.539582759E0,4.852336732E0
9.344920830E-2,-2.318661619E0,2.984861211E0,1.019938597E0,3.914826036E0
1.034192083E-1,-2.397511615E0,2.267322481E0,4.807833894E0,5.831301735E0
1.133892083E-1,-9.167596529E-1,1.082674543E0,1.964190835E0,2.422948217E0
1.233592083E-1,-2.475885354E0,-1.168881798E0,-1.988639798E0,3.383929844E0
1.333292083E-1,-2.111032692E0,2.200680302E0,-3.238161131E0,4.448049048E0
1.432992083E-1,2.460222710E0,5.386764961E0,-4.856214926E0,7.658508728E0
1.532692083E-1,1.520871609E0,3.862293222E0,-3.341692516E0,5.328908730E0
1.632392083E-1,-1.802556252E-1,-7.117549565E-1,3.473041445E-1,8.122237237E-1
1.732092083E-1,1.092364037E-1,3.442173994E-1,3.244087869E-1,4.854474956E-1
1.831792083E-1,1.804665782E0,3.962754527E-1,1.336251914E0,2.280224111E0
1.931492083E-1,1.682576650E0,6.438877863E-1,7.000614023E-1,1.932806672E0
2.031192083E-1,3.257975298E0,5.064578701E0,-2.422403796E0,6.490947590E0
2.130892083E-1,4.930280437E0,5.242109524E0,-2.687692555E0,7.681866226E0
2.230592083E-1,3.889613168E0,4.372974712E0,-6.992855353E0,9.118773186E0
2.330292083E-1,3.486795558E0,5.402865270E0,-1.042071361E1,1.224499769E1
2.429992083E-1,4.883690115E0,1.937235463E0,-4.178555376E0,6.712945360E0
2.529692083E-1,5.362287347E0,4.353693518E-1,-1.094142687E0,5.490065600E0
2.629392083E-1,4.367571300E0,5.702940284E0,-2.352693876E0,7.558728426E0
2.729092083E-1,4.980778161E0,9.140692613E0,4.253495046E0,1.124511595E1
2.828792083E-1,4.448642945E0,5.694351894E0,9.827358044E0,1.219807500E1
2.928492083E-1,1.854778905E0,2.810166580E0,1.784102440E-2,3.367129237E0
3.028192083E-1,5.081974168E0,6.091258553E0,-2.029787824E0,8.188402214E0
3.127892083E-1,6.329240815E0,4.081233149E0,-3.462838054E-2,7.531065823E0
3.227592083E-1,3.985192924E0,1.247754013E0,-5.664895960E0,7.037733936E0
3.327292083E-1,2.838252219E0,2.121001464E-1,-7.598105907E0,8.113684460E0
3.426992083E-1,-3.124032106E-2,7.280815521E-1,-4.297853778E0,4.359200133E0
3.526692083E-1,-2.456384013E0,1.257579381E0,5.562326442E0,6.209251466E0
3.626392083E-1,-3.198905264E0,2.080113055E0,8.373732632E0,9.202133633E0
3.726092083E-1,-2.117897324E0,-2.333825496E-1,3.192242362E0,3.838016126E0
3.825792083E-1,-1.209869172E0,-3.171066378E0,6.238441157E-1,3.450887837E0
3.925492083E-1,-3.074558376E0,-1.980127421E0,1.928978902E0,4.134582617E0
4.025192083E-1,-4.911800312E0,3.615084931E-1,2.378257318E0,5.469239304E0
4.124892083E-1,-2.011759250E0,2.390521268E0,-1.001185407E0,3.280874797E0
4.224592083E-1,-2.786563161E-1,5.756183276E-1,-1.907091604E0,2.011463196E0
4.324292083E-1,-8.079301058E-1,-2.203249861E0,2.829637223E0,3.676126742E0
4.423992083E-1,-8.840931594E-2,-2.679986802E0,-9.787250823E-1,2.854478631E0
4.523692083E-1,-5.763545505E0,-4.724463124E0,-8.736640656E-1,7.503485689E0
4.623392083E-1,-2.682327150E0,-3.150260815E0,-1.034855429E0,4.264967515E0
4.723092083E-1,-3.643649457E0,-6.052072853E-1,-6.491438484E-1,3.750179323E0
4.822792083E-1,-4.602186735E0,-3.713245064E-2,-1.175524819E0,4.750090542E0
4.922492083E-1,-2.513046749E0,1.274549755E-1,-1.149726904E0,2.766499717E0
5.022192083E-1,-3.637413109E0,-2.001578516E0,1.599674242E0,4.449275038E0
5.121892083E-1,6.663342239E-1,-8.422762120E-1,1.537002030E0,1.875048201E0
5.221592083E-1,1.859965824E0,1.583923012E-2,6.869186157E-1,1.982821457E0
5.321292083E-1,5.076094354E-1,-2.720008947E0,1.726384574E0,3.261367766E0
5.420992083E-1,2.444478643E0,-1.473201306E0,-6.938908356E-1,2.937223590E0
5.520692083E-1,3.836651427E0,6.480185518E-1,7.700899959E-2,3.891754438E0
5.620392083E-1,6.860013337E-1,9.797196937E-1,-3.515422064E-1,1.246607569E0
5.720092083E-1,3.940189244E0,1.041250821E0,1.921557031E0,4.505738117E0
5.819792083E-1,4.238192298E0,3.001554427E0,-2.279382656E0,5.671612489E0
5.919492083E-1,2.909318108E0,3.668266819E0,-4.285696832E0,6.347244335E0
6.019192083E-1,4.398422671E0,1.163297122E0,-2.216153789E0,5.060703489E0
6.118892083E-1,6.164359859E0,-2.899682774E0,7.442780471E-1,6.852841926E0
6.218592083E-1,2.640868929E0,-4.383082501E0,3.503178579E0,6.201440242E0
6.318292083E-1,1.716950092E0,3.553803188E-1,9.160084319E-1,1.978202274E0
6.417992083E-1,1.238363677E0,4.184245009E0,-1.992315357E0,4.796954385E0
6.517692083E-1,-9.072037677E-1,3.883088845E0,-1.014129388E0,4.114590632E0
6.617387083E-1,-2.346877504E0,1.952014008E-1,-3.905564080E0,4.560632455E0
6.717087083E-1,-2.287859218E0,-8.517799839E-1,-5.429216917E0,5.952833382E0
6.816787083E-1,-2.219825110E0,-3.564410037E-1,7.709360880E-1,2.376765903E0
6.916487083E-1,-2.848818430E0,4.567332359E0,3.285283842E0,6.306296952E0
7.016187083E-1,-4.868560152E0,4.117944893E0,2.764234947E0,6.949916757E0
7.115887083E-1,-2.097029342E0,4.680472181E0,2.903324420E0,5.893525650E0
7.215587083E-1,-2.987683954E0,-1.948289624E0,5.625033152E-1,3.610886020E0
7.315287083E-1,-2.786462845E0,7.310349807E-1,-2.759817960E0,3.989408791E0
7.414987083E-1,-2.747152014E0,7.287671381E0,-5.707099409E0,9.655463842E0
7.514687083E-1,-2.236778527E0,3.932604529E0,-3.968851418E0,6.018333502E0
7.614387083E-1,6.801114334E-1,-3.681410191E0,7.007127821E-1,3.808717758E0
7.714087083E-1,-2.006908253E0,-2.067873370E0,3.197807157E-1,2.899317285E0
7.813787083E-1,-4.694341704E-1,1.433808029E0,-9.997569323E-3,1.508732533E0
7.913487083E-1,-1.222800801E-1,1.863392731E0,1.255383167E0,2.250149280E0
8.013187083E-1,-1.653350219E0,2.563594759E-1,8.842405093E-1,1.892397529E0
8.112887083E-1,-7.406038029E-1,-1.880449351E0,1.525789994E-1,2.026786645E0
8.212587083E-1,-2.486147510E0,-1.425500890E0,-3.936427438E-1,2.892738640E0
8.312287083E-1,-1.724145091E0,-2.148261184E0,-5.240520251E-1,2.803985187E0
8.411987083E-1,-5.258458924E0,-8.757600001E-1,1.570365658E0,5.557372952E0
8.511687083E-1,-4.499074595E0,-1.599933858E0,9.645075774E-1,4.871522906E0
8.611387083E-1,-4.308183762E0,-3.493659897E0,2.038193196E-1,5.550463865E0
8.711087083E-1,-2.282474809E0,-1.231526820E0,-1.871154617E0,3.198057092E0
8.810787083E-1,-2.636766230E0,-8.600073087E-1,2.446526484E0,3.698329429E0
8.910487083E-1,-3.120690276E0,-1.423210536E0,4.803080692E0,5.902018313E0
9.010187083E-1,4.937840960E-1,9.184709868E-1,1.118168896E-1,1.048768184E0
9.109887083E-1,-8.124676913E-1,-7.232529214E-1,1.960589535E0,2.242121732E0
9.209587083E-1,1.567459811E-1,6.387086150E-1,1.345026246E0,1.497201923E0
9.309287083E-1,2.459264059E0,2.334734738E0,-5.030728000E-1,3.428126055E0
9.408987083E-1,3.086543706E0,2.765733004E-4,-1.856865776E0,3.602041454E0
9.508687083E-1,1.176797027E0,-1.192284401E0,-2.048877228E0,2.646562154E0
9.608387083E-1,1.532053093E0,1.172047480E0,-3.781889037E0,4.245417137E0
9.708087083E-1,-3.367483123E-1,4.466923095E0,-3.759139860E0,5.847899952E0
9.807787083E-1,-1.242329405E-1,8.998736250E-1,1.125307762E0,1.446210194E0
9.907487083E-1,-1.771988178E0,-2.039347144E0,5.278420148E0,5.929637269E0
1.000718708E0,-1.648354358E0,1.452251317E0,2.678079148E0,3.463843804E0
1.010688708E0,-1.039971962E0,3.052471981E0,-2.282524949E0,3.950828650E0
1.020658708E0,2.063076753E0,-5.758618641E-1,-3.478888661E0,4.085409268E0
1.030628708E0,2.267999881E0,-3.041804905E0,1.564744145E-1,3.797484007E0
1.040598708E0,2.258762157E0,-3.186070333E0,3.131007981E0,5.005623001E0
1.050568708E0,1.676456954E0,-3.700062516E-1,5.037973285E0,5.322460650E0
1.060538708E0,1.227161873E0,6.448350352E-1,3.521073983E0,3.784138010E0
1.070508708E0,2.287701489E0,5.104882389E-1,-2.170080069E0,3.194279864E0
1.080478708E0,1.904068448E0,1.254386802E0,-5.587924967E0,6.035218997E0
1.090448708E0,2.626099740E0,6.925813517E-1,-1.026134892E0,2.903277732E0
1.100418708E0,1.883687685E0,-1.392948271E0,2.375712610E0,3.336554298E0
1.110388708E0,-1.135127868E0,-7.239043012E-1,-2.322022891E-1,1.366188354E0
1.120358708E0,-9.602443725E-3,3.604110585E0,-1.614615047E-1,3.607738229E0
1.130328708E0,1.546002649E0,-5.605813354E-1,-4.988651437E-1,1.718499944E0
1.140298708E0,3.749467980E0,-1.266186483E0,-2.454403853E-1,3.965095122E0
1.150268708E0,3.161406193E0,2.176697070E0,-4.912218388E0,6.233970544E0
1.160238708E0,2.950126411E0,1.859116369E0,-4.233163108E0,5.484453429E0
1.170208708E0,2.308784649E0,1.293032512E0,-5.934197078E0,6.497469861E0
1.180178708E0,1.172741910E0,1.965509382E-1,-5.220949035E0,5.354648886E0
1.190148708E0,1.844373785E0,-2.727900934E0,-1.670701540E-1,3.297130661E0
1.200118708E0,2.294635702E0,-2.541068360E0,3.271538792E0,4.735540886E0
1.210088708E0,3.335818403E0,-8.948719168E-1,4.762612113E0,5.883107538E0
1.220058708E0,2.455162237E0,6.130998570E-1,3.332014205E0,4.184020997E0
1.230028708E0,8.057428817E-1,2.252356533E0,2.160916312E0,3.223645584E0
1.239998708E0,2.561930056E0,-2.060692405E0,2.552440610E0,4.162318088E0
1.249968708E0,1.980934922E0,-8.752939770E-1,8.027917188E-1,2.309700685E0
1.259938708E0,5.779007882E-1,2.923916852E0,1.107274949E0,3.179515197E0
1.269908708E0,7.540665054E-1,1.361289107E0,-4.418910438E-1,1.617711971E0
1.279878708E0,-1.519205298E-1,-2.907830577E0,1.133737108E0,3.124726922E0
1.289848708E0,-1.553324825E0,-7.708586124E-1,4.354202226E0,4.686802539E0
1.299818708E0,-8.266639269E-1,2.924613840E0,1.761981254E0,3.513021107E0
1.309788708E0,-1.256048288E0,-3.472515196E-1,-2.319461226E0,2.660477645E0
1.319758708E0,-1.519693979E0,-3.425353016E0,-2.266117662E0,4.379246777E0
1.329728708E0,-1.103049897E0,-1.806353727E0,-1.805247726E0,2.781825338E0
1.339698708E0,-2.203206592E0,3.277732748E-1,-3.906934083E-2,2.227797347E0
1.349668708E0,-1.692105565E0,8.190458089E-1,2.467273575E0,3.101853667E0
1.359638708E0,5.052736920E-1,-2.311289157E0,2.055945928E0,3.134369590E0
1.369608708E0,7.272260313E-1,-3.122710489E0,1.567381239E0,3.568874115E0
1.379578708E0,3.345095596E-1,1.083504556E0,-1.528163964E-1,1.144216596E0
1.389548708E0,7.226519007E-1,1.252081829E0,1.357917017E0,1.983399431E0
1.399518708E0,5.469962069E-1,-1.465734704E0,2.086233920E0,2.607672342E0
1.409488708E0,1.621820863E0,-3.124816364E-1,-1.790623255E0,2.436037628E0
1.419458708E0,8.135036717E-1,1.253001012E0,-1.286493278E0,1.971513305E0
1.429428708E0,1.611470268E0,-7.292843243E-1,2.211438010E0,2.831810397E0
1.439398708E0,1.399510894E0,-2.385827124E0,3.451190400E-1,2.787455642E0
1.449368708E0,1.272689610E-1,-1.400210805E0,-1.984095342E0,2.431752868E0
1.459338708E0,9.445540271E-1,1.133361717E0,-4.056897622E0,4.316840211E0
1.469308708E0,5.609182812E-1,3.006984151E0,-3.098521435E0,4.354011724E0
1.479278708E0,1.084562536E0,2.959659419E0,-2.717413952E0,4.161754241E0
1.489248708E0,1.982479756E0,8.019561517E-1,-7.279917973E-1,2.259055490E0
1.499218708E0,2.619409063E0,1.773061143E0,-2.686114392E0,4.149730133E0
1.509188708E0,-6.436855457E-1,-1.737006041E-1,-3.681341486E0,3.741226820E0
1.519158708E0,-3.840454164E-1,-9.599803707E-1,1.177126957E0,1.566742182E0
1.529128708E0,-2.691797154E-1,1.075025216E0,3.232895713E0,3.417565161E0
1.539098708E0,-1.308039683E0,-5.215131640E-1,3.115615185E0,3.419064459E0
1.549068708E0,7.034251593E-2,3.201351739E0,2.599484383E0,4.124429668E0
1.559038708E0,2.776348624E0,3.895027105E0,-1.255122381E-1,4.784882564E0
1.569008708E0,-2.798132426E-1,-1.161297959E-1,1.030621460E0,1.074226314E0
1.578978708E0,-2.774787125E0,-4.476996093E0,8.166887963E-1,5.330095515E0
1.588948708E0,-9.079312344E-1,-3.591038257E-1,-9.836770892E-1,1.385970887E0
1.598918708E0,-2.124170363E0,7.617743781E-1,-1.184369318E0,2.548554613E0
1.608888708E0,-9.550106759E-1,6.708776566E-1,1.320716447E0,1.762502242E0
1.618858708E0,9.666969211E-1,1.932441038E0,-4.806294322E-1,2.213557308E0
1.628828708E0,-4.364646815E-2,-4.479113370E-1,-4.790959999E0,4.812050217E0
1.638798708E0,-9.748098598E-1,-3.006983859E0,2.584583339E0,4.083169997E0
1.648768708E0,2.107928552E-2,3.318256584E0,2.830236563E0,4.361365623E0
1.658739208E0,-2.104959628E-1,4.258381272E0,-1.844517041E0,4.645466900E0
1.668709208E0,-5.597483265E-1,7.395292309E-1,-3.108622500E0,3.244033835E0
1.678679208E0,-1.327705185E0,-3.082628703E0,-2.129025013E0,3.974688452E0
1.688649208E0,-2.605407467E-1,-1.343782835E0,-1.024288341E0,1.709619956E0
1.698619208E0,-2.188550254E0,2.065933849E0,-1.202568192E0,3.240988296E0
1.708589208E0,-1.278562846E0,-1.931420115E-1,4.032040524E0,4.234309575E0
1.718559208E0,-1.555146233E0,-1.935074917E0,6.294062796E0,6.765960480E0
1.728529208E0,-1.927259236E0,1.093204209E0,-4.293392352E0,4.831422306E0
1.738499208E0,1.938297171E-1,2.228993398E0,-5.114233257E0,5.582236409E0
1.748469208E0,-1.627090082E0,-2.757225305E-1,2.661851370E-1,1.671615857E0
1.758439208E0,-1.306580657E0,-1.379894947E0,-2.442688957E0,3.094833181E0
1.768409208E0,7.350967491E-1,-2.484044851E0,-8.284978330E-1,2.719789461E0
1.778379208E0,5.048595630E-2,-2.133371249E0,1.707595716E0,2.733076078E0
1.788349208E0,1.096612405E-1,-1.033281358E0,2.960596143E0,3.137646487E0
1.798319208E0,-4.349655285E-1,3.290483479E0,5.148955777E0,6.126028251E0
1.808289208E0,5.245333971E-1,3.965080257E0,2.446838726E0,4.688711601E0
1.818259208E0,9.357591569E-1,-1.289276553E0,-6.204199862E-1,1.709619896E0
1.828229208E0,-4.696470456E-1,8.567056784E-1,-4.685643459E0,4.786414900E0
1.838199208E0,9.814595327E-1,4.719325760E-1,1.162496054E0,1.592915643E0
1.848169208E0,2.807168566E-1,-2.858249404E0,-6.915870327E-1,2.954096179E0
1.858139208E0,1.257855809E0,-2.920627793E0,9.209551764E-1,3.310653467E0
1.868109208E0,2.557431793E-1,-7.835002926E-1,4.838853958E0,4.908542035E0
1.878079208E0,2.827569063E0,-6.779320300E-2,-6.482609189E-1,2.901721032E0
1.888049208E0,4.060684864E0,4.966929030E-1,-4.433082334E0,6.032253674E0
1.898019208E0,2.618774348E0,-2.376650503E-1,-4.331270615E0,5.066988149E0
1.907989208E0,2.080740461E0,-1.911904448E0,-5.777860658E0,6.431837472E0
1.917959208E0,-1.609376234E0,-2.834086370E0,2.537884551E-1,3.269028295E0
1.927929208E0,-2.408920263E0,-9.901537576E-1,1.125425759E1,1.155169317E1
1.937899208E0,-3.046913325E0,4.006322131E-1,1.512286200E1,1.543195199E1
1.947868208E0,-9.423920191E-1,-8.085997581E-2,8.909520603E0,8.959586957E0
1.957838208E0,2.224791004E-1,8.793659779E-1,-2.370607406E-1,9.375389421E-1
1.967808208E0,2.736213335E0,5.202126848E0,-1.095460416E1,1.243190812E1
1.977778208E0,2.967908379E0,3.787608491E0,-8.734903448E0,9.972612319E0
1.987748208E0,1.157741609E0,2.369747865E-1,-4.084715166E0,4.252225379E0
1.997718208E0,3.842904148E-1,2.050463578E0,-4.949999587E0,5.371645550E0
2.007688208E0,-1.330850987E0,7.020819077E-1,-8.643500358E0,8.773493135E0
2.017658208E0,-1.966634971E0,-4.458590228E0,-2.040149674E0,5.282886581E0
2.027628208E0,5.631865624E-1,-1.990447757E0,3.063686648E0,3.696652168E0
2.037598208E0,-6.331111486E-1,3.924712834E0,1.453281012E0,4.232756342E0
2.047568208E0,1.071435025E0,5.305499774E0,1.418547966E0,5.595406973E0
2.057538208E0,1.443024703E0,-4.665455362E-1,5.467286968E-1,1.612109580E0
2.067508208E0,1.437565742E-1,-3.104815086E0,-2.942582041E0,4.280108847E0
2.077478208E0,1.624490702E0,8.069856343E-1,-2.628590654E0,3.193694519E0
2.087448208E0,2.632377603E0,3.490318505E0,4.562219846E-1,4.395437818E0
2.097418208E0,2.152390633E0,1.366339931E0,-3.581083957E0,4.395888142E0
2.107388208E0,2.231873151E0,-1.146077657E0,-3.948289100E0,4.678005833E0
2.117358208E0,3.203723077E-1,-2.935917092E0,5.796942462E0,6.505904203E0
2.127328208E0,-3.001919951E-1,5.606301597E-1,1.030251331E1,1.032212197E1
2.137298208E0,-8.268440212E-1,2.610343248E-2,9.909390972E0,9.943861516E0
2.147268208E0,-3.963057486E-1,1.837637792E0,3.825979382E-1,1.918424375E0
2.157238208E0,2.209623619E0,5.430329642E-1,-3.546033992E0,4.213274073E0
2.167208208E0,3.811253169E0,6.583517513E-1,-6.969074142E-1,3.929981895E0
2.177178208E0,3.528808168E-1,3.801060595E0,-5.930867674E0,7.053210466E0
2.187148208E0,-5.919618800E-1,9.655138832E-1,-6.368893708E0,6.468805376E0
2.197118208E0,-1.233278646E-1,-5.624784645E-1,3.365426949E0,3.414336002E0
2.207088208E0,1.532462252E0,5.313406963E0,5.167205522E0,7.568404523E0
2.217058208E0,-9.504164455E-1,2.847066604E0,7.243838899E0,7.841063809E0
2.227028208E0,-2.149891387E0,-3.053410167E0,2.219176800E0,4.343971949E0
2.236998208E0,-2.641926106E0,-4.331505966E0,-4.639154001E0,6.874843077E0
2.246968208E0,-3.308946062E0,-4.127687231E0,-6.380575275E-1,5.328606134E0
2.256938208E0,-3.890208122E-1,-6.131984410E0,3.028553653E-1,6.151771401E0
2.266908208E0,-9.001170885E-2,-4.168102893E-1,-6.902556217E-1,8.113481055E-1
2.276878208E0,9.197257262E-2,3.145035159E0,2.818668432E0,4.224286547E0
2.286848208E0,-2.169047158E0,1.358204993E0,1.842351233E0,3.153370330E0
2.296818208E0,6.535521374E-1,-4.812237140E0,1.205608159E0,5.003823310E0
2.306788208E0,2.152492521E0,1.658011035E0,-4.149825667E0,4.960169121E0
2.316758208E0,1.086661175E0,5.335481957E-1,-5.672888519E0,5.800618100E0
2.326728208E0,-1.116944782E0,-3.941673560E0,-4.586467080E0,6.149799702E0
2.336698208E0,-1.115983865E0,-4.519953833E0,-8.144469738E-1,4.726386200E0
2.346668208E0,4.178446618E-1,-3.921639830E-2,-2.209437677E0,2.248943516E0
2.356638208E0,1.090107597E0,2.692042884E0,-3.083657813E0,4.236080142E0
2.366608208E0,1.236529113E0,2.331109757E0,-1.337111455E0,2.958199450E0
2.376578208E0,-1.643977571E-1,1.714428772E0,-3.887745860E0,4.252159511E0
2.386548208E0,8.526564085E-1,-1.332412632E0,1.307467241E0,2.052271171E0
2.396518208E0,3.671722158E-1,-8.780304739E-1,1.252715667E1,1.256325624E1
2.406488208E0,-1.590129978E0,5.073878113E0,1.118774668E1,1.238702661E1
2.416458208E0,-1.556463610E0,4.788177601E0,2.925642657E-1,5.043294316E0
2.426428208E0,3.191310900E-1,-1.534341547E-1,2.372133529E-1,4.262122327E-1
2.436398208E0,1.227150398E-1,-6.498969698E-1,-5.439246646E0,5.479309183E0
2.446368208E0,1.018595857E0,-2.757112746E0,-1.003327242E1,1.045493968E1
2.456338208E0,4.321303598E-1,4.039081156E-2,-5.030292383E0,5.048981038E0
2.466308208E0,-2.224694232E0,1.520733907E0,1.511182480E0,3.089590350E0
2.476278208E0,-2.161554682E0,1.243155762E0,4.833036563E0,5.438381865E0
2.486248208E0,-2.547810785E0,3.354150009E-1,1.018514800E-1,2.571811957E0
2.496218208E0,5.205015957E-2,1.311371134E0,-1.700577303E0,2.148107687E0
2.506188208E0,1.079744357E0,2.185981572E-3,-6.088386401E0,6.183389170E0
2.516158208E0,1.426207234E0,-3.123493724E0,4.094621519E0,5.343800660E0
2.526128208E0,-2.829726394E-1,-1.756412950E-1,1.040896070E1,1.041428761E1
2.536098208E0,-1.888582828E0,3.334504534E0,6.947176319E0,7.934035820E0
2.546068208E0,-2.296333149E0,3.451033987E0,7.313492101E0,8.406541989E0
2.556038208E0,-1.677913934E0,4.585124852E0,3.450417983E0,5.978641094E0
2.566008208E0,1.656576128E-1,2.726475382E0,-5.222980943E0,5.894119136E0
2.575978208E0,1.318047485E0,-1.026481047E0,-7.504215996E0,7.687923662E0
2.585948208E0,-2.862660105E-1,1.160040808E0,-5.587040868E0,5.713376285E0
2.595918208E0,7.113952066E-1,1.645395960E0,-8.894931800E0,9.073765632E0
2.605888208E0,6.499444053E-1,-3.869461616E0,-7.639160378E0,8.587894516E0
2.615858208E0,8.941581910E-1,-6.408818496E0,-4.164178827E0,7.694989194E0
2.625828208E0,7.897272118E-1,-5.935985742E0,2.947769691E0,6.674499378E0
2.635798208E0,-1.901385161E0,-2.679442719E0,5.887970746E0,6.742616578E0
2.645768208E0,-4.330130701E-1,-8.192270726E-2,6.928747065E0,6.942747838E0
2.655738167E0,4.245622355E-1,-7.064339903E-1,3.304190229E0,3.405433180E0
2.665708167E0,1.200153073E0,1.911787211E0,8.115759909E-1,2.398739946E0
2.675678167E0,-2.207249942E0,3.530396783E0,6.361606908E-1,4.211929982E0
2.685648167E0,-2.439398436E0,3.628644624E0,-4.672978975E0,6.399567098E0
2.695618167E0,-2.179108316E0,-2.006875509E-1,-6.572524747E0,6.927255596E0
2.705588167E0,-2.589180420E0,-5.409269140E0,-1.648900781E0,6.219559604E0
2.715558167E0,-4.880255022E-1,-2.261955029E0,1.547383177E0,2.783703314E0
2.725528167E0,-9.650668636E-2,-4.027141142E-1,4.996026530E0,5.013160010E0
2.735498167E0,1.471528125E0,-4.264000154E-1,6.684804152E0,6.858120628E0
2.745468167E0,1.587759078E0,1.384631191E0,6.784351829E0,7.103915270E0
2.755438167E0,4.558144922E0,-2.225422503E0,1.378656507E-2,5.072413677E0
2.765408167E0,5.635514286E0,-2.343596193E0,-2.021102369E0,6.429332716E0
2.775378167E0,5.053587105E0,1.347367471E0,7.919030339E-1,5.289730820E0
2.785348167E0,1.818710648E0,5.028036527E0,6.090746337E-1,5.381433977E0
2.795318167E0,-2.044777161E0,4.867678100E0,-3.913095878E0,6.571736686E0
2.805288167E0,6.208970460E-1,2.747039748E0,-4.297335715E0,5.137979638E0
2.815258167E0,-7.461259134E-2,-1.239314434E-1,-5.270802396E0,5.272787113E0
2.825228167E0,-8.716398326E-1,-2.734251887E0,-4.571218711E0,5.397400289E0
2.835198167E0,-1.554839254E0,-7.020425559E0,1.012929540E0,7.261537467E0
2.845168167E0,-3.339248380E0,-3.520940666E0,4.587588576E0,6.677841857E0
2.855137167E0,-1.608027574E0,2.875874666E0,4.049160587E0,5.220355278E0
2.865107167E0,1.570286428E0,4.350006849E-1,7.392752278E0,7.570192290E0
2.875077167E0,1.115441901E0,3.210635948E-1,7.510942633E0,7.600102085E0
2.885047167E0,9.716574065E-2,4.974195365E0,-4.709095472E0,6.850375236E0
2.895017167E0,-2.719080409E0,2.230233007E0,-4.566912237E0,5.764028532E0
2.904987167E0,6.034737320E-1,3.972882197E0,-7.361645091E0,8.387001368E0
2.914957167E0,-2.758360396E-1,4.297859625E0,-7.703802516E0,8.825885570E0
2.924927167E0,-2.856289563E-1,3.096878368E-1,-6.917523335E0,6.930340507E0
2.934897167E0,-4.893196372E-1,-7.676753297E0,4.491441640E0,8.907582326E0
2.944867167E0,1.713473922E-1,-3.864029553E0,1.101870134E1,1.167783642E1
2.954837167E0,7.887233911E-1,2.500742160E0,5.955624200E0,6.507323225E0
2.964807167E0,5.648029082E0,7.071034380E0,-4.814888560E0,1.025099564E1
2.974777167E0,3.368000894E0,-2.233598372E-1,-4.560939891E0,5.674107183E0
2.984747167E0,2.301940629E0,2.499351400E-1,-5.172496083E0,5.667108077E0
2.994717167E0,4.758911410E0,2.959864364E0,-3.319131619E0,6.513422262E0
3.004687167E0,2.540746763E0,-2.274490290E0,1.381118184E-1,3.412883688E0
3.014657167E0,-1.320644087E-1,-3.389023973E0,2.912205171E0,4.470331470E0
3.024627167E0,-1.851424357E0,1.580306509E0,-5.623027557E-1,2.498264438E0
3.034597167E0,-1.625330947E0,-5.258664161E-1,8.020438600E0,8.200345816E0
3.044567167E0,7.083753390E-1,-1.720823872E-1,6.841154020E0,6.879883451E0
3.054537167E0,1.118517537E-1,3.324802834E-1,-1.803711662E0,1.837506385E0
3.064507167E0,3.085056759E-1,-2.101251909E0,1.828963448E0,2.802774095E0
3.074477167E0,1.369446850E0,1.880380646E0,3.748989093E-1,2.356218420E0
3.084447167E0,6.733619924E-1,2.453396378E0,-6.879353880E0,7.334717443E0
3.094417167E0,-5.622786359E-1,-3.533305188E0,7.263937533E-2,3.578502382E0
3.104387167E0,4.934024555E-1,-9.726869550E-1,-1.959863895E0,2.242907128E0
3.114357167E0,-2.314390959E0,1.454554243E0,-4.895125222E0,5.606637539E0
3.124327167E0,-1.284067268E0,5.594268027E-1,2.950772236E0,3.266319624E0
3.134297167E0,1.452086425E0,1.578292143E-1,5.425887512E0,5.619049772E0
3.144267167E0,-8.212733788E-1,-2.914240879E0,5.065096180E0,5.901058310E0
3.154237167E0,1.944578981E0,-2.791494959E0,2.665851451E0,4.322105445E0
3.164207167E0,3.343496382E-2,-2.298400140E-1,-3.462554464E0,3.470335393E0
3.174177167E0,-1.166585231E0,-2.653728711E0,-4.194751579E0,5.098934985E0
3.184147167E0,9.706723700E-1,-1.919656979E0,-4.143318885E0,4.668445046E0
3.194117167E0,2.719089472E0,-1.175585338E0,-2.269114360E0,3.731531646E0
3.204087167E0,1.065546294E0,7.100566328E-2,5.641273209E0,5.741462717E0
3.214057167E0,1.834011641E0,3.817717266E-1,7.737710520E0,7.961250683E0
3.224027167E0,1.504768669E0,-8.446443343E-1,7.490648702E0,7.686844006E0
3.233997167E0,6.980737145E-1,5.973141289E-1,1.583334197E0,1.830584131E0
3.243967167E0,2.435073689E-1,-1.464970473E0,-3.619327671E0,3.912156325E0
3.253937167E0,9.385379000E-1,-1.087105563E0,-5.322917460E0,5.513266017E0
3.263907167E0,1.767527045E-1,2.044500295E0,-6.207930386E0,6.538319559E0
3.273877167E0,1.264654805E-1,3.325902403E0,-1.063145895E1,1.114026660E1
3.283847167E0,-7.189530983E-1,-2.902268705E0,-7.246411089E0,7.839038899E0
3.293817167E0,-1.442313535E0,-3.477260503E0,3.858138483E0,5.390439824E0
3.303787167E0,3.782115032E-1,2.299064091E0,5.407208582E0,5.887838677E0
3.313757167E0,6.773710627E-1,1.306093730E0,1.825393723E0,2.344520128E0
3.323727167E0,6.283564121E-4,-9.018596318E-1,1.753873504E0,1.972162128E0
3.333697167E0,-1.224851054E0,5.756352845E-1,6.055061949E0,6.204465432E0
3.343667167E0,1.732568005E0,1.770972225E0,5.547451125E0,6.075553349E0
3.353637167E0,2.195286538E0,2.655463580E0,2.070964501E0,4.019908428E0
3.363607167E0,9.892363295E-2,4.767158031E0,1.349680045E0,4.955523968E0
3.373577167E0,1.439645597E0,1.767514181E0,-4.664060801E-1,2.326847751E0
3.383547167E0,-8.298686396E-1,3.170957327E0,-8.644639980E0,9.245185380E0
3.393517167E0,-2.240232038E-1,1.684823735E0,-8.177949141E0,8.352704326E0
3.403487167E0,-1.979202099E-2,-1.105324903E0,-3.118564521E0,3.308712671E0
3.413457167E0,-2.669312418E0,1.180728257E-2,5.760676861E-2,2.669960062E0
3.423427167E0,-3.915142842E-1,7.252248949E-1,3.278494055E0,3.380496687E0
3.433397167E0,-1.177172199E0,-2.517865731E0,1.420883344E0,3.121584807E0
3.443367167E0,-1.039118853E0,-2.360809227E0,1.682808784E0,3.079778174E0
3.453337167E0,-3.995946977E-1,-8.509856397E-1,-4.023837465E0,4.132205274E0
3.463307167E0,8.396634568E-1,-1.505698961E-1,2.617587948E0,2.753084212E0
3.473277167E0,2.239028682E0,-1.051665004E0,8.313230322E0,8.673467998E0
3.483246167E0,-3.370267128E-1,-9.138122177E-1,7.278791800E0,7.343667329E0
3.493216167E0,1.025369930E-1,-1.011264253E-1,3.401528243E0,3.404575565E0
3.503186167E0,-2.327416070E0,6.503749797E-1,1.095159518E0,2.653154264E0
3.513156167E0,9.915551890E-1,-1.143657202E0,-9.809715241E0,9.925807100E0
3.523126167E0,2.661287699E0,-4.104991556E0,-1.254862180E1,1.346853062E1
3.533096167E0,7.543959229E-1,-6.532115225E0,-1.024118538E1,1.217043633E1
3.543066167E0,1.452244593E0,-4.059221306E0,7.981273949E-2,4.311920922E0
3.553036167E0,-2.196239927E0,-5.724918213E-1,8.186717625E0,8.495502468E0
3.563006167E0,-1.893778079E0,1.026165589E0,1.334790227E1,1.352057344E1
3.572976167E0,-3.668957376E0,5.537206804E0,9.459515555E0,1.155873444E1
3.582946167E0,-1.581252296E0,2.447964022E0,4.940112530E0,5.735642814E0
3.592916167E0,8.583867529E-1,4.011947152E-1,-2.531708722E0,2.703208107E0
3.602886167E0,7.741812927E-1,2.663234822E0,-6.382719449E0,6.959258866E0
3.612856167E0,9.424954417E-1,-2.109159391E0,-1.258433075E0,2.630685233E0
3.622826167E0,-4.268298953E-1,-1.363649043E0,-1.875237143E0,2.357591316E0
3.632796167E0,-1.978157202E0,-5.208442426E-1,-2.399269872E0,3.152916199E0
3.642766167E0,5.567830938E-1,-2.397428292E0,3.076161683E-2,2.461425624E0
3.652736167E0,4.657877371E-2,1.293783002E0,-5.446915269E-1,1.404540102E0
3.662706292E0,6.356823155E-1,4.881832747E0,1.048253739E-1,4.924161993E0
3.672676292E0,1.094634584E0,2.607665223E0,1.147083378E-1,2.830424136E0
3.682646292E0,3.120122146E-1,3.036039843E0,-3.456023709E0,4.610747166E0
3.692616292E0,-1.008335967E0,7.469616267E-1,-7.073137624E0,7.183590254E0
3.702586292E0,1.604094079E-1,-3.088713900E0,-7.215674615E0,7.850595193E0
3.712556292E0,-5.736125133E-1,-2.651302116E0,-4.039634303E0,4.865909938E0
3.722526292E0,-4.919730306E-1,2.780871153E0,-2.329048905E0,3.660566983E0
3.732496292E0,-9.686187547E-1,2.355920370E0,4.512400984E0,5.181731923E0
3.742466292E0,-2.465693365E0,-7.675935271E-1,1.094035332E1,1.124100416E1
3.752436292E0,-1.371185081E0,-5.028618325E0,1.139075265E1,1.252662751E1
3.762406292E0,7.682813790E-1,-2.772131904E0,2.749640297E0,3.979383537E0
3.772376292E0,-1.821102159E-1,1.639668027E0,-1.934929613E0,2.542759914E0
3.782346292E0,-1.423598791E0,2.001528815E0,-5.135135883E-1,2.509272269E0
3.792316292E0,1.158000129E0,2.066810347E0,2.983060561E0,3.809372602E0
3.802286292E0,6.211873602E-1,2.715968813E0,-2.311723021E0,3.620279499E0
3.812256292E0,5.175684862E-1,4.017836760E0,-5.096146649E0,6.510115209E0
3.822226292E0,1.120451430E0,3.200651827E-1,-6.181333741E0,6.290209849E0
3.832196292E0,-2.521588069E0,-3.197692259E0,-4.050800731E0,5.743921024E0
3.842166292E0,-2.281158309E0,-5.278074578E0,6.234535217E-1,5.783636293E0
3.852136292E0,-5.177634543E-1,-2.964471385E0,3.841734704E0,4.880071222E0
3.862106292E0,9.338346190E-1,-3.175642994E0,5.687511236E0,6.580618480E0
3.872076292E0,2.391881331E0,-7.652122486E-1,2.128419827E0,3.291932114E0
3.882046292E0,-1.099489418E-1,1.528053744E0,1.546161693E-1,1.539786730E0
3.892016292E0,-1.218979645E0,1.002268604E0,-8.750124335E-1,1.804466815E0
3.901986292E0,-1.015435656E0,-3.250818014E-1,2.760789768E0,2.959518185E0
3.911956292E0,-6.333911571E-1,-4.146193376E-1,3.447707214E0,3.529841156E0
3.921926292E0,-2.311180874E-1,-2.504698679E-1,-1.866162264E0,1.897027233E0
3.931896292E0,1.299235530E0,4.755131185E-2,-6.569309363E0,6.696723050E0
3.941866292E0,-1.272716215E0,1.722773919E-1,-3.143290057E0,3.395549800E0
3.951836292E0,-1.089518709E0,-3.770213609E0,-6.927792799E-1,3.985160575E0
3.961806292E0,1.219758129E0,-2.151020777E0,5.249103963E0,5.802395427E0
3.971776292E0,1.869948483E0,1.097544597E0,4.887469463E0,5.346837310E0
3.981745292E0,3.395897375E0,3.466361878E0,4.473683061E0,6.600123013E0
3.991715292E0,4.953350334E-1,5.178491818E0,-1.919459050E0,5.544948814E0
4.001685292E0,4.614137274E-1,2.266015044E0,-4.887748375E0,5.407199921E0
4.011655292E0,-6.145308899E-1,-4.094012824E-1,-3.041556691E0,3.129908102E0
4.021625292E0,-1.292497345E0,-3.005783426E0,1.722626569E0,3.697664896E0
4.031595292E0,9.708044440E-1,-3.138695023E0,5.476453063E0,6.386345267E0
4.041565292E0,1.700557276E0,-8.389166942E-1,3.009544355E-1,1.919960896E0
4.051535292E0,-1.690236356E-2,5.932962146E-1,-4.328837004E0,4.369338153E0
4.061505292E0,-3.327529829E-2,-8.817267913E-1,-2.832506452E0,2.966756172E0
4.071475292E0,-5.702835838E-1,-3.770771433E0,-1.031658756E0,3.950729092E0
4.081445292E0,-1.864755132E0,-2.331273771E0,-2.217039642E0,3.718523077E0
4.091415292E0,-1.495336964E-1,-1.908626499E0,9.620891690E-2,1.916891127E0
4.101385292E0,8.117096729E-1,2.054910386E0,8.573491645E-1,2.369931829E0
4.111355292E0,7.643176246E-1,2.822415035E0,1.929118066E0,3.503099281E0
4.121325292E0,-4.591859675E0,-4.599352589E-1,4.189091474E0,6.232592004E0
4.131295292E0,-3.753440871E0,5.644007367E-1,2.187493077E0,4.380866641E0
4.141265292E0,-1.993248134E0,1.123550089E0,-1.072541903E0,2.527003970E0
4.151235292E0,-1.959690233E0,2.478687340E-1,-4.921506690E0,5.303117273E0
4.161205292E0,3.779232647E0,1.801438850E0,-4.030945925E0,5.811738671E0
4.171175292E0,1.182550980E0,1.251660830E0,-5.463086913E0,5.728036337E0
4.181145292E0,4.814990593E-1,-6.140380427E-1,-6.454981095E0,6.501973931E0
4.191115292E0,-7.575499110E-2,4.497280669E-1,-3.802710387E0,3.829960893E0
4.201085292E0,-2.118963125E0,-3.457688703E0,2.420389431E0,4.722700593E0
4.211055292E0,-2.427278035E0,-2.743985454E0,9.946535994E0,1.059975062E1
4.221025292E0,-8.856635023E-2,4.887222710E0,9.983669322E0,1.111604439E1
4.230995292E0,1.406823129E0,9.429830995E0,3.039382111E0,1.000693297E1
4.240965292E0,2.532260992E0,1.646813032E0,2.956521803E-1,3.035086342E0
4.250935292E0,-2.293407495E0,-4.286824467E0,1.261749616E0,5.022807387E0
4.260905292E0,-2.199068810E0,6.391582659E-1,-1.618570688E0,2.804317741E0
4.270875292E0,3.471199207E-1,2.461621656E0,-3.484304937E0,4.280239983E0
4.280845292E0,7.216619671E-1,-1.736570424E0,-4.575352693E-1,1.935409867E0
4.290815292E0,3.084073842E0,-6.897200167E-1,-3.847960235E0,4.979359711E0
4.300785292E0,1.509362388E0,-1.469403832E0,-5.267530879E0,5.673112373E0
4.310755292E0,-7.003305204E-2,-2.865700803E0,-2.449441321E0,3.770531595E0
4.320725292E0,1.768616820E-1,-3.225472966E0,7.609817880E-1,3.318742109E0
4.330695292E0,-2.465605072E0,-3.125735839E0,1.363624485E0,4.208194938E0
4.340665292E0,-1.097984308E0,6.776414233E-1,2.184498718E0,2.537085353E0
4.350635292E0,-2.433109463E0,-1.148337898E0,2.948926270E0,3.991850164E0
4.360605292E0,-1.519992772E0,-6.102522629E-1,3.935049834E0,4.262323668E0
4.370575292E0,3.471287280E-2,-6.536272010E-1,6.466552734E-2,6.577348492E-1
4.380545292E0,6.746151969E-2,1.788362136E-1,-2.692917627E-1,3.302294678E-1
4.390515292E0,1.159021784E0,1.590125154E0,5.502358568E-1,2.043181098E0
4.400485292E0,8.183754256E-1,1.113157833E-1,5.081739110E-1,9.697269021E-1
4.410455292E0,-7.088785650E-1,-2.251294093E0,3.910662852E0,4.567725677E0
4.420425292E0,-1.583298822E0,-3.187310528E0,3.751084151E0,5.170726822E0
4.430395292E0,-1.041697548E0,-2.565693909E-1,2.289425249E0,2.528325454E0
4.440365292E0,-1.651817226E-1,2.130880335E0,-1.453464029E0,2.584665102E0
4.450334292E0,-3.784528470E-1,2.880936893E0,-4.475491605E0,5.336014341E0
4.460304292E0,1.632436483E0,4.539276834E0,-6.729972723E0,8.280242502E0
4.470274292E0,2.408975812E0,3.745461468E0,-6.000957078E0,7.472826234E0
4.480244292E0,-7.980945043E-2,8.140069708E-1,-3.726956785E-1,8.988208752E-1
4.490214292E0,-2.375047197E0,-6.724343609E0,1.216056783E1,1.409741310E1
4.500184292E0,2.642297550E-1,-2.638341763E0,6.141005495E0,6.688991935E0
4.510154292E0,2.297655497E0,2.051656702E0,-1.147095072E-1,3.082478593E0
4.520124292E0,2.821306403E0,2.074564047E0,-6.473666457E0,7.360159183E0
4.530094292E0,2.587768902E0,-5.251431155E0,-3.706829499E0,6.929261288E0
4.540064292E0,7.009311756E-1,-2.120585142E0,-3.194007636E0,3.897418458E0
4.550034292E0,1.251328123E0,2.131996861E0,-5.963776388E0,6.455839333E0
4.560004292E0,8.540648565E-1,1.306422928E-1,-2.123812221E0,2.292830682E0
4.569974292E0,-2.941467269E0,-1.860620858E0,5.994400595E0,6.931592759E0
4.579944292E0,-1.987936378E0,3.718875933E-1,8.711560779E0,8.943236697E0
4.589914292E0,-2.657851875E-2,4.644570862E0,1.141014553E0,4.782745981E0
4.599884292E0,-1.511081323E-1,7.816753181E0,-4.736664509E0,9.141140773E0
4.609854292E0,4.675970995E0,-1.792911270E-1,-4.807873655E0,6.709135498E0
4.619824292E0,3.097292935E0,-3.054515290E0,-1.893123776E0,4.744175884E0
4.629794292E0,-5.750220577E-1,-2.027024722E0,4.379988447E0,4.860429856E0
4.639764292E0,-1.745996866E-2,7.193542904E-1,1.218174995E0,1.414823581E0
4.649734292E0,7.304137141E-1,2.600774572E0,1.530170728E0,3.104666652E0
4.659704583E0,2.836629032E0,1.581875902E0,2.722441973E0,4.237981351E0
4.669674583E0,2.824724978E0,-1.007349542E-1,-1.246774896E0,3.089282501E0
4.679644583E0,-4.760783250E-1,-1.773416653E-1,-1.832032067E0,1.901168622E0
4.689614583E0,3.099771643E-1,-1.434973964E-1,7.430793679E-1,8.178290115E-1
4.699584583E0,-8.413212155E-1,-2.545817761E0,-1.029306421E0,2.872016917E0
4.709554583E0,7.457011132E-1,-2.743615618E0,-1.387805645E0,3.163779594E0
4.719524583E0,1.063027826E-1,-1.691985404E0,-1.727130094E0,2.420143230E0
4.729494583E0,-2.207261490E0,-3.045728387E0,4.949405510E0,6.216516677E0
4.739464583E0,1.292794384E0,1.650856674E0,2.984173871E0,3.647182305E0
4.749434583E0,-3.775886870E0,3.002442911E-1,-1.200080202E0,3.973368946E0
4.759404583E0,-2.342865876E0,-9.484008372E-1,9.385377538E-1,2.696170947E0
4.769374583E0,-1.108415814E0,-1.810894090E0,2.957608801E0,3.640792886E0
4.779344583E0,-1.291301882E0,-2.538656968E0,3.665485591E0,4.641984961E0
4.789314583E0,-2.584214234E-1,-9.442361578E-1,9.790835166E-1,1.384546166E0
4.799284583E0,4.271752465E-1,-2.958362214E0,2.234881836E0,3.732168606E0
4.809254583E0,5.135627049E-1,6.065959990E-2,-1.666245376E0,1.744648931E0
4.819224583E0,1.554969062E0,3.447205230E0,-1.290491604E0,3.995812967E0
4.829194583E0,2.677990855E0,4.132043991E0,-4.703136574E0,6.809178820E0
4.839164583E0,3.045488359E0,-9.526909393E-1,-4.818813211E0,5.779583041E0
4.849134583E0,-1.588971644E0,-3.395910239E0,-2.931033790E-1,3.760710947E0
4.859104583E0,-1.533260397E0,-5.100633802E0,5.156170657E0,7.413059319E0
4.869074583E0,-1.203019231E0,1.487337242E0,3.051324465E0,3.601389778E0
4.879044583E0,2.316104412E-1,5.390344042E0,-3.167282352E0,6.256287221E0
4.889014583E0,1.061784927E0,1.265214383E0,-2.007179564E-1,1.663863686E0
4.898984583E0,-1.120419490E0,-2.041400686E0,9.287483454E-2,2.330511173E0
4.908953583E0,7.985989729E-1,4.116827197E0,-6.232569383E0,7.512053488E0
4.918923583E0,1.969469116E0,-2.390853390E-1,-9.618062807E0,9.820544922E0
4.928893583E0,1.178543883E0,-2.794240226E0,-1.009841040E1,1.054393839E1
4.938863583E0,1.067109840E0,-1.150125684E0,-4.237185407E0,4.518324100E0
4.948833583E0,-2.374869588E0,-3.144705960E0,7.562365971E0,8.527517823E0
4.958803583E0,-2.388797655E0,-1.021593067E0,1.122907948E1,1.152572048E1
4.968773583E0,-2.855814623E0,4.527186546E0,6.917495853E0,8.746590425E0
4.978743583E0,-1.973689198E0,2.696990213E0,-5.511646285E0,6.445731148E0
4.988713583E0,6.928266424E-1,2.124709184E0,-3.562014433E0,4.205038013E0
4.998683583E0,-2.129048548E0,8.702004674E-1,-2.167890871E0,3.160671986E0
5.008653583E0,-1.099953943E0,1.449187961E0,2.259050133E0,2.900577860E0
5.018623583E0,-2.819156455E-1,1.830723752E0,3.852497090E0,4.274664865E0
5.028593583E0,3.285506329E0,1.590367813E0,1.551923540E0,3.966394873E0
5.038563583E0,-5.384610263E-1,1.721405378E0,4.201499850E0,4.572283646E0
5.048533583E0,-2.714541361E-1,4.568859944E0,-1.064334167E0,4.699039876E0
5.058503583E0,-3.860916495E-1,-3.974791020E-2,-6.013077772E-1,7.156938599E-1
5.068473583E0,1.045612186E0,-4.092240240E0,4.598156249E0,6.243618816E0
5.078443583E0,1.732967077E-1,-7.905374166E-1,-7.985741222E-1,1.136970441E0
5.088413583E0,-1.654158305E0,-3.387907155E0,3.360649774E0,5.050556552E0
5.098383583E0,-5.798894993E-1,3.935494807E-1,4.093109429E-2,7.020173642E-1
5.108353583E0,1.588018402E0,2.075680865E0,4.306544495E-1,2.648719833E0
5.118323583E0,2.851313144E0,-1.881670250E0,2.358904788E0,4.151517961E0
5.128293583E0,-1.190889256E-1,-1.278887805E0,-5.473127752E0,5.621820308E0
5.138263583E0,-1.592435681E0,-3.891621687E0,1.341750051E0,4.413713170E0
5.148233583E0,-1.226378346E0,-4.280134960E0,2.279168648E-1,4.458195288E0
5.158203583E0,-1.075911800E-1,-3.213523011E0,-5.181309591E0,6.097891035E0
5.168173583E0,5.214514028E-1,-3.818406068E0,-2.967522170E0,4.863982349E0
5.178143583E0,1.960764366E-1,-2.789102278E0,3.124521664E0,4.192871703E0
5.188113583E0,-1.960866693E0,-4.932617569E-1,1.698222629E0,2.640504771E0
5.198083583E0,-1.409920253E0,4.286373940E0,3.322344080E0,5.603467396E0
5.208053583E0,-1.620937349E0,4.165816047E0,-3.038353001E0,5.404909823E0
5.218023583E0,-2.117415074E0,2.360341449E0,-3.228442474E0,4.525207085E0
5.227993583E0,2.351406612E0,2.759156348E0,-2.742966869E0,4.545978888E0
5.237963583E0,5.266195375E-1,-1.295152712E0,1.267510877E0,1.887149308E0
5.247933583E0,-2.654254083E0,-7.192896786E-1,-2.064059524E0,3.438427562E0
5.257903583E0,3.517434968E-1,-3.537644407E-1,-8.598763311E-1,9.941127058E-1
5.267873583E0,1.126381018E0,4.535680504E0,-4.406302671E0,6.423132808E0
5.277843583E0,-5.587936954E-1,-3.066944424E0,-3.112888044E-1,3.132937793E0
5.287813583E0,7.904555556E-1,2.810084134E-1,5.269989048E0,5.336344281E0
5.297783583E0,1.900379074E-1,-2.580300254E-1,6.717233394E0,6.724873112E0
5.307753583E0,2.506208722E0,-5.998749170E-1,5.562590151E0,6.130525366E0
5.317723583E0,4.615343262E0,-6.848010466E-1,-2.034987752E0,5.090336045E0
5.327693583E0,1.925716010E0,-1.511547638E0,-3.954635668E0,4.651053824E0
5.337662583E0,1.289172472E0,-4.390644997E-2,-1.538001319E0,2.007321972E0
5.347632583E0,4.324661727E-1,2.386365360E0,6.359225337E0,6.805991001E0
5.357602583E0,1.134281484E0,2.984418869E-2,5.018146546E0,5.144830408E0
5.367572583E0,-1.416594119E0,-1.554414746E0,-1.302094234E0,2.473538658E0
5.377542583E0,-2.110211012E0,1.665001966E0,-8.555897373E-1,2.820860837E0
5.387512583E0,-1.867446313E0,2.736567384E0,-2.593149510E0,4.207205862E0
5.397482583E0,-3.359373327E0,1.133519299E0,-1.578614910E0,3.881015355E0
5.407452583E0,-2.535630742E0,2.199320825E0,-7.123598510E-1,3.431310523E0
5.417422583E0,-1.215195400E-1,2.454329594E0,-2.279843416E0,3.352042177E0
5.427392583E0,-1.565056678E0,-1.485346850E0,3.919110909E0,4.473822525E0
5.437362583E0,7.502822605E-1,-8.280943751E-1,3.264813325E0,3.450749167E0
5.447332583E0,8.346229376E-1,3.139230628E0,-4.039028531E0,5.183156939E0
5.457302583E0,8.154342762E-1,-3.112180531E-1,-1.072613239E0,1.382855342E0
5.467272583E0,1.893291006E0,-5.551305610E-1,-2.516890123E0,3.198039504E0
5.477242583E0,7.814189762E-1,-7.947696313E-1,1.071092378E0,1.545805054E0
5.487212583E0,2.349802720E0,-3.816916490E0,5.202618599E-1,4.512327195E0
5.497182583E0,8.471934280E-1,-5.175396886E-1,-3.308732931E0,3.454460543E0
5.507152583E0,7.195357002E-1,4.245393144E0,-3.856143413E0,5.780219424E0
5.517122583E0,2.543592896E-1,2.407241381E0,-5.182631062E0,5.720067695E0
5.527092583E0,-4.340997386E-1,-2.635356759E0,-4.576298187E0,5.298684075E0
5.537062583E0,1.182740430E0,-2.622415409E0,3.701006842E-1,2.900502029E0
5.547032583E0,2.489440370E0,-3.302883376E0,6.800703567E0,7.959643269E0
5.557002583E0,1.147042594E0,-8.913179791E-1,1.007159507E1,1.017581357E1
5.566972583E0,-3.552360022E-1,5.576170895E-1,1.431231161E0,1.576563374E0
5.576942583E0,-8.485094170E-1,-3.096691841E0,8.238750243E-1,3.314851226E0
5.586912583E0,7.802004164E-1,-1.123400400E0,-1.396622661E0,1.954813548E0
5.596882583E0,2.050166540E0,5.480890515E-1,-3.897003756E0,4.437366643E0
5.606852583E0,-2.845408626E-1,-2.477336633E0,1.890359212E0,3.129156156E0
5.616822583E0,8.272063293E-2,-9.336541593E-1,2.303371443E0,2.486779603E0
5.626792583E0,-5.698382818E-1,-3.015645924E-1,3.973954868E0,4.025912836E0
5.636762583E0,-8.598283839E-1,-3.909331441E-1,-1.160503322E0,1.496295938E0
5.646732583E0,-1.308960912E0,-1.087776531E0,5.209512466E-1,1.779895124E0
5.656702583E0,-1.231863619E0,-1.349017555E0,2.169563175E0,2.836254698E0
5.666671833E0,-7.139432770E-1,-2.388908314E0,-4.305024219E-1,2.530203602E0
5.676641833E0,-1.112438917E0,1.479878826E0,-5.579482173E0,5.878620842E0
5.686611833E0,-2.073497222E0,7.481512427E-2,-7.139350909E-1,2.194240495E0
5.696581833E0,1.049075857E0,-2.790172611E0,3.848761303E0,4.868119444E0
5.706551833E0,1.197229099E0,-1.252061364E-1,4.016514997E0,4.193021203E0
5.716521833E0,5.657237423E-1,2.507977505E0,-8.422411287E-1,2.705432431E0
5.726491833E0,2.069661741E0,-6.041901621E-1,2.798100266E0,3.532408608E0
5.736461833E0,2.001745308E-1,3.129719547E0,2.138463589E0,3.795818858E0
5.746431833E0,-9.382068014E-1,3.618878605E0,2.056870957E0,4.266993378E0
5.756400833E0,-1.894265152E0,1.508512056E0,1.546154677E0,2.873054712E0
5.766370833E0,-1.042339500E0,3.154829245E0,-5.498695872E0,6.424568117E0
5.776340833E0,-5.485485696E-1,6.157899270E0,-7.026749908E0,9.359265100E0
5.786310833E0,1.070460660E0,6.339934203E-1,-5.560733076E0,5.698209019E0
5.796280833E0,-2.434821528E-1,-1.066178086E0,-5.676669914E-1,1.232178998E0
5.806250833E0,-4.628697572E-1,1.198600564E0,3.152153851E0,3.403963223E0
5.816220833E0,1.975620680E0,1.199574417E0,3.678934772E0,4.344722881E0
5.826190833E0,1.407740411E0,-1.194389107E0,-1.057181268E0,2.127423474E0
5.836160833E0,-1.023590914E-1,-1.097279719E-1,-6.970495015E-1,7.130186667E-1
5.846130833E0,-1.494041806E-1,-1.881872563E0,-2.350452638E0,3.014696263E0
5.856100833E0,-1.609549604E0,-1.571649706E-1,-5.575706041E-1,1.710624370E0
5.866070833E0,-1.775727765E0,-8.212531328E-2,-1.925247794E0,2.620406978E0
5.876040833E0,1.495555211E0,-1.128264991E0,4.650237983E-1,1.930262784E0
5.886010833E0,1.619890113E0,-1.627435360E0,6.917086548E-1,2.398134836E0
5.895980833E0,3.184781022E-1,-3.273914516E-2,-1.194673866E0,1.236828929E0
5.905950833E0,-4.369839435E0,-1.714415616E0,3.749842787E0,6.007997879E0
5.915920833E0,1.934107349E0,-3.918970284E0,2.653765256E0,5.112882685E0
5.925890833E0,-5.117405663E-1,-1.824927700E0,1.520806412E0,2.430039436E0
5.935860833E0,2.333591607E-1,1.188873428E-1,3.665221882E-1,4.504766505E-1
5.945830833E0,9.551156335E-2,1.726124665E0,-2.442587800E0,2.992467875E0
5.955800833E0,1.004817405E0,-6.212611082E-1,-3.204277686E0,3.415116231E0
5.965770833E0,2.873619395E0,-2.464865399E0,-1.355011536E0,4.021107575E0
5.975740833E0,-2.575275303E-1,-5.603829394E0,4.269393625E0,7.049606105E0
5.985710833E0,-7.511464790E-2,2.185686872E0,2.552552292E0,3.361308155E0
5.995680833E0,4.258742045E-1,6.909020314E-1,3.721190845E0,3.808671128E0
6.005650833E0,2.295756029E0,-2.321058978E0,2.167084540E0,3.918426460E0
6.015620833E0,1.985812961E0,-5.869353211E-1,-2.895889100E0,3.560073015E0
6.025590833E0,1.576173259E0,-1.232767891E0,-1.355526676E0,2.416917744E0
6.035560833E0,1.864893126E0,-1.262725224E0,-1.349781786E0,2.625683194E0
6.045530833E0,-1.369579874E0,2.799691586E0,-7.098560733E-1,3.196547771E0
6.055500833E0,-3.857745550E0,1.687235711E0,5.289407651E0,6.760680319E0
6.065470833E0,-3.363583030E0,-7.793549091E-2,2.178763184E0,4.008338029E0
6.075440833E0,-3.403901044E-1,1.978808289E0,-4.092960910E0,4.558933721E0
6.085410833E0,4.349975274E0,1.547910303E0,-5.113912829E0,6.889877765E0
6.095380833E0,2.938163593E0,-2.750057788E0,-4.135046829E0,5.770115719E0
6.105350833E0,1.940882371E0,-2.143932197E0,2.164160932E0,3.612071731E0
6.115320833E0,9.552749701E-2,-2.643886677E0,6.286332777E0,6.820354980E0
6.125290833E0,-1.551486753E0,2.431470489E0,2.989030568E0,4.153728881E0
6.135260833E0,-3.555248181E-1,3.767893726E0,-9.815908027E-1,3.909851856E0
6.145229833E0,2.091327429E0,2.404606334E0,-6.479908360E0,7.221149104E0
6.155199833E0,1.342278785E0,2.288412803E0,-1.127314526E0,2.882600135E0
6.165169833E0,-1.143706611E-1,-8.462116805E-1,7.351691376E0,7.401116196E0
6.175139833E0,3.061914211E-1,1.601853206E0,1.466741887E0,2.193403438E0
6.185109833E0,2.121645243E0,2.179389421E0,-6.553968608E-1,3.111376195E0
6.195079833E0,2.848177283E0,2.034262405E0,-5.267013985E-1,3.539456417E0
6.205049833E0,8.611672501E-1,1.469502650E0,-2.674572573E0,3.170865105E0
6.215019833E0,1.628380270E0,-1.331032104E0,2.438355585E0,3.220069367E0
6.224989833E0,-1.366607880E0,2.236583668E0,-1.609179475E0,3.075610864E0
6.234959833E0,-1.572116753E0,3.622151584E0,-5.359188323E0,6.656758420E0
6.244929833E0,2.918124600E0,-2.014135704E0,-7.140695769E-1,3.616917082E0
6.254899833E0,-7.260140497E-1,-5.176417226E0,-4.379272163E-2,5.227265968E0
6.264869833E0,6.471345259E-1,-1.692250283E0,4.671555178E0,5.010580994E0
6.274839833E0,-2.343850547E-1,-2.748210652E0,4.665403907E0,5.419740931E0
6.284809833E0,2.918280282E-1,1.025332654E-1,-2.201696548E0,2.223318322E0
6.294779833E0,1.251999968E0,3.668879315E-1,2.689216340E-1,1.332077145E0
6.304749833E0,3.273738807E0,1.145732671E-1,2.788422539E0,4.301836011E0
6.314719833E0,-1.633315904E-1,-7.072309658E-1,2.120615548E0,2.241397588E0
6.324689833E0,-1.785539393E0,-2.832046569E0,-5.621244741E0,6.542708241E0
6.334659833E0,-2.858553459E0,-3.719753015E-1,-4.492968932E0,5.338207876E0
6.344629833E0,-8.326753031E-1,-2.093222220E0,3.395887434E-1,2.278211565E0
6.354599833E0,-2.883535980E0,2.811659959E-1,2.034702408E-1,2.904347466E0
6.364569833E0,-5.471326663E-1,1.875562541E0,6.640817302E-1,2.063514852E0
6.374539833E0,5.059953115E-1,-1.913622360E0,-2.132075506E0,2.909248658E0
6.384509833E0,-6.037101057E-1,-5.686194443E0,-6.815631509E-2,5.718559121E0
6.394479833E0,9.412937658E-1,-2.412213269E0,1.762234438E0,3.132136176E0
6.404449833E0,-8.106860447E-1,-1.286392706E0,1.532158781E0,2.158594123E0
6.414419833E0,1.908757184E0,-3.384561378E-1,2.322367877E-1,1.952393523E0
6.424389833E0,3.578778985E0,-2.898505729E-1,-1.397306786E0,3.852809187E0
6.434359833E0,-4.366389285E-1,-5.182553294E0,5.277731931E-1,5.227624388E0
6.444329833E0,1.168190584E0,-1.520564337E0,1.003229009E0,2.164082621E0
6.454299833E0,-1.962908102E-1,1.452501285E0,7.806348646E-1,1.660626646E0
6.464269833E0,-2.704533998E0,-1.258709648E0,6.318779562E0,6.987548159E0
6.474239833E0,1.416852858E0,-6.804916486E-1,5.605237988E0,5.821446024E0
6.484209833E0,-3.155543482E0,-1.461242580E-1,-3.670560390E0,4.842707976E0
6.494179833E0,-2.469647545E0,2.957352400E0,-4.581051974E0,5.985910908E0
6.504149833E0,-3.253361553E-2,3.811103773E0,-6.564466699E0,7.590638540E0
6.514119833E0,2.333598332E0,1.268082443E0,-4.971202176E0,5.636183578E0
6.524088833E0,-2.434192660E0,-9.917187649E-1,-1.774807706E0,3.171552050E0
6.534058833E0,-7.942698406E-1,2.778664998E0,-4.511805153E-1,2.924962839E0
6.544028833E0,4.271526251E-1,2.179300835E0,-2.313965428E-1,2.232791046E0
6.553998833E0,-1.026010638E0,-8.550915545E-1,4.255647991E0,4.460316045E0
6.563968833E0,-9.708998998E-1,-4.607377893E-1,1.381884170E1,1.386056679E1
6.573938833E0,4.759946075E0,5.636223553E0,3.948545208E0,8.367503322E0
6.583908833E0,-7.774735674E-1,1.969337554E0,-5.296091604E0,5.703625323E0
6.593878833E0,4.895392001E-1,1.420908487E0,-1.137897870E1,1.147779534E1
6.603848833E0,1.781652164E0,1.526696020E0,-8.643429022E0,8.956224117E0
6.613818833E0,-1.085854917E0,-5.536779372E0,2.042219004E0,6.000472079E0
6.623788833E0,-2.165215331E0,-5.629022123E0,1.456999490E1,1.576891876E1
6.633758833E0,9.603224328E-1,3.936662496E0,1.156723331E1,1.225644391E1
6.643728833E0,-1.232419690E0,4.543470165E0,2.866229684E0,5.511556226E0
6.653698833E0,-2.927956985E0,2.864992705E0,-1.630554557E-2,4.096508413E0
6.663669542E0,-5.191875071E-1,1.963886195E0,-8.363921589E-1,2.196805976E0
6.673639542E0,-1.689572259E0,-3.779831402E0,-9.851308240E0,1.068597463E1
6.683609542E0,1.193891874E0,4.557846129E-1,-1.084009463E1,1.091516234E1
6.693579542E0,-6.717394631E-1,1.021843620E0,-5.599084378E0,5.731068327E0
6.703549542E0,1.814081115E0,-1.735594816E0,4.752347910E-1,2.555196228E0
6.713519542E0,2.281032740E0,-2.064563262E0,4.578551704E0,5.516218590E0
6.723489542E0,-3.448885135E-2,-2.277575281E0,7.027826965E-1,2.383787357E0
6.733459542E0,-4.669161035E-1,-3.679004646E0,-4.115678512E0,5.540026665E0
6.743429542E0,1.858797696E-1,-2.932258197E0,-2.408942921E0,3.799433566E0
6.753399542E0,-8.197118068E-1,-6.678867474E0,5.549063203E0,8.721886299E0
6.763369542E0,1.036397194E0,-1.776723254E-1,4.097114772E0,4.229897877E0
6.773339542E0,-5.643696734E-1,5.946607794E0,-1.965004767E0,6.288235135E0
6.783309542E0,-5.059609591E-1,2.275518231E0,8.279441017E-1,2.473756485E0
6.793279542E0,-6.810746891E-1,-4.442688140E-1,1.165047194E1,1.167881560E1
6.803249542E0,8.625837381E-1,1.385945353E0,6.734223649E0,6.929261388E0
6.813219542E0,5.162635338E-1,3.873730961E0,-3.252829456E0,5.084606087E0
6.823189542E0,1.434406492E0,-3.999637594E0,-2.991593987E0,5.196562080E0
6.833159542E0,3.180643825E0,-4.737756184E0,-1.635924640E0,5.936251193E0
6.843129542E0,-6.219675981E-1,-4.424737773E0,6.353040737E-1,4.513176190E0
6.853099542E0,3.001608952E-1,6.292609763E-1,1.031975091E0,1.245406972E0
6.863069542E0,1.613385962E0,5.636267992E0,-4.341867524E-1,5.878694522E0
6.873039542E0,1.870051832E0,8.539237486E0,-6.866405806E0,1.111589850E1
6.883009542E0,3.437497391E0,-6.634046811E0,-1.058399827E1,1.295561596E1
6.892979542E0,6.900856870E-1,-1.454233874E1,2.944225109E-1,1.456167981E1
6.902948542E0,1.055668739E0,-2.707847030E0,1.382751662E1,1.412965279E1
6.912918542E0,-3.244551553E0,1.686308050E0,1.345900638E1,1.394688504E1
6.922888542E0,-2.423354407E0,5.396743235E-1,1.322464764E-2,2.482754489E0
6.932858542E0,3.460181225E-1,-2.224386376E0,-5.588684521E0,6.025032611E0
6.942828542E0,-1.000608433E0,-1.266239985E0,2.930226874E-1,1.640257062E0
6.952798542E0,1.469616963E0,5.656596422E0,3.809162205E0,6.976143190E0
6.962768542E0,4.259353810E-1,2.087308930E0,3.367809105E0,3.985024176E0
6.972738542E0,2.296338558E0,-4.136124471E-1,-3.851808872E0,4.503407334E0
6.982708542E0,2.082260883E0,1.840672205E0,-1.321213460E1,1.350127347E1
6.992678542E0,6.274370836E-1,2.214080951E0,-1.015838179E1,1.041578380E1
7.002648542E0,-7.592915042E-1,1.378220304E0,-7.618814406E0,7.779611028E0
7.012618542E0,1.971408930E0,5.342437220E-1,-5.478490233E0,5.846855972E0
7.022588542E0,-1.533634180E0,4.657070455E-1,2.395046428E0,2.881868187E0
7.032558542E0,-2.097004783E0,-3.488281336E0,1.158860372E1,1.228255966E1
7.042528542E0,4.067381680E0,4.315918751E0,1.309505697E1,1.437537010E1
7.052498542E0,7.920704104E-1,8.324173971E0,6.560466034E0,1.062821539E1
7.062468542E0,7.624241500E-1,3.263874847E-1,-3.997296953E0,4.082426032E0
7.072438542E0,2.760826020E0,-2.892932163E0,-3.264025120E0,5.161886942E0
7.082408542E0,1.219584613E0,3.463528318E0,-6.171790500E0,7.181532776E0
7.092378542E0,3.823283815E0,-1.564718709E0,-2.305912642E0,4.731075659E0
7.102348542E0,2.622031466E-1,1.231394380E-1,-2.014822460E0,2.035540065E0
7.112318542E0,-4.226882029E-1,-1.008060271E0,-2.990055585E-1,1.133249818E0
7.122288542E0,9.632094955E-1,-5.814871194E0,5.965721172E0,8.386317943E0
7.132258542E0,-2.188894070E0,-1.929323888E0,2.572662621E0,3.890005253E0
7.142228542E0,-3.733315339E0,3.279343363E0,-9.069013935E-1,5.051158922E0
7.152198542E0,-3.660796124E0,3.462441905E0,-2.311585026E0,5.543767450E0
7.162168542E0,-2.229436324E0,-2.180859118E0,-8.712532586E-1,3.238149944E0
7.172138542E0,-1.014218485E0,-1.405980545E0,6.165204781E-1,1.839977698E0
7.182108542E0,-2.862314388E0,-8.703223819E-1,2.467935480E0,3.878274131E0
7.192078542E0,-1.325684680E0,-1.676241776E0,5.940535460E0,6.313254938E0
7.202048542E0,-1.592966316E0,1.739715056E0,3.393679526E0,4.132942158E0
7.212018542E0,1.800946953E0,1.328447050E0,-2.607850580E0,3.436432181E0
7.221988542E0,2.519634807E0,-5.723135397E0,1.439365223E0,6.416744547E0
7.231958542E0,3.064034557E0,-3.990344906E0,-6.041081257E0,7.861667952E0
7.241928542E0,-1.537747404E0,-2.850284911E0,-6.768003014E0,7.502976473E0
7.251898542E0,-1.504800683E0,-4.007888892E0,1.114264711E0,4.423707078E0
7.261868542E0,-1.554748914E0,-1.473919344E-1,6.656816454E0,6.837556133E0
7.271838542E0,-6.979697071E-2,9.028831869E0,3.483174085E0,9.677663884E0
7.281808542E0,-8.109324317E-2,9.709335505E0,2.509608001E0,1.002875388E1
7.291778542E0,1.420711143E0,3.921106856E0,2.463333721E0,4.843708512E0
7.301748542E0,1.510257158E0,-5.682302536E0,1.568870525E0,6.085293216E0
7.311718542E0,-2.010551654E0,-8.853596663E0,2.845383775E-1,9.083471469E0
7.321688542E0,-5.981524369E-1,-3.630022813E0,-4.668283660E0,5.943713006E0
7.331658542E0,-1.011119534E0,-2.663321945E-1,-4.042428102E0,4.175466503E0
7.341628542E0,2.651195405E0,3.243641434E0,-1.035850859E1,1.117357360E1
7.351598542E0,2.707229272E0,-1.309929211E0,-1.212539566E1,1.249280692E1
7.361568542E0,-1.280112212E0,-3.195520896E0,-5.910412944E0,6.839811564E0
7.371538542E0,-8.387316298E-1,-1.718551352E0,2.509334936E0,3.154940779E0
7.381508542E0,-1.554478773E0,3.151441661E-1,1.228867682E1,1.239061330E1
7.391478542E0,-3.983904198E0,-2.069092222E0,1.218939343E1,1.298976318E1
7.401448542E0,-2.635383656E0,-1.099042654E-2,4.513875067E0,5.226895439E0
7.411418542E0,-1.815550958E0,3.930920238E0,-1.168904602E0,4.484941156E0
7.421388542E0,-1.974658520E0,5.463675728E0,6.128384864E-1,5.841797646E0
7.431358542E0,1.537167652E0,2.367852198E0,3.167945427E-1,2.840768770E0
7.441328542E0,1.559531644E0,5.160769492E0,-3.464286409E0,6.408350882E0
7.451298542E0,-7.964657624E-1,3.269170670E0,-6.755133292E0,7.546764895E0
7.461268542E0,-1.159091512E0,-3.275041859E0,-1.005780149E0,3.616764579E0
7.471238542E0,-1.948753089E-1,-2.249009586E0,2.704478157E0,3.522814586E0
7.481208542E0,-2.404994443E0,-2.632032032E0,4.211199796E0,5.517770801E0
7.491178542E0,1.688189392E0,1.460165816E0,2.358300186E0,3.247098305E0
7.501148542E0,4.309526282E0,3.698875824E0,-6.634581832E0,8.733348454E0
7.511118542E0,7.134010939E-1,-3.066200658E0,-2.353077453E0,3.930330915E0
7.521088542E0,2.546628697E-1,-3.292494921E0,5.920001793E-1,3.354972458E0
7.531058542E0,-1.006714534E0,3.848868307E-1,3.095674426E0,3.277928031E0
7.541028542E0,-3.274845393E0,4.855159503E-1,7.623498611E0,8.311321745E0
7.550998542E0,-2.979048201E-1,1.444226598E0,1.297735135E0,1.964345751E0
7.560968542E0,-1.524063604E-1,-1.840528363E0,-1.106811849E0,2.153091922E0
7.570938542E0,-1.762238239E0,-1.362356223E0,-3.567074613E0,4.205415483E0
7.580908542E0,-2.182616207E0,8.056439906E-2,-5.139364589E0,5.584207420E0
7.590878542E0,4.541341997E-1,-4.038602269E0,-5.675106368E0,6.980213353E0
7.600848542E0,-3.456504788E-2,-6.019742428E0,-2.541671793E0,6.534415746E0
7.610818542E0,-4.756726013E-1,-3.188982539E0,3.332408307E0,4.636897582E0
7.620788542E0,-1.892573845E0,1.714826968E0,4.118003365E0,4.845659811E0
7.630758542E0,1.336642216E0,4.418769520E0,-6.808579767E-1,4.666444478E0
7.640728542E0,4.859061058E-1,5.773662357E0,-3.148754280E0,6.594386649E0
7.650698542E0,-1.390502527E0,3.900326729E0,-2.265226547E0,4.719883174E0
7.660668792E0,6.658123964E-2,3.030329160E0,-2.357333057E0,3.839836848E0
7.670638792E0,-2.084914057E0,-3.588887359E0,-2.515963340E-1,4.158158224E0
7.680608792E0,-3.535392644E0,-6.533800392E0,4.808798684E0,8.849525044E0
7.690578792E0,-1.988367025E0,-6.892689625E0,1.248510116E1,1.439932376E1
7.700548792E0,-1.208408391E0,1.137585745E0,5.104974775E0,5.367971649E0
7.710518792E0,-2.067167173E0,5.217283416E0,-1.103975365E0,5.719439480E0
7.720488792E0,1.645241739E0,4.117721529E0,-3.634921610E-2,4.434385215E0
7.730458792E0,2.775817696E0,-5.214353961E-1,-8.586788213E-1,2.952014240E0
7.740428792E0,8.359903821E-1,-5.195898979E0,-2.342451308E0,5.760496875E0
7.750398792E0,1.645657476E0,-3.917673956E0,-3.718687068E0,5.646679667E0
7.760367792E0,-3.226494328E-1,2.551919623E0,-1.639080967E0,3.050079152E0
7.770337792E0,-1.725012671E-1,2.192879824E0,6.410372686E-1,2.291158526E0
7.780307792E0,-3.471375719E-1,4.361312440E-1,1.726341305E0,1.814102879E0
7.790277792E0,-1.135884498E0,1.162486990E0,-3.420998887E0,3.787458644E0
7.800247792E0,-2.078267527E0,-2.684370167E0,-4.031184492E0,5.270245489E0
7.810217792E0,-2.534191450E0,-5.304547262E-1,-4.613616287E0,5.290459693E0
7.820187792E0,-5.298227007E0,-1.705135792E-2,-1.436901791E0,5.489643606E0
7.830157792E0,-8.740567061E-1,1.441621956E0,2.213668138E0,2.782548403E0
7.840127792E0,1.438165959E0,7.682954854E-1,7.263465663E0,7.444228147E0
7.850097792E0,-2.178331659E0,3.110970157E0,5.683393042E0,6.835511730E0
7.860067792E0,-1.171351004E0,5.288830531E0,-1.320389003E0,5.575591330E0
7.870037792E0,-1.823150146E0,3.900174116E0,-4.437743150E0,6.182944190E0
7.880007792E0,-8.101343599E-1,-3.296946698E-1,-4.678515703E0,4.759571981E0
7.889977792E0,-3.707643431E-1,-2.012319267E0,-7.217543970E0,7.501988802E0
7.899947792E0,-5.532922329E-1,-1.283487809E0,-3.887104420E0,4.130744972E0
7.909917792E0,-1.443243096E0,-1.432359382E0,3.275358778E0,3.855201572E0
7.919887792E0,1.949333791E-3,8.613974842E-1,6.012386046E0,6.073779334E0
7.929857792E0,1.845981915E0,4.533377578E0,9.813873196E-1,4.992222207E0
7.939827792E0,2.550031776E-1,1.589607383E0,-1.259512471E0,2.044076788E0
7.949797792E0,1.121958769E0,-3.786503659E0,1.546231860E-1,3.952253759E0
7.959767792E0,6.871726772E-1,-5.318333827E0,1.812616387E0,5.660605900E0
7.969737792E0,1.108622878E0,-3.294416023E0,2.791184179E0,4.457906543E0
7.979707792E0,-2.148683645E0,-1.838987330E0,1.509649340E0,3.205894093E0
7.989677792E0,-2.988506365E0,1.107883644E-1,4.282607748E0,5.223425454E0
7.999647792E0,3.392037774E-1,1.793691874E-1,5.528047725E0,5.541348587E0
8.009617792E0,-1.171045121E0,7.720812652E-1,-4.929582864E-1,1.486762936E0
8.019587792E0,-1.597899612E0,-2.853594728E0,1.233049727E0,3.495239286E0
8.029557792E0,-5.863688355E-1,1.852257586E0,-3.851911198E0,4.314151881E0
8.039527792E0,-2.351785365E0,-1.132135848E0,-5.394459897E0,5.992730894E0
8.049497792E0,-6.546546299E-1,-5.284463246E0,4.249689093E0,6.812780774E0
8.059467792E0,1.758481549E0,-2.914251404E0,1.772792171E0,3.837696013E0
8.069437792E0,-1.641002069E0,5.315972722E0,-5.656134492E-1,5.592170629E0
8.079407792E0,1.449253449E0,6.919841756E0,-2.346574765E0,7.449225370E0
8.089377792E0,-5.470316557E-1,-7.306978887E-1,2.220163225E0,2.400476574E0
8.099347792E0,1.221512074E0,-4.424393957E0,1.605341948E0,4.862558627E0
8.109317792E0,3.732915097E-1,-5.349934520E0,-6.265548849E-1,5.399418204E0
8.119287792E0,-4.315319338E-1,3.131497685E0,-6.157384715E0,6.921407667E0
8.129257792E0,-1.322454531E0,-1.133762836E0,-3.734965131E0,4.121197482E0
8.139227792E0,-1.610175110E0,-5.657082326E0,2.646315318E0,6.449668913E0
8.149197792E0,1.955518683E0,2.012712784E0,5.595136338E0,6.259442205E0
8.159167792E0,1.225779500E-1,9.486092319E0,-3.336696070E-1,9.492750300E0
8.169137792E0,2.559455569E-2,5.876951083E0,-2.695883335E0,6.465832976E0
8.179107792E0,-9.228432423E-1,-4.028541258E0,-5.294926838E0,6.716921507E0
8.189077792E0,-9.691869579E-1,-6.303659247E0,-4.444067498E0,7.773363441E0
8.199047792E0,2.947406359E-1,-2.461778362E0,-8.158596611E-1,2.610144006E0
8.209017792E0,-1.998722590E0,5.593738854E0,1.681701322E0,6.173566691E0
8.218987792E0,-3.509541227E0,1.228136896E0,1.007291888E1,1.073726663E1
8.228957792E0,-1.892773528E0,-1.801538837E0,4.269542729E0,5.005709632E0
8.238927792E0,-3.411773150E0,2.134146882E0,-4.694139463E0,6.183019023E0
8.248897792E0,-2.298197680E0,2.447640964E0,-4.915003417E0,5.952303541E0
8.258867792E0,7.178210773E-1,3.772326793E0,-8.938443856E0,9.728386048E0
8.268837792E0,1.664700104E0,-1.288484840E0,-6.833650873E0,7.150538712E0
8.278807792E0,-2.373871175E0,-5.754480566E0,2.396734520E0,6.670355860E0
8.288777792E0,2.217840126E-1,-2.674695364E0,1.322873368E1,1.349824352E1
8.298747792E0,-1.261557535E0,1.725782603E0,1.279631804E1,1.297365055E1
8.308717792E0,1.572387333E0,4.877950488E0,-7.740216637E-1,5.183233780E0
8.318687792E0,3.432217647E0,-6.079282871E-1,-3.972614102E0,5.285012543E0
8.328657792E0,-4.388322922E-1,-4.077813113E0,-1.706954861E0,4.442389949E0
8.338627792E0,1.890329976E0,1.814250684E0,-4.720439655E0,5.398833531E0
8.348597792E0,-3.376402685E-1,-8.149317080E-1,3.715323749E0,3.818605138E0
8.358567792E0,-3.731221598E-1,5.682043505E-1,-1.781067735E-1,7.027078716E-1
8.368537792E0,1.446631850E-1,-9.337974161E-2,1.682273179E-1,2.407231683E-1
8.378507792E0,-9.229531699E-1,1.817223116E0,3.532508213E0,4.078327682E0
8.388477792E0,1.813760395E0,4.483784418E0,6.155890167E-2,4.837131276E0
8.398447792E0,-1.158222762E0,8.162923551E-1,-2.692138193E0,3.042272379E0
8.408417792E0,-2.043926683E0,-5.932086818E0,-1.858377866E0,6.543764864E0
8.418387792E0,1.404080785E0,-4.175711583E0,-4.428858306E0,6.246822870E0
8.428357792E0,1.219375429E0,1.374806992E0,-4.301698322E0,4.677775022E0
8.438327792E0,2.219035297E0,5.301056474E-2,1.558108724E0,2.711942213E0
8.448297792E0,7.970573545E-1,-1.693170635E0,4.204943860E0,4.602573203E0
8.458267792E0,-9.305894874E-1,-1.599368140E0,2.262550276E0,2.922859728E0
8.468237792E0,-7.723948952E-1,5.817228207E-1,3.196676890E0,3.339721314E0
8.478207792E0,1.464466735E0,3.420315055E0,-2.275445725E0,4.361292371E0
8.488177792E0,-2.713356569E-2,-2.365245217E0,-3.369175599E0,4.116608481E0
8.498147792E0,-1.712269980E0,-6.123959692E0,-4.760355088E0,7.943282152E0
8.508117792E0,-2.338880414E-1,-3.303563992E0,-1.157386757E0,3.508244970E0
8.518087792E0,-2.958150253E0,4.799423551E0,3.298219053E0,6.531720161E0
8.528057792E0,-2.752358083E0,5.791839012E0,7.757916743E0,1.006509545E1
8.538027792E0,5.067861840E-1,1.723282626E0,3.831466994E0,4.231627887E0
8.547997792E0,1.515221736E0,-7.424832442E-1,-3.018070180E0,3.457734213E0
8.557967792E0,2.364155442E0,-2.195709877E0,-3.129820996E0,4.495125391E0
8.567937792E0,4.532998751E-1,-1.487985698E0,2.472845972E-2,1.555697179E0
8.577907792E0,5.360664818E-1,-1.600761531E0,2.152833706E0,2.735781007E0
8.587877792E0,1.297246454E0,1.715634468E0,6.124595869E-1,2.236371332E0
8.597847792E0,2.473470454E0,5.786933783E-1,1.042614684E0,2.745903766E0
8.607817792E0,2.415421198E-1,9.072747383E-1,2.433846797E0,2.608658713E0
8.617787792E0,1.796634485E0,4.841918483E-1,-6.578252095E-1,1.973593480E0
8.627757792E0,-1.686558092E-1,-9.207850224E-1,-1.639620665E0,1.888026950E0
8.637727792E0,-1.218934329E0,-1.717293616E0,1.167339887E0,2.407816578E0
8.647697792E0,1.503389018E0,2.219221238E0,-1.465887024E0,3.055150768E0
8.657667792E0,1.199760578E-1,1.240109071E0,-9.323367816E-1,1.556122307E0
8.667636917E0,-1.476406457E0,1.593372405E0,-3.229786164E0,3.892316831E0
8.677606917E0,-2.245732222E0,-4.091326028E-2,2.365610375E0,3.262069827E0
8.687576917E0,-2.237607662E0,2.121491461E0,5.118223981E0,5.975268261E0
8.697546917E0,-3.225422972E0,2.277639893E0,-1.383119686E0,4.183780216E0
8.707516917E0,2.050112745E-1,-7.170791388E-2,2.444248409E0,2.453878957E0
8.717485917E0,-2.002105350E0,1.511665460E0,-4.629951653E0,5.265929226E0
8.727456917E0,8.034863681E-1,1.742183751E-1,-9.670932747E0,9.705816945E0
8.737426917E0,1.806314843E0,-1.448998511E-1,-6.654678127E0,6.896992841E0
8.747396917E0,-1.577328449E-1,-1.327809412E0,4.380279638E0,4.579826109E0
8.757365917E0,3.226365689E-1,-6.793371159E-1,3.858498672E0,3.931107385E0
8.767335917E0,1.567004824E0,5.987595606E-1,1.961565435E0,2.581037793E0
8.777305917E0,2.068505527E-1,-8.026016843E-1,-1.840797043E-1,8.490241177E-1
8.787275917E0,-2.023026103E0,-1.982982909E0,-1.249430702E0,3.096115778E0
8.797245917E0,-2.661265187E-1,-3.410201126E0,1.958809642E0,3.941729349E0
8.807215917E0,-1.079745381E0,1.702262763E0,4.457168770E-1,2.064512566E0
8.817185917E0,-2.188171354E0,8.791765282E-1,1.411989729E0,2.748592410E0
8.827155917E0,-1.840808883E0,-2.348486804E0,6.292461244E0,6.964124936E0
8.837125917E0,-1.338695173E0,-2.480968924E0,4.009613528E0,4.901460212E0
8.847095917E0,1.120350858E0,5.582784095E-1,2.103535246E0,2.447799289E0
8.857065917E0,1.977550407E0,1.702834328E0,-3.501275311E0,4.366838577E0
8.867035917E0,-2.927894420E0,1.853710619E-1,-6.937149514E0,7.531996518E0
8.877005917E0,-2.956092033E0,-4.260670164E0,-1.254796107E0,5.335382238E0
8.886975917E0,7.837689722E-1,-5.944204588E0,4.491541042E0,7.491448653E0
8.896945917E0,1.611669512E0,-8.841832066E-1,5.055147142E0,5.379012102E0
8.906915917E0,2.430810923E0,5.594129448E0,1.352029456E0,6.247488269E0
8.916885917E0,1.289774005E0,2.420544382E0,-6.209012121E-1,2.812129158E0
8.926855917E0,5.464521235E-1,-1.749084050E0,8.545547801E-1,2.021922058E0
8.936825917E0,1.384112543E0,-2.191995141E0,3.097511621E0,4.039206416E0
8.946795917E0,-1.447631432E0,1.317418617E-1,1.915321561E0,2.404464464E0
8.956765917E0,5.154994489E-1,-1.800084050E0,-2.845336998E-1,1.893938144E0
8.966735917E0,-7.074853197E-2,-8.621383265E-1,-8.199240607E-1,1.191873867E0
8.976705917E0,-8.120316352E-1,1.780351451E0,-2.972786418E0,3.559003478E0
8.986675917E0,3.424579722E-1,2.609813198E0,-3.580204536E0,4.443677183E0
8.996645917E0,1.060028789E0,-1.334753565E0,1.510176759E0,2.277248769E0
9.006615917E0,-3.348673507E0,-1.019729851E0,1.576619840E0,3.839165710E0
9.016585917E0,-4.809820193E-1,2.503411707E0,-3.617788099E0,4.425698205E0
9.026555917E0,2.941983579E0,1.287347556E0,-7.382960531E0,8.051126462E0
9.036525917E0,1.976598626E0,2.279556026E0,-6.307159975E0,6.991679680E0
9.046495917E0,2.110484077E0,-9.169317073E-1,-5.100625616E-1,2.356919730E0
9.056465917E0,2.985482478E0,-3.472394743E0,9.986991709E0,1.098683914E1
9.066435917E0,1.597559304E0,5.569462969E0,3.352647275E0,6.694128564E0
9.076405917E0,5.038188317E-1,5.856226212E0,-4.004998906E0,7.112610990E0
9.086375917E0,2.608260469E0,-3.417195858E0,-4.220716724E0,6.024508268E0
9.096345917E0,-4.904890072E-1,-4.754553773E0,-1.050566897E0,4.893879019E0
9.106315917E0,4.695898890E-1,-2.454887126E0,1.561838078E0,2.947256970E0
9.116285917E0,2.225863091E0,1.359587567E0,3.364543435E0,4.257123134E0
9.126255917E0,2.026528293E0,5.705913593E0,2.852968783E0,6.693556434E0
9.136225917E0,5.893443009E-1,-5.279439318E-1,-6.588578278E-1,1.029633497E0
9.146195917E0,-2.537489133E-1,-4.033379244E0,2.519548852E0,4.762421974E0
9.156165917E0,-1.671458754E-1,-1.006937313E0,2.144563404E0,2.375081618E0
9.166135917E0,-3.581830354E-1,2.186564539E0,9.060184640E-1,2.393789679E0
9.176105917E0,-5.602277251E-1,2.166163604E0,-2.851635618E0,3.624630403E0
9.186075917E0,-2.069423906E0,-3.530168742E0,-1.940248826E0,4.528705351E0
9.196045917E0,1.734285040E0,-2.156330341E0,-3.928812609E0,4.805525326E0
9.206015917E0,3.196454404E0,-2.293132091E0,-1.713501989E0,4.290904870E0
9.215985917E0,2.794198126E0,-2.763523048E0,2.323479432E0,4.565430920E0
9.225955917E0,-1.284822144E0,-1.031466967E0,6.767396657E0,6.965080729E0
9.235925917E0,9.806096399E-1,-6.808395579E-1,6.296501670E0,6.408671551E0
9.245895917E0,-7.793273541E-1,-2.170082992E-1,-3.266184497E-1,8.724238296E-1
9.255865917E0,1.356724478E0,-2.743356879E0,3.263374910E0,4.473960670E0
9.265835917E0,4.494430152E-1,-5.779136521E-1,-3.691847763E0,3.763737918E0
9.275805917E0,3.548352998E0,5.314888063E-1,-7.178947669E0,8.025620162E0
9.285775917E0,2.416221828E0,9.826690292E-1,-3.557738364E0,4.411492787E0
9.295745917E0,-2.674586314E0,-6.248705944E-1,2.133908023E0,3.478137240E0
9.305715917E0,2.246892309E0,-2.173552438E0,-1.827085322E-1,3.131491283E0
9.315685917E0,-2.284002833E-2,-4.300069873E0,4.263547579E0,6.055490115E0
9.325655917E0,-2.404750760E-1,2.103660669E0,-2.580545837E-1,2.133028045E0
9.335625917E0,2.301530301E0,2.071061565E0,-3.911360425E-1,3.120789184E0
9.345595917E0,2.177370085E-1,2.515604321E0,-2.027373508E0,3.238196697E0
9.355565917E0,7.898874255E-1,-5.216894576E-1,-2.194029679E0,2.389528880E0
9.365535917E0,-1.792028341E-1,1.086717893E0,1.873925028E0,2.173629325E0
9.375505917E0,-1.342385643E0,3.970136636E-1,4.784176644E0,4.984773337E0
9.385475917E0,-2.972974406E0,-1.080362847E0,9.587069641E0,1.009542793E1
9.395445917E0,8.803358117E-1,5.040735510E-1,3.746077180E0,3.881001871E0
9.405414917E0,2.483650749E0,-4.569645810E-1,-9.259831971E-1,2.689755110E0
9.415384917E0,8.330577841E-1,1.922458964E0,-2.488018327E0,3.252701790E0
9.425354917E0,2.222956147E0,2.702637454E0,-5.446169164E0,6.473526226E0
9.435324917E0,1.558450202E0,-2.131979319E0,-3.456461080E0,4.349853566E0
9.445294917E0,8.804412809E-1,-7.599898079E-1,-2.292976263E0,2.571089555E0
9.455264917E0,-8.566433325E-1,4.634511605E0,-4.526802092E0,6.534865935E0
9.465234917E0,-2.183523402E0,4.014990628E-1,-4.390940282E0,4.920298010E0
9.475204917E0,1.426137944E0,-1.891247112E0,-2.758021696E0,3.635569934E0
9.485174917E0,5.833419147E-1,-8.617462707E-1,1.171713604E0,1.567101527E0
9.495144917E0,1.723587851E0,-3.217769844E0,9.928525400E0,1.057829922E1
9.505114917E0,1.949040991E0,-2.471657525E0,8.420820844E0,8.989887396E0
9.515084917E0,2.647247949E-1,3.655844117E0,1.556702469E0,3.982285525E0
9.525054917E0,1.898150042E0,3.594144883E0,1.935089242E-1,4.069188706E0
9.535024917E0,1.100008687E0,3.005616488E0,-2.973137836E0,4.368443450E0
9.544994917E0,-1.259401812E-1,4.547347453E-1,-6.645550039E0,6.662280386E0
9.554964917E0,7.247910315E-1,-5.550247849E0,-2.596981190E0,6.170484950E0
9.564934917E0,3.052443329E0,-1.550149494E0,-4.005547374E-1,3.446856224E0
9.574904917E0,-7.634444891E-1,3.099781803E0,-4.603158542E0,5.601835706E0
9.584874917E0,2.196753020E0,-7.790616712E-1,-7.765443279E0,8.107698208E0
9.594844917E0,1.405012100E0,-4.312378846E0,5.100843717E0,6.825633813E0
9.604814917E0,-4.558344604E-1,-5.041209134E-1,7.690415901E0,7.720389866E0
9.614784917E0,-8.300528269E-1,-9.753287271E-1,2.662218575E0,2.954261594E0
9.624754917E0,-2.399509023E0,1.524164468E-1,-1.476907271E0,2.821724546E0
9.634724917E0,-8.765289820E-1,-1.975349076E0,1.355827222E0,2.551190798E0
9.644694917E0,1.043454564E0,-1.446759612E0,7.849989924E0,8.050108857E0
9.654664917E0,1.311992693E0,-5.177656835E-1,4.385953192E0,4.607167408E0
9.664635583E0,5.421814634E-1,1.424159246E0,-3.404940678E0,3.730390237E0
9.674605583E0,-1.575585906E0,-7.364217281E-1,-1.813595211E0,2.512750584E0
9.684575583E0,-2.061646378E0,-1.307509633E0,1.659697080E0,2.952043635E0
9.694545583E0,1.254526258E0,-2.185326391E0,2.458485210E0,3.520459785E0
9.704515583E0,1.666319051E0,9.610372549E-1,2.620144351E0,3.250441232E0
9.714485583E0,-1.028531665E0,2.838403369E0,-1.745829490E0,3.487453466E0
9.724455583E0,1.000300285E0,-1.470155784E0,2.088531876E-1,1.790412897E0
9.734425583E0,2.206624289E0,1.070033448E0,3.735370928E-1,2.480663680E0
9.744395583E0,2.185158284E0,2.539355418E0,-9.462666035E-1,3.481187032E0
9.754365583E0,-3.196813130E-1,1.716563298E0,-5.638536127E0,5.902700683E0
9.764335583E0,1.479394969E0,-4.480124061E0,-4.422379591E0,6.466650008E0
9.774305583E0,1.982863333E0,-4.202997030E0,-3.388990059E0,5.751711454E0
9.784275583E0,1.681518450E0,-2.587381232E-1,-8.746329492E-1,1.912964325E0
9.794245583E0,-1.000145772E-1,-3.433790841E0,4.449032369E0,5.620926211E0
9.804215583E0,-1.358366522E0,1.660600182E0,-3.868950570E-1,2.180009256E0
9.814185583E0,2.318158320E0,3.260732553E0,-2.505599735E0,4.720621231E0
9.824155583E0,-1.062511590E0,1.689566704E0,3.244608271E-1,2.022088364E0
9.834125583E0,-8.771310259E-1,-1.590368690E0,7.968794237E0,8.173145845E0
9.844095583E0,1.882685034E-1,-2.597324422E-1,8.576516994E0,8.582514184E0
9.854065583E0,9.340719429E-1,2.155947348E0,2.120925450E-1,2.359148705E0
9.864035583E0,3.667959110E-1,1.667410434E0,-3.406841024E0,3.810690562E0
9.874005583E0,-1.654341322E0,4.625518002E0,-5.953740812E0,7.718762314E0
9.883975583E0,4.131505901E-1,3.065211017E0,-9.909451783E0,1.038091743E1
9.893945583E0,5.900934023E-1,-1.881196041E0,-1.112901608E1,1.130230541E1
9.903915583E0,1.154052674E0,-4.535974911E0,1.027018991E0,4.791834093E0
9.913885583E0,2.036395177E-1,-2.551963477E0,1.372492606E1,1.396164682E1
9.923855583E0,1.722242699E0,1.851037856E0,4.117882327E0,4.832123335E0
9.933825583E0,-1.162828395E0,9.413523111E-1,-1.080294142E0,1.845358903E0
9.943794583E0,1.715751851E0,-2.532995110E0,1.570549260E0,3.438966941E0
9.953764583E0,2.310698296E0,1.211719669E0,3.076421299E0,4.033851656E0
9.963734583E0,-1.594022031E0,1.122090332E0,1.824331284E-2,1.949442424E0
9.973704583E0,1.602321568E0,-3.466972620E0,2.452052103E0,4.538710508E0
9.983674583E0,1.688004035E0,2.893049693E0,1.903769217E0,3.852717402E0
9.993644583E0,1.196004254E0,-3.245089497E0,1.186749135E0,3.656419769E0
1.000361458E1,7.922690696E-1,7.904137480E-1,1.973125965E0,2.268406984E0
1.001358458E1,3.813053381E-1,3.942947084E0,-2.069978660E0,4.469567890E0
1.002355458E1,8.645144887E-2,-1.539623337E0,9.066797841E-1,1.788849380E0
1.003352458E1,3.193377599E0,-1.531637210E0,-7.820007741E-2,3.542553921E0
1.004349458E1,-1.005601224E-1,-6.221250343E-1,-4.354358346E0,4.399725958E0
1.005346458E1,-6.838323822E-1,2.867687979E-1,-4.472318906E-1,8.659557924E-1
1.006343458E1,-3.365572545E-1,2.384227033E0,-1.381910482E0,2.776235925E0
1.007340458E1,-1.337005766E0,2.696895780E0,-1.291134798E0,3.275341255E0
1.008337458E1,-1.730606118E0,-2.277823788E-1,-1.257334383E0,2.151225720E0
1.009334458E1,-7.452815024E-1,-1.871306645E0,3.228758808E0,3.805537612E0
1.010331458E1,-2.989767902E0,-5.161139621E0,4.093623984E0,7.234212577E0
1.011328458E1,1.093891330E0,-3.757726880E0,1.440215993E0,4.170291555E0
1.012325458E1,5.073512808E-1,1.856357361E0,-4.049962825E0,4.483934305E0
1.013322458E1,-2.695553990E-1,-1.460711946E0,-3.439058012E0,3.746125934E0
1.014319458E1,-1.297431957E0,2.474775553E-2,-1.823396314E0,2.238016142E0
1.015316458E1,1.378845372E0,2.868757143E0,1.030486389E0,3.345576826E0
1.016313458E1,-2.093639711E0,1.780740291E0,1.596170590E0,3.178383831E0
1.017310458E1,-3.484367209E0,3.624168581E-1,-2.030418738E0,4.049044465E0
1.018307458E1,7.032346132E-1,-3.901560784E0,-1.011790502E0,4.091507728E0
1.019304458E1,-4.538562743E-1,-4.371235457E0,4.049289225E0,5.975820293E0
1.020301458E1,5.412977298E-1,-4.794237363E-1,6.447402518E0,6.487823178E0
1.021298458E1,-1.047058276E0,1.102401587E0,2.377275571E0,2.821889337E0
1.022295458E1,-2.242673105E0,1.901974121E0,-1.855128568E0,3.476864999E0
1.023292458E1,8.020236871E-1,4.360423371E0,-3.177069422E0,5.454383932E0
1.024289458E1,1.589947252E0,7.800840569E-1,-2.473822457E0,3.042410384E0
1.025286458E1,8.935201867E-1,-3.554456906E0,-1.381118184E0,3.916634992E0
1.026283458E1,3.410863616E-2,-2.619098868E0,2.747194991E0,3.795776943E0
1.027280458E1,-1.441202857E0,5.575814214E-1,1.171395516E0,1.939105508E0
1.028277458E1,-7.871770218E-2,4.409729140E0,-2.271307066E0,4.960921623E0
1.029274458E1,3.300849715E-1,3.040642479E0,1.963629502E-1,3.064803612E0
1.030271458E1,-2.466441516E0,2.584830969E0,2.796519763E0,4.537092425E0
1.031268458E1,-2.616963758E-1,3.056648939E0,-9.690011626E-1,3.217227220E0
1.032265458E1,4.403410200E-1,-1.318254769E-3,-4.758477547E0,4.778808483E0
1.033262458E1,-2.067013245E0,-3.113936742E0,-3.936360195E0,5.428082293E0
1.034259458E1,1.730368575E0,-2.637059176E-1,-2.856149669E0,3.349821957E0
1.035256458E1,-1.620443113E0,-2.938330238E0,3.262852753E0,4.680366285E0
1.036253458E1,-6.084093668E-1,-2.641067150E0,4.580556715E0,5.322301895E0
1.037250458E1,-5.032168974E-1,1.234604209E0,-1.365228961E0,1.908225593E0
1.038247458E1,1.680967057E0,-6.388966030E-1,4.438027909E0,4.788520736E0
1.039244458E1,2.223911290E0,-1.294135589E0,7.420928257E0,7.854345583E0
1.040241458E1,-2.977457028E-1,7.385322806E-1,3.030557494E0,3.133426424E0
1.041238458E1,-2.575104637E-1,2.282537228E0,-4.016713217E0,4.627123611E0
1.042235358E1,2.920681295E0,3.527056561E0,-1.297982238E1,1.376394915E1
1.043232358E1,-8.412074871E-1,-2.878304769E0,-6.795179118E0,7.427430755E0
1.044229358E1,-2.323170407E0,-6.562454088E0,7.178684544E0,9.999821807E0
1.045226358E1,-1.022852557E0,-1.041257545E-1,1.214402606E1,1.218747055E1
1.046223358E1,-3.033085830E0,3.821253662E0,-4.284863019E-1,4.897467683E0
1.047220358E1,4.814237399E-1,-6.972038680E-1,-7.424738887E0,7.472925103E0
1.048217358E1,-2.724669835E-1,-2.245329349E0,-3.833757348E0,4.451228768E0
1.049214358E1,-8.407880956E-1,-2.959483418E0,2.105749587E0,3.728223175E0
1.050211358E1,1.446249735E0,-1.907791516E-1,2.990947285E0,3.327732057E0
1.051208358E1,-1.237173914E0,6.067711231E-1,1.364869357E0,1.939494483E0
1.052205358E1,1.693632858E0,-2.550616863E-1,1.234665897E0,2.111361788E0
1.053202358E1,9.034280743E-1,-1.884573392E0,1.474772453E0,2.557880557E0
1.054199358E1,-5.928999927E-1,-2.795711386E0,5.868438706E0,6.527335245E0
1.055196358E1,1.666378401E0,-1.159114609E0,2.109330422E-1,2.040797981E0
1.056193358E1,1.675373465E0,-9.217188227E-1,-1.698819630E0,2.557817423E0
1.057190358E1,-1.536571529E0,-8.618135136E-1,-1.882409338E0,2.578224100E0
1.058187358E1,-2.362837480E0,2.029518852E0,-3.729081078E0,4.858805760E0
1.059184358E1,5.557309604E-1,3.336889029E-1,-2.937640559E0,3.008308036E0
1.060181358E1,1.521080793E0,4.705271977E-1,-6.645302117E-1,1.725306646E0
1.061178358E1,-1.354489672E0,-3.393753493E0,1.118491663E0,3.821417099E0
1.062175358E1,-3.642218643E0,2.663783875E-1,4.537922326E0,5.824899409E0
1.063172358E1,-4.162970865E-1,4.840083919E0,8.195972013E-1,4.926606863E0
1.064169358E1,-3.287777168E-1,4.150277656E-1,-4.002226156E-1,6.637175418E-1
1.065166358E1,7.186964055E-1,-3.563246733E0,3.803299202E0,5.261020493E0
1.066163358E1,-1.109185746E0,-4.859014573E0,4.037936856E0,6.414456305E0
1.067160358E1,-1.790474005E0,6.337502346E0,-2.101108067E0,6.912625280E0
1.068157358E1,-1.019620801E0,6.196157017E0,-1.681898957E0,6.500828598E0
1.069154358E1,7.342125039E-1,2.604208057E0,-7.821165490E-1,2.816500293E0
1.070151358E1,3.964502479E-1,7.689228916E-1,-3.995517645E0,4.088101817E0
1.071148358E1,-1.665531431E0,-1.317013405E0,-5.267710973E0,5.679550876E0
1.072145358E1,1.348862604E0,2.069089591E0,-8.930101048E0,9.265380013E0
1.073142358E1,5.318161407E-1,6.307479233E-1,-8.357745759E0,8.398368028E0
1.074139358E1,4.218160906E-1,-6.331910069E0,4.342066330E0,7.689249245E0
1.075136358E1,8.029845308E-1,-4.915663567E0,1.819556681E1,1.886497241E1
1.076133358E1,1.661757492E-1,4.170477155E0,8.422393160E0,9.399851096E0
1.077130358E1,-7.684459050E-1,3.615721693E0,-3.511963436E0,5.098807669E0
1.078127358E1,-1.953302588E-2,-1.460976532E-1,-1.284197077E0,1.292628406E0
1.079124358E1,-1.643903896E0,1.524895370E-2,-3.792560205E0,4.133541516E0
1.080121358E1,-3.993389844E0,-2.406350850E0,-4.128497363E0,6.227533808E0
1.081118358E1,-8.516805813E-1,-1.961342071E0,-9.000835401E-1,2.319994162E0
1.082115358E1,-2.892942688E0,-2.556132542E0,-8.296456414E-1,3.948574789E0
1.083112358E1,-5.742414179E-1,2.681538361E0,-3.385771751E-1,2.763156834E0
1.084109358E1,2.815597182E0,2.054775607E0,-1.570205444E-1,3.489175510E0
1.085106358E1,-2.291757337E-1,-1.162274444E-1,-1.272623098E-1,2.867508174E-1
1.086103258E1,3.035310403E0,-3.243658683E0,4.796140047E0,6.537384052E0
1.087100258E1,-1.203724186E0,-4.743346122E0,2.767919862E0,5.622247301E0
1.088097258E1,-1.932619890E-1,9.740625125E-1,5.276808071E-1,1.124542133E0
1.089094258E1,-5.555281717E-1,2.042947859E0,4.338161559E0,4.827203457E0
1.090091258E1,4.461252319E-1,-1.231733519E0,-7.750893652E-1,1.522155941E0
1.091088258E1,-1.195668624E-1,-4.421037070E0,-3.836121377E0,5.854544579E0
1.092085258E1,9.281407466E-1,4.897250685E-1,-5.334715387E0,5.436953572E0
1.093082258E1,1.476465806E0,-1.850023657E0,-1.893510277E0,3.031158191E0
1.094079258E1,3.346069888E-1,-8.145184852E0,1.012605838E1,1.299973294E1
1.095076258E1,-2.971899396E0,-3.214883950E-1,9.738014343E0,1.018648439E1
1.096073258E1,-1.108830308E0,2.047263689E0,-4.936868495E-1,2.380025204E0
1.097070258E1,1.253778691E0,5.147719091E0,-5.814308107E0,7.866203126E0
1.098067258E1,1.930822091E0,3.500223981E0,-3.395552974E0,5.244942503E0
1.099064258E1,1.167426207E0,2.135283581E0,-6.280877325E0,6.735854800E0
1.100061258E1,2.631477424E0,-3.302051902E0,-9.486612722E0,1.038383557E1
1.101058258E1,3.678826599E0,-6.119773085E0,-4.301696568E0,8.336065086E0
1.102055258E1,9.504991836E-1,-4.276514657E0,4.574237044E0,6.333693302E0
1.103052258E1,-1.099709602E0,-3.878496149E0,9.804017129E0,1.060051157E1
1.104049258E1,-2.552599069E0,8.061907053E-2,1.081932882E1,1.111666036E1
1.105046258E1,2.125020255E0,4.584643041E0,5.593202080E0,7.537809523E0
1.106043258E1,2.242350192E0,4.649159757E0,-3.196924812E0,6.071503033E0
1.107040258E1,4.037959953E0,1.208590239E-1,-5.856506878E0,7.114660940E0
1.108037258E1,5.175123821E0,-5.213660481E0,-2.806546569E-1,7.351389611E0
1.109034258E1,5.873615831E-1,2.393776998E0,-6.912098873E-1,2.559869734E0
1.110031258E1,4.195213509E-1,4.682220791E0,2.010433540E0,5.112830206E0
1.111028258E1,-6.436932933E-1,4.844109435E0,4.364847082E-1,4.906144736E0
1.112025258E1,-8.774135926E-1,2.902610182E0,-5.534312432E0,6.310595422E0
1.113022258E1,2.257511292E-2,1.042677834E0,-4.566322837E0,4.683907659E0
1.114019258E1,-3.438817326E-1,-2.854888717E0,-1.024783600E0,3.052675164E0
1.115016258E1,-9.101732031E-1,-5.477706122E0,6.977751995E0,8.917550253E0
1.116013258E1,-1.616447564E0,-7.687378272E-1,7.705443245E0,7.910607826E0
1.117010258E1,1.555741771E0,6.992405702E0,-3.945812219E0,8.178233552E0
1.118007258E1,-2.473358772E0,3.071783580E0,-6.171273022E0,7.323794692E0
1.119004258E1,3.106828575E0,-2.740075714E0,-6.557431329E0,7.756307391E0
1.120001258E1,-5.201159353E-1,-4.898632967E0,-4.477677879E0,6.657080795E0
1.120998258E1,-5.689503090E-1,-6.397610554E0,7.379308945E0,9.783012100E0
1.121995258E1,2.823398537E0,-1.704587908E0,6.902625214E0,7.650061051E0
1.122992258E1,-6.401926383E-1,-9.518296444E-1,6.939375549E0,7.033545286E0
1.123989258E1,-1.208262941E0,1.561013621E0,1.844261518E0,2.701474303E0
1.124986258E1,-4.545582325E-1,1.164777637E0,-1.438781671E0,1.906153936E0
1.125983258E1,-1.541617237E0,3.136002088E0,-2.927749409E0,4.558816667E0
1.126980158E1,-4.198647578E0,2.825214682E0,-6.781730522E0,8.461817084E0
1.127977158E1,-4.957507997E0,-2.803683480E0,1.825988384E0,5.980949772E0
1.128974158E1,-1.376329461E0,-3.793632292E0,4.561165009E0,6.090168716E0
1.129971158E1,1.819853413E-1,-5.796426737E-1,-8.172372651E-1,1.018322661E0
1.130968158E1,-1.928380732E0,1.198819250E0,-4.823923677E0,5.331609465E0
1.131965158E1,-5.298523168E-1,-2.048339577E0,-1.083145829E0,2.376897850E0
1.132962158E1,3.503122446E-1,-3.368341202E-1,-5.836883622E-1,7.595182667E-1
1.133959158E1,5.021488669E-1,-2.449475235E0,2.642815760E0,3.638208014E0
1.134956158E1,-6.270255127E-1,-1.928593278E0,9.244924495E0,9.464737817E0
1.135953158E1,-1.409223119E0,3.446112970E0,3.209006329E0,4.915213731E0
1.136950158E1,-5.698125540E-1,1.643649981E0,-6.458637359E0,6.688816647E0
1.137947158E1,-1.826988989E0,2.205470634E0,-9.677416724E0,1.009229329E1
1.138944158E1,-2.619860139E-1,-1.330807571E0,-6.866851948E0,6.999524351E0
1.139941158E1,-8.374059199E-1,-6.402283064E0,5.417807829E0,8.428708013E0
1.140938158E1,-4.956145668E-1,-2.713244595E0,1.067353084E1,1.102413673E1
1.141935158E1,-1.192301358E0,6.964457765E-1,1.627274854E0,2.134160888E0
1.142932158E1,-1.954124168E-2,-1.117522779E-1,-4.114822479E0,4.116386093E0
1.143929158E1,2.685165315E-1,1.472939058E0,-3.577637023E0,3.878290508E0
1.144926158E1,-5.727265140E-1,1.875707844E0,2.453408657E0,3.140940881E0
1.145923158E1,-1.715671598E0,3.903788280E-1,4.696354973E0,5.015144534E0
1.146920158E1,-2.026949439E0,1.709551902E0,2.285447972E0,3.500623397E0
1.147917158E1,-3.803905558E0,1.446603491E0,-3.566397505E0,5.411242955E0
1.148914158E1,-9.554416157E-1,-1.247018725E0,-4.391367713E0,4.663907672E0
1.149911158E1,-1.719690828E0,5.690425488E-1,-8.533342908E0,8.723479074E0
1.150908158E1,-1.776938724E0,-8.041704923E-2,-1.240828863E0,2.168786388E0
1.151905158E1,1.163138297E0,-9.080784380E-1,8.199316036E0,8.331043188E0
1.152902158E1,-1.205511461E0,3.121142851E0,5.886509526E0,6.770951557E0
1.153899158E1,-3.708635996E-1,6.057430072E0,-2.304515158E0,6.491593718E0
1.154896158E1,-1.112533496E0,1.136023954E0,-6.068336883E0,6.273196453E0
1.155893158E1,-3.220348173E0,-5.569151312E0,-2.726913339E-1,6.438978899E0
1.156890158E1,-3.154504724E0,-1.087908971E0,4.439897264E0,5.554019599E0
1.157887158E1,-2.136621277E0,4.880841936E0,4.983487760E0,7.295403947E0
1.158884158E1,-1.199943523E0,-7.128866851E-1,3.341365657E0,3.621159529E0
1.159881158E1,-3.574072268E0,3.111470094E-1,1.148283811E0,3.766876790E0
1.160878158E1,1.242675852E0,-8.281782827E-1,-4.692183570E0,4.924094759E0
1.161875158E1,-2.371061588E0,-1.609820038E0,-6.064005851E0,6.707132067E0
1.162872158E1,1.413103623E0,3.211992502E-1,-4.730303907E0,4.947302888E0
1.163869158E1,-4.660467687E-1,-4.398798940E-1,-3.168665219E0,3.232821242E0
1.164866058E1,-1.964921444E0,-6.839225024E-1,-1.258040142E-1,2.084344722E0
1.165863058E1,-1.541802156E0,-4.246973939E0,4.392026694E0,6.301098317E0
1.166860071E1,-2.459272245E0,-1.013177169E0,6.506624873E0,7.029275580E0
1.167857071E1,9.098206159E-1,2.494585919E-1,-9.918871647E-1,1.368883958E0
1.168854071E1,-8.506361224E-1,2.825240117E-1,-2.145698934E0,2.325387181E0
1.169851071E1,-5.235167490E-2,-1.257491673E0,2.765232482E0,3.038179831E0
1.170848071E1,-1.981828961E0,-3.012155429E0,4.201013362E0,5.536175541E0
1.171845071E1,-2.129540153E0,-1.639778832E0,3.620524011E0,4.509103015E0
1.172842071E1,6.732875135E-1,5.471198756E-1,3.487991606E0,3.594265110E0
1.173839071E1,1.033212361E0,7.047075999E-1,2.761423021E0,3.031434922E0
1.174836071E1,-9.932763170E-1,3.482423303E0,-1.867833983E0,4.074637860E0
1.175833071E1,-1.144837389E0,8.268500876E-1,-6.741330355E0,6.887660609E0
1.176830071E1,-2.604002673E-1,-1.981264120E0,-7.606924093E0,7.865018117E0
1.177827071E1,-1.643994747E-1,-3.481882435E0,-2.808239338E0,4.476241801E0
1.178824071E1,-2.030095387E0,-4.436447992E0,8.039725640E0,9.404283409E0
1.179821071E1,5.697362479E-1,2.476075389E0,8.457452481E0,8.830857896E0
1.180818071E1,-2.176710263E-1,4.855317670E0,-9.272035110E-1,4.947847684E0
1.181815071E1,-8.106222370E-1,-1.453170499E-1,2.792445424E0,2.911353105E0
1.182812071E1,7.092304212E-1,-1.316047445E0,3.752842993E0,4.039655827E0
1.183809071E1,-1.270670128E-1,-5.441016598E0,1.522667581E0,5.651488672E0
1.184806071E1,-1.071899440E0,6.107086381E-1,-4.228399381E0,4.404690089E0
1.185803071E1,-1.532532126E0,4.689464614E0,-8.308225105E0,9.662625807E0
1.186800071E1,-1.125393862E0,-1.580582498E0,-7.631961286E0,7.874743516E0
1.187797071E1,1.473459753E0,-4.140047953E0,-1.570190826E0,4.666538323E0
1.188794071E1,1.014378480E0,-2.179259905E0,2.905018358E0,3.770579411E0
1.189791071E1,9.595019223E-1,1.633579322E0,6.406256831E0,6.680520334E0
1.190788071E1,2.184978189E0,6.249090691E0,1.540185839E0,6.796869616E0
1.191785071E1,-7.129681807E-1,4.665920508E0,-6.163130189E0,7.762944773E0
1.192782071E1,3.027737381E0,-3.916905924E0,2.787831386E0,5.681667845E0
1.193779071E1,1.923009078E-1,-1.076464800E0,6.860367971E0,6.946970909E0
1.194776071E1,3.986648808E-1,6.555591795E0,1.619172367E0,6.764350422E0
1.195773071E1,1.304813190E0,7.480693817E0,-1.188887228E1,1.410704085E1
1.196770071E1,-7.877653248E-1,-1.774784902E-1,-1.351133896E1,1.353544803E1
1.197767071E1,-8.184010072E-1,-5.307666752E0,-8.059100389E0,9.684534353E0
1.198764071E1,-2.389037830E0,-8.982255288E0,9.834346637E0,1.353154779E1
1.199761071E1,-1.711300220E-1,-4.608854315E0,1.632819768E1,1.696705228E1
1.200758071E1,-9.912843168E-1,5.567402995E0,8.670288792E0,1.035145055E1
1.201754971E1,1.051761849E0,8.075736887E0,-1.937938591E0,8.371340110E0
1.202751971E1,3.340858923E-1,-2.531395896E0,-3.576461733E0,4.394389274E0
1.203748971E1,2.320030598E0,9.811578164E-1,-6.830774628E0,7.280432312E0
1.204745971E1,5.333871049E0,1.419585554E0,-5.997791396E0,8.151006388E0
1.205742971E1,-2.519511321E-1,-6.949605837E0,4.493953604E0,8.279862297E0
1.206739971E1,-4.109689940E-1,-6.803472809E0,9.194882269E0,1.144561041E1
1.207736971E1,-4.839745877E-2,6.045014094E0,-5.013519645E-2,6.045415722E0
1.208733971E1,-1.634584604E0,-2.836764687E0,3.081508961E0,4.496086987E0
1.209730971E1,5.957590619E-1,-5.639936535E0,-1.155174170E0,5.787766438E0
1.210727971E1,-2.839143627E0,3.589675856E-1,-5.009257025E-1,2.905257445E0
1.211724971E1,1.368032116E-1,6.731794131E-1,-1.593828780E0,1.735562105E0
1.212721971E1,-1.657981068E0,1.186488056E0,-2.458641331E0,3.193990032E0
1.213718971E1,-1.040367014E0,3.438458088E-1,-1.342103807E0,1.732580761E0
1.214715971E1,-8.756026369E-2,-2.135444964E0,6.899696928E-1,2.245851769E0
1.215712971E1,-5.790970920E-2,9.716119444E-1,-3.756064224E-1,1.043294536E0
1.216709971E1,2.285952331E-1,5.896463826E-1,-1.540088190E0,1.664875452E0
1.217706971E1,-1.674935216E0,-1.472054667E0,6.219692645E0,6.607339065E0
1.218703971E1,3.830674696E-1,-4.407543451E-2,4.462220179E0,4.478849435E0
1.219700971E1,4.532868285E-1,-4.771079758E0,-7.478793472E-1,4.850566413E0
1.220697971E1,5.233950173E-1,-1.621306016E0,-5.136025245E0,5.411222676E0
1.221694971E1,1.392312240E0,1.911273533E0,-2.778112144E0,3.648205994E0
1.222691971E1,1.625126148E-1,1.311588943E0,-3.437478679E-1,1.365590899E0
1.223688971E1,5.396981874E-2,2.376001462E0,1.815654016E0,2.990801764E0
1.224685971E1,-1.613413079E-1,2.915243384E0,2.716452670E0,3.987955631E0
1.225682971E1,-1.875497929E0,3.270350638E-1,4.307175994E0,4.709162288E0
1.226679971E1,-2.398186383E0,-2.892702953E0,1.706229222E-1,3.761401399E0
1.227676971E1,-1.237196572E0,-2.199480746E0,-5.625444211E0,6.165548920E0
1.228673971E1,-2.690167974E0,-1.915354890E-1,-6.746132088E0,7.265258958E0
1.229670971E1,-5.365972628E-1,1.317240277E-1,-1.778825912E0,1.862661931E0
1.230667971E1,-2.167946712E0,2.303379921E0,3.391841746E0,4.637902806E0
1.231664971E1,1.524112720E0,1.714650674E0,5.490644841E0,5.950640914E0
1.232661971E1,-1.478830859E0,2.557194981E-1,3.964262524E0,4.238833628E0
1.233658971E1,-1.228185721E0,5.679301161E-1,-7.055238712E-1,1.526023825E0
1.234655971E1,3.161216012E-1,2.610846108E0,-3.393350328E0,4.293166281E0
1.235652871E1,-8.743366416E-1,-1.497643544E0,-2.516879014E0,3.056481755E0
1.236649871E1,1.220042450E0,1.551901320E0,-5.530191314E-1,2.050056450E0
1.237646871E1,8.372449753E-1,2.063912466E0,-2.628784196E0,3.445463709E0
1.238643871E1,-1.800771244E0,-9.082991704E-1,-1.314492670E0,2.407420909E0
1.239640871E1,-1.426798241E0,1.510294873E0,-3.902496046E-1,2.114010070E0
1.240637871E1,-3.313038528E0,-1.289217788E0,-1.813240870E0,3.990757979E0
1.241634871E1,8.255639926E-2,-1.880365444E0,1.277714853E0,2.274894504E0
1.242631871E1,3.084396024E-1,-9.528581697E-1,3.801496505E0,3.931214743E0
1.243628871E1,2.163331212E0,-3.758016025E0,6.562066417E0,7.865329112E0
1.244625871E1,2.026648015E0,-4.668063220E-1,3.220224212E0,3.833412878E0
1.245622871E1,-5.694049300E-1,2.125107964E0,-2.281725635E0,3.169633686E0
1.246619871E1,-1.681190567E0,1.607636103E0,-2.840259275E0,3.671235257E0
1.247616871E1,1.030920691E0,1.538758826E0,-1.237048638E0,2.227300054E0
1.248613871E1,2.973427931E-1,-3.953188482E-1,9.642228180E-1,1.083704467E0
1.249610871E1,-9.611745183E-1,-3.212729251E-1,-8.991830689E-1,1.354844249E0
1.250607871E1,1.570903017E0,-1.913025359E0,-1.278152225E0,2.785870676E0
1.251604871E1,5.374633085E-1,-6.019606188E-1,2.072545588E-1,8.331733594E-1
1.252601871E1,1.011204173E0,8.434316218E-3,-8.431497860E-1,1.316626970E0
1.253598871E1,1.979908735E0,-2.517983553E0,6.872062987E-1,3.276054375E0
1.254595871E1,-2.163930260E0,-7.649257350E-1,1.967690393E0,3.023162422E0
1.255592871E1,2.217915263E0,3.176243795E0,4.012541814E0,5.577469369E0
1.256589871E1,2.776115466E-1,-1.734095005E0,3.327583770E0,3.762574571E0
1.257586871E1,6.154312149E-1,-3.576179897E0,-3.080424303E0,4.759919340E0
1.258583871E1,-1.534948049E0,-7.193347022E-1,8.406430846E-1,1.892138664E0
1.259580871E1,-2.306892636E0,1.945011967E-1,2.626662827E0,3.501277189E0
1.260577871E1,-2.036703618E-1,3.088326815E-1,-5.072091204E-1,6.277900391E-1
1.261574871E1,-3.075726065E0,-2.199990331E0,-1.249692072E0,3.982684843E0
1.262571871E1,-1.790919709E0,-2.863435007E0,-1.242467253E0,3.598663407E0
1.263568871E1,-1.234555824E0,8.815417269E-1,-1.373848341E0,2.046632151E0
1.264565871E1,-9.703770125E-1,2.150129369E-1,-1.411143637E0,1.726032582E0
1.265562871E1,3.176878218E0,-6.595767429E-1,8.666561776E-1,3.358376039E0
1.266559792E1,2.688752363E0,1.996093243E-2,7.733585894E-2,2.689938390E0
1.267556792E1,9.573543131E-1,6.393129247E-1,-1.728705334E0,2.076937753E0
1.268553792E1,2.237747264E0,3.057321369E0,-4.461665863E0,5.853305822E0
1.269550692E1,2.050904751E0,-2.228736413E0,1.275426838E0,3.286364239E0
1.270547692E1,2.197024038E-1,-1.865346285E0,2.504772354E0,3.130761961E0
1.271544692E1,-8.151402343E-1,-1.718932005E0,-1.510859714E0,2.429378092E0
1.272541692E1,1.690894753E0,2.676282591E0,-2.315581014E0,3.922184213E0
1.273538692E1,8.055804022E-1,3.679965344E0,-3.169025407E0,4.922786482E0
1.274535692E1,2.801363743E-1,-2.453891053E0,-2.553804181E0,3.552741685E0
1.275532692E1,1.348152167E0,-2.237689377E0,3.458870718E0,4.334576641E0
1.276529692E1,-1.223884070E0,1.367681283E-1,3.945465479E0,4.133194356E0
1.277526692E1,-7.341222375E-1,3.839001131E0,3.157796414E0,5.024792865E0
1.278523692E1,4.928968906E-1,4.643635015E0,1.819865765E0,5.011806551E0
1.279520692E1,1.151167000E0,1.482830208E0,1.207931843E0,2.232279155E0
1.280517692E1,1.864026569E0,-1.408682251E0,-3.022529851E0,3.820296773E0
1.281514692E1,9.388837628E-1,1.985364480E0,-6.435806905E0,6.800204803E0
1.282511692E1,6.778796974E-1,-4.141044903E-1,-3.303516630E0,3.397679434E0
1.283508692E1,1.972830096E0,-5.772395850E0,8.747417074E-1,6.162611905E0
1.284505692E1,4.535973888E-1,-4.997484241E0,8.074062245E0,9.506370520E0
1.285502692E1,-1.927707425E0,7.723215857E-1,7.064853873E0,7.363742038E0
1.286499692E1,-1.093859974E0,1.589880155E0,-8.058404571E-1,2.091321925E0
1.287496692E1,1.490955207E0,5.609406468E-1,-2.879416324E0,3.290689929E0
1.288493692E1,2.475174918E0,2.283343560E-1,-1.028703573E0,2.690140980E0
1.289490692E1,2.201081421E0,-1.505425896E0,2.198565949E0,3.456119035E0
1.290487692E1,-5.233036546E-1,-1.157611874E0,4.916380436E0,5.077864567E0
1.291484692E1,-5.677602544E-1,1.350455385E-1,-2.899979228E-1,6.516807495E-1
1.292481692E1,-7.588117401E-1,3.627523421E0,-1.760753338E0,4.103044448E0
1.293478692E1,-5.205104396E-1,1.548643544E0,-4.653424716E-1,1.698755886E0
1.294475692E1,-9.754643825E-1,4.585719806E-1,1.713203781E0,2.024076633E0
1.295472692E1,-2.853594435E0,-2.768004062E0,7.900820940E0,8.844649185E0
1.296469692E1,-1.063607138E0,-1.651424439E0,5.686241221E0,6.015962271E0
1.297466692E1,1.720468215E0,2.375216474E0,-4.789237409E0,5.615911247E0
1.298463692E1,-2.733920934E0,3.169156970E0,-4.680838217E0,6.279181952E0
1.299460692E1,-5.833719548E-1,2.735283920E0,-1.187281114E1,1.219777625E1
1.300457592E1,-5.841084116E-1,1.076657758E0,-1.332451808E1,1.338070091E1
1.301454592E1,9.369283077E-1,-5.280899953E0,-1.887043256E0,5.685654862E0
1.302451592E1,9.173368462E-1,-7.873749501E0,1.766333219E1,1.936054602E1
1.303448592E1,-8.647946434E-1,-6.969767037E-1,1.519084407E1,1.523139488E1
1.304445592E1,-5.126025190E-1,2.826746068E0,-5.709169908E0,6.391234287E0
1.305442592E1,2.542979815E0,3.413667940E0,-1.381626658E1,1.445714693E1
1.306439592E1,-1.302114261E0,-5.081166667E0,-6.712511183E0,8.518894449E0
1.307436592E1,4.927311952E-1,-5.802446446E0,-3.103171141E0,6.598548319E0
1.308433592E1,6.021008789E-1,-1.578495919E0,5.820680988E0,6.060899438E0
1.309430592E1,-8.795109158E-1,3.526394364E-1,1.489400081E1,1.492411318E1
1.310427592E1,1.789915449E0,3.519129784E0,6.793724331E0,7.857656268E0
1.311424592E1,2.040501384E-1,-1.698247188E0,-8.221840096E-1,1.897805711E0
1.312421592E1,1.851982620E0,-6.049956161E-1,7.499434143E-1,2.087648066E0
1.313418592E1,-1.833947030E-1,9.443425772E-1,1.666991481E0,1.924649869E0
1.314415592E1,-1.823177189E-1,3.344136652E0,-6.265711402E0,7.104620262E0
1.315412592E1,9.645069196E-1,3.130722929E0,-1.154675870E1,1.200247209E1
1.316409592E1,9.086865485E-1,-1.827564794E0,-1.158185369E1,1.176031629E1
1.317406592E1,-1.488799338E0,-4.373922838E0,-8.459790782E0,9.639283404E0
1.318403592E1,2.902482421E0,-1.174441623E0,-3.566130288E0,4.745629838E0
1.319400592E1,8.416002008E-1,1.685361679E0,4.459570806E0,4.841126590E0
1.320397592E1,-1.430088177E0,-2.827516438E0,1.484422580E1,1.517863766E1
1.321394592E1,-1.997150420E0,-2.054330634E0,1.358150789E1,1.388042653E1
1.322391592E1,1.070804622E0,1.130548329E0,6.197175018E0,6.389815354E0
1.323388592E1,2.639330235E0,2.872512225E0,1.862933432E0,4.322951716E0
1.324385592E1,3.542918011E0,2.614856129E0,1.830295444E0,4.768618460E0
1.325382592E1,1.369154196E0,2.823825676E0,3.481906409E0,4.687456336E0
1.326379592E1,-6.050522610E-1,1.682493912E0,-3.149981026E0,3.622051141E0
1.327376592E1,2.024959924E0,7.390877076E0,-1.448633645E1,1.638839438E1
1.328373592E1,1.401621738E0,4.229533741E-1,-9.168028346E0,9.284189615E0
1.329370592E1,-2.108198693E0,-9.977617453E0,-2.400322371E0,1.047658815E1
1.330367592E1,-1.528381334E0,-5.071113549E0,4.367305251E0,6.864801329E0
1.331364492E1,-2.255970112E0,1.501697419E0,2.546207478E0,3.718557355E0
1.332361492E1,3.979209322E-1,1.689696512E0,2.215825760E-1,1.750004060E0
1.333358492E1,-4.871403068E-2,1.734559859E0,2.388412178E-2,1.735408140E0
1.334355492E1,8.238903002E-1,-5.805039686E-1,4.479863568E0,4.591835980E0
1.335352492E1,-9.328309444E-1,1.250029164E0,9.232461154E-2,1.562456501E0
1.336349492E1,-8.592222469E-1,-3.678158846E-1,4.238786960E0,4.340606672E0
1.337346492E1,-1.065055786E0,-4.239315548E0,2.947933413E0,5.272234019E0
1.338343492E1,1.301101669E0,-1.682539228E0,-1.086165331E0,2.388212497E0
1.339340492E1,2.128633104E0,-4.420850252E0,3.024315006E0,5.763807517E0
1.340337492E1,-2.103304866E-1,-7.842545834E-1,2.243126410E-1,8.423837167E-1
1.341334492E1,-1.498611259E0,-2.272818279E0,-2.249902748E0,3.531798552E0
1.342331492E1,-1.264594578E0,-1.878815054E0,-3.232158964E0,3.946643767E0
1.343328492E1,1.901812738E-1,2.542246867E0,-3.256431341E0,4.135641804E0
1.344325492E1,-4.175423607E-2,2.353269242E0,-2.472501571E0,3.413632019E0
1.345322492E1,1.104548612E0,2.080844834E0,5.273194492E-2,2.356421761E0
1.346319492E1,9.508131060E-1,6.286098889E-1,7.215155382E0,7.304632992E0
1.347316492E1,8.159320204E-1,5.810033208E-1,7.155937121E0,7.225700381E0
1.348313492E1,2.912735513E0,-2.725653264E-1,1.076911528E0,3.117380065E0
1.349310492E1,1.615455000E0,-4.619813166E0,-6.455236618E0,8.100768380E0
1.350307492E1,1.317730274E0,-9.173521221E0,-9.770378097E0,1.346663257E1
1.351304492E1,-3.750978608E-1,-4.484053098E0,-1.365915424E0,4.702462710E0
1.352301492E1,-1.096808214E0,-6.842575479E-1,7.221383252E0,7.336182435E0
1.353298492E1,-2.439687143E-1,5.223395510E0,3.968492399E0,6.564473575E0
1.354295492E1,6.550954369E-1,6.733509119E0,-4.071156058E0,7.895796776E0
1.355292492E1,1.612769666E0,2.929256529E0,-3.790680910E0,5.054783039E0
1.356289492E1,-1.226786190E0,-2.267000592E0,1.548340366E0,3.006934307E0
1.357286492E1,-1.353131071E0,-7.277096692E-1,1.904470298E0,2.446943435E0
1.358283492E1,9.682013366E-1,4.374895522E0,-3.541623437E-1,4.494725311E0
1.359280492E1,1.240004990E0,2.423934597E0,-2.343905511E0,3.592626386E0
1.360277392E1,2.963378248E0,-3.521883822E0,4.807096560E0,6.655332722E0
1.361274392E1,-4.701670092E-1,-1.186776617E0,1.028222932E1,1.036116478E1
1.362271392E1,-2.504228709E-1,4.659660771E-1,1.366386124E0,1.465212285E0
1.363268392E1,4.254028458E-1,4.025259508E0,-1.043395755E1,1.119156610E1
1.364265392E1,1.590080715E0,1.995891514E0,-8.044810379E0,8.439840855E0
1.365262392E1,2.644095423E0,-3.496756582E0,-2.688935089E0,5.142851263E0
1.366259392E1,1.742673455E0,1.933384779E0,-3.865106610E0,4.659821518E0
1.367256521E1,5.880856146E-1,-3.041475999E0,1.986206771E0,3.679869330E0
1.368253521E1,-9.476493969E-1,-4.581816790E0,6.105752047E0,7.692287860E0
1.369250521E1,-3.752856296E-1,2.659115750E0,5.664563254E0,6.268892464E0
1.370247521E1,-1.689186927E0,2.749835594E0,2.716514651E0,4.218340920E0
1.371244521E1,-4.064643721E0,-3.150070488E0,8.806986169E0,1.019839586E1
1.372241521E1,-3.088020421E0,-3.839112228E-1,7.870343497E0,8.463188803E0
1.373238521E1,2.006377765E-1,2.741250127E0,3.509108241E0,4.457414993E0
1.374235521E1,-5.452223810E-1,-1.546514280E0,-3.911110164E0,4.240961752E0
1.375232521E1,1.709092019E0,5.019542277E-1,-8.935373483E0,9.111193821E0
1.376229521E1,3.356879197E-1,4.703803741E0,-9.864994233E0,1.093419257E1
1.377226521E1,-1.631262362E0,-7.509640458E-1,-9.187024196E0,9.360896189E0
1.378223521E1,-8.486917039E-1,-6.771573908E0,-3.618411412E0,7.724467098E0
1.379220521E1,-1.162367049E0,-4.075705191E-1,9.401539242E-1,1.549548414E0
1.380217521E1,1.972686839E-1,1.346599147E-1,2.376655181E0,2.388626818E0
1.381214521E1,2.290360511E0,-1.558595213E0,8.926114417E0,9.346148345E0
1.382211521E1,1.862247553E-1,-6.521729985E-1,6.382585548E0,6.418520667E0
1.383208521E1,4.392740639E0,2.216660450E0,-3.975656993E0,6.325788678E0
1.384205521E1,3.572004693E0,2.308164405E0,-2.213639486E0,4.794480183E0
1.385202521E1,6.178371249E-1,4.411078092E-1,-1.851158309E0,2.000771326E0
1.386199521E1,2.017046302E0,-3.889972187E0,1.199621780E0,4.543066345E0
1.387196521E1,1.900826751E0,-8.388737757E0,2.479415903E0,8.951623691E0
1.388193421E1,-4.613919465E-1,-4.085991321E0,9.427465796E-2,4.113039668E0
1.389190421E1,-9.151701605E-1,4.723930442E-1,3.433724182E0,3.584850537E0
1.390187421E1,-3.270423144E0,-3.301604006E-1,4.675776283E0,5.715553978E0
1.391184421E1,-1.407555785E0,3.196015278E0,2.440753528E0,4.260634311E0
1.392181421E1,-8.942636602E-2,2.225348536E0,-1.332337203E0,2.595244806E0
1.393178421E1,-6.580696231E-1,2.797396553E0,-5.578630233E0,6.275316597E0
1.394175421E1,8.754702705E-1,3.970801173E0,-5.298818745E0,6.679160893E0
1.395172421E1,1.810789424E0,-8.759129047E-2,-3.763855639E0,4.177707487E0
1.396169421E1,-1.461391100E0,-6.127098477E0,-2.747321876E0,6.872028607E0
1.397166421E1,6.701131332E-1,-1.080804604E0,1.078963315E-1,1.276256957E0
1.398163421E1,1.735077337E0,-7.740137699E-1,2.219255152E0,2.921418168E0
1.399160421E1,1.951826897E-1,-2.466068756E0,4.680920078E0,5.294393655E0
1.400157421E1,-8.920279042E-1,-1.947659294E0,4.849355557E0,5.301446956E0
1.401154421E1,-1.874564713E0,3.762210817E0,2.535046313E0,4.908633507E0
1.402151421E1,-4.920176887E-1,5.674888267E0,-2.075086203E0,6.062377504E0
1.403148421E1,1.828415710E0,1.169308060E0,-7.785567641E-2,2.171738210E0
1.404145421E1,2.610425109E0,3.907483428E0,1.029284202E0,4.810631139E0
1.405142421E1,2.864753847E0,6.373932838E-1,-6.302341869E0,6.952164974E0
1.406139421E1,-2.806189158E-1,-1.013487949E0,-3.979353603E0,4.115964030E0
1.407136421E1,9.416995626E-1,-1.141249318E0,-5.711805832E-1,1.586031315E0
1.408133421E1,2.057056314E-1,-1.648042117E0,1.915770627E0,2.535455525E0
1.409130421E1,-9.178458463E-1,-3.033068288E0,2.588296906E0,4.091604222E0
1.410127421E1,-6.044663700E-1,-3.202581409E-1,3.181871740E0,3.254574110E0
1.411124421E1,-5.725947323E-1,1.010575158E0,1.569976233E0,1.952934267E0
1.412121421E1,-6.309461439E-1,3.567105603E0,-5.021723288E-1,3.657118055E0
1.413118421E1,-9.228390031E-1,1.141991330E0,1.161245334E-1,1.472841108E0
1.414115421E1,-1.920550141E0,-8.438502824E-1,-2.544174986E0,3.297487301E0
1.415112321E1,-5.901711702E-1,7.840180635E-1,-1.288467298E0,1.619609309E0
1.416109321E1,-1.098015006E0,3.796509415E-2,-1.750776819E0,2.066953742E0
1.417106321E1,-2.536956306E-1,-2.698694969E0,1.472081564E0,3.084532402E0
1.418103321E1,1.653245116E0,-3.030737588E-1,4.723041666E-1,1.745893565E0
1.419100321E1,-1.349235072E0,-1.077306799E0,3.092181884E0,3.541555311E0
1.420097321E1,1.868787079E0,1.079246321E0,-2.074592113E0,2.993504670E0
1.421094321E1,2.308697964E0,1.707615889E0,-4.586909714E0,5.411633676E0
1.422091321E1,1.716411709E0,-1.158196888E0,-3.139932001E0,3.761204881E0
1.423088321E1,3.557319995E0,-2.904518421E0,3.838184275E0,5.985182649E0
1.424085321E1,-3.959174569E-1,-2.078192244E0,1.016338466E1,1.038123410E1
1.425082321E1,2.833495655E-1,2.945738368E0,2.683177335E0,3.994634166E0
1.426079321E1,1.948736059E0,3.996538277E0,-1.099499322E0,4.580260821E0
1.427076321E1,9.172565201E-1,-1.343071522E0,-2.829495136E0,3.263624268E0
1.428073321E1,6.130988337E-2,-5.319926609E0,-2.980980706E0,6.098493584E0
1.429070321E1,-2.873996540E0,-4.089492634E0,-3.366955411E-1,5.009707576E0
1.430067321E1,-1.032542709E0,5.904915977E-1,1.462942366E0,1.885477430E0
1.431064321E1,-1.174896244E0,4.216507899E0,2.566232437E0,5.073940182E0
1.432061321E1,8.782075714E-1,1.909873125E-1,1.589176735E0,1.825707366E0
1.433058321E1,1.244779534E0,1.040500623E0,-4.093059728E0,4.402869016E0
1.434055321E1,-7.453563467E-1,-4.640659367E0,-2.174701123E0,5.178860919E0
1.435052321E1,-1.657039520E0,-5.080715847E0,3.107399263E0,6.181859240E0
1.436049321E1,-9.889417760E-2,4.150450149E-1,-1.457068253E0,1.518252389E0
1.437046321E1,3.722603240E0,3.683526590E-1,-3.216421768E0,4.933439729E0
1.438043321E1,1.435017087E0,-1.784119982E-1,-4.441414617E0,4.670895918E0
1.439040321E1,-1.240618655E0,-3.226335722E0,2.724807757E0,4.401471816E0
1.440037321E1,-1.175270466E0,-2.433988008E0,4.732399549E0,5.449877410E0
1.441034321E1,-2.601316608E-1,2.708262475E0,3.410321286E0,4.362642020E0
1.442031221E1,-3.481277248E-1,5.580104316E0,-9.998183280E-1,5.679647329E0
1.443028221E1,6.493281088E-1,2.424246839E-1,-5.054602182E-1,8.578384186E-1
1.444025221E1,-3.756356585E-1,-8.147428429E-1,-1.316195964E0,1.592884134E0
1.445022221E1,2.457603011E-2,1.740178156E0,-3.313136469E0,3.742418638E0
1.446019221E1,8.437823816E-1,5.254372305E0,-4.573723658E0,7.017075254E0
1.447016221E1,1.985134538E0,4.148069748E0,-2.878203612E0,5.425062009E0
1.448013221E1,2.494854891E-1,7.311168417E-1,3.307996767E0,3.397001244E0
1.449010221E1,7.734243706E-2,-9.782292384E-1,2.270086752E0,2.473096876E0
1.450007221E1,-9.105327337E-1,-2.302971785E0,3.925179734E0,4.641097376E0
1.451004221E1,-2.170726332E0,-1.590649941E0,2.812907170E0,3.892899535E0
1.452001221E1,-7.473530978E-1,-4.626928058E-1,2.556017936E0,2.702933402E0
1.452998221E1,9.881662890E-2,1.240516621E0,-3.049732268E-2,1.244819787E0
1.453995221E1,-3.084447553E-1,3.646282458E0,-1.722196214E0,4.044313753E0
1.454992221E1,-6.948366228E-1,4.591912007E-1,-3.182462894E0,3.289638971E0
1.455989221E1,1.399907335E0,-3.066810815E0,-2.813200116E0,4.390804484E0
1.456986221E1,-5.644739365E-1,-1.706532985E0,-2.117525879E0,2.777553150E0
1.457983221E1,-1.778655759E0,-2.034056291E0,2.978291572E0,4.021345793E0
1.458980221E1,-2.520497563E0,-2.192314106E0,7.027660319E0,7.781205477E0
1.459977221E1,-5.240962812E-1,3.730979669E-1,1.180172771E-1,6.540696313E-1
1.460974221E1,-1.431169473E0,-2.594315445E0,-2.625335509E-1,2.974498706E0
1.461971221E1,2.966053861E-1,7.350292137E-1,-1.020630907E0,1.292257772E0
1.462968221E1,2.333875928E-1,2.678193461E0,-2.748632237E0,3.844758660E0
1.463965221E1,-3.124917813E0,-2.059007237E0,-1.459948007E0,4.016972781E0
1.464962121E1,6.989056271E-1,8.763134390E-2,-2.358223003E0,2.461171278E0
1.465959121E1,-1.645170988E0,2.159045788E0,1.507545512E0,3.104957289E0
1.466956042E1,3.145628797E-1,-4.614964655E-1,1.952029796E0,2.030356894E0
1.467953042E1,-1.876386304E-1,-2.152924338E0,3.473953611E-1,2.188829595E0
1.468950042E1,-1.352798219E0,1.301464489E-1,-1.806034176E0,2.260256747E0
1.469947042E1,7.089331634E-1,-7.556453267E-1,-3.023359571E0,3.195980160E0
1.470944042E1,-1.167386957E0,-2.518940742E0,2.047152300E0,3.449447392E0
1.471941042E1,-4.411018889E-2,6.353289244E-1,3.106875352E0,3.171476471E0
1.472938042E1,-3.104761145E-1,-4.917996606E-1,2.024862714E0,2.106734756E0
1.473935042E1,-8.528612803E-1,2.199499165E0,-8.208870971E-1,2.497803949E0
1.474932042E1,-1.150181817E0,3.896906108E-2,4.612979525E-1,1.239851847E0
1.475929042E1,-4.351797558E-1,-2.450979724E0,-1.781729640E0,3.061248689E0
1.476926042E1,7.830797316E-1,-1.474745556E0,9.144115573E-1,1.903742844E0
1.477923042E1,6.638821940E-1,2.117247552E-1,1.800146030E0,1.930308957E0
1.478920042E1,-8.413905050E-1,6.256465200E-1,1.692219293E0,1.990722905E0
1.479917042E1,-6.850937728E-1,1.959892254E0,-4.156413140E0,4.646106038E0
1.480914042E1,6.456378579E-1,9.790876096E-1,-3.710952955E0,3.891867499E0
1.481911042E1,-1.658364353E0,8.504447722E-1,-2.229875450E0,2.906161241E0
1.482908042E1,-2.126702499E0,2.191920004E0,2.641203098E0,4.037738306E0
1.483905042E1,-1.403156486E0,-1.002720009E0,3.677317432E0,4.061644869E0
1.484902042E1,-8.907608856E-1,2.252734555E0,-4.817363101E-1,2.469886192E0
1.485899042E1,5.776944546E-1,2.887583423E0,-2.527695193E0,3.880864839E0
1.486896042E1,1.096745283E0,-9.989807144E-1,-4.471517837E-1,1.549437769E0
1.487893042E1,1.701264790E0,1.792873263E-1,-2.537202766E0,3.060039821E0
1.488890042E1,-1.146929706E-1,2.343268164E0,2.190200922E0,3.209523368E0
1.489887042E1,-3.867190923E-1,8.765733477E-1,-2.449398637E-1,9.889024356E-1
1.490883942E1,-3.030829097E0,-5.718056506E-1,-1.536338371E-1,3.088120799E0
1.491880942E1,-1.210999438E0,-1.195792146E0,-6.248802423E-1,1.812984780E0
1.492877942E1,7.759037362E-1,-2.022108675E0,7.773990154E-2,2.167254852E0
1.493874942E1,-3.672984792E-1,4.803838491E-1,-1.086338993E0,1.243305764E0
1.494871942E1,-1.117631830E0,-9.367353496E-1,-5.320358133E-1,1.552300270E0
1.495868942E1,-2.673907452E0,8.823065427E-1,1.360584517E0,3.127208999E0
1.496865942E1,-2.715585272E-1,3.682003391E-1,-3.575642538E-1,5.806614496E-1
1.497862942E1,-2.661038900E0,2.323905694E-1,-1.259338224E-1,2.674134015E0
1.498859942E1,-1.008587982E0,-4.755900094E-1,9.290781283E-1,1.451420595E0
1.499856942E1,-3.885347624E-1,-1.109950927E0,1.360212049E0,1.798089859E0
1.500853942E1,-1.108311404E-1,-1.488408452E0,3.695396438E0,3.985423202E0
1.501850942E1,-2.258797496E-1,3.488281920E0,1.301543427E0,3.730033205E0
1.502847942E1,-8.833459584E-1,6.554059240E-1,3.867532620E0,4.020903577E0
1.503844942E1,1.166820362E0,8.910162628E-1,-2.290942016E0,2.720991558E0
1.504841942E1,-1.616343630E0,1.215896335E-1,-5.647373024E0,5.875387038E0
1.505838942E1,-4.252479677E-1,-2.846959307E0,2.081503522E-1,2.886059546E0
1.506835942E1,2.071491774E0,2.046491565E0,-8.064339495E0,8.573959259E0
1.507832942E1,4.322840685E-1,-1.185701898E0,-3.780008572E-1,1.317438103E0
1.508829942E1,3.161474606E0,-3.016553997E0,3.365927471E0,5.515794361E0
1.509826942E1,9.388575234E-1,-1.659647671E0,3.256482212E0,3.773666683E0
1.510823942E1,-1.789093916E0,1.668942989E0,4.410779884E0,5.043927728E0
1.511820942E1,1.017378832E0,1.832378514E0,-4.247387629E0,4.736345889E0
1.512817942E1,-1.134238507E-1,-2.383181551E0,-2.386803024E0,3.374795986E0
1.513814942E1,9.487421684E-1,-3.418866407E0,3.334559498E0,4.869090907E0
1.514811842E1,-1.899856552E0,-9.043484992E-1,4.422795913E0,4.897797955E0
1.515808842E1,-5.584730122E-1,3.017973116E0,2.029865007E0,3.679729036E0
1.516805842E1,-3.465045378E-1,6.239651531E-2,-1.978791332E-1,4.038748212E-1
1.517802842E1,5.990956658E-1,-2.321496642E0,-7.537353337E-2,2.398737886E0
1.518799842E1,-1.557035760E0,-7.835450238E-1,-2.004701514E0,2.656526176E0
1.519796842E1,-1.368453846E0,5.628082475E-1,-3.967571463E0,4.234506154E0
1.520793842E1,8.892303769E-1,2.814260800E0,-3.759265575E0,4.779421741E0
1.521790842E1,-3.057136853E-1,-3.599911407E-1,-2.569568859E0,2.612611452E0
1.522787842E1,9.814876724E-1,-5.007925029E0,6.149633646E-2,5.103568648E0
1.523784842E1,1.067507085E0,-1.304423180E-1,2.057101922E0,2.321261487E0
1.524781842E1,4.286252829E-1,2.598589175E0,1.627329817E0,3.095898523E0
1.525778842E1,-5.573183333E-1,3.720480993E-1,-5.197326869E-1,8.480245154E-1
1.526775842E1,-1.463186487E0,-3.342297703E-1,-5.579939425E-1,1.601243728E0
1.527772842E1,-1.976172876E-1,-1.167440459E-1,2.102561100E0,2.115051996E0
1.528769842E1,-4.157297239E-2,9.832800633E-1,4.896710402E0,4.994631194E0
1.529766842E1,-4.504097792E-1,1.691207725E0,3.368751091E0,3.796252949E0
1.530763842E1,9.464728640E-1,4.328848406E0,-4.435029457E0,6.269308231E0
1.531760842E1,1.121002457E0,2.246818635E0,-2.582106459E0,3.601682142E0
1.532757842E1,-9.192457429E-1,-3.841468656E-1,-4.946937400E-1,1.112341425E0
1.533754842E1,-1.911411491E-1,2.226152528E0,-1.057932635E0,2.472147139E0
1.534751842E1,-8.543976362E-1,5.958882853E-1,-1.607114239E0,1.915174756E0
1.535748842E1,-3.983167887E-1,-2.450234204E0,1.091932440E-1,2.484799204E0
1.536745842E1,1.190507725E-2,1.748172469E0,-2.366313211E0,2.942054881E0
1.537742742E1,-9.935309267E-2,-7.210327336E-1,-9.259533763E-2,7.337118893E-1
1.538739742E1,-3.181942199E-1,5.609207663E-1,3.626149033E0,3.683047173E0
1.539736742E1,2.021203928E-1,1.067179422E0,2.801291676E0,3.004489911E0
1.540733742E1,-2.433307246E0,-3.283642236E0,-1.977407881E0,4.540201803E0
1.541730742E1,-1.651727617E0,-3.854288676E-1,-9.343306822E-1,1.936422825E0
1.542727742E1,-1.269736620E0,-1.402331590E0,1.613293576E0,2.486258461E0
1.543724742E1,-1.833029894E0,-1.386650527E0,-4.902831852E-2,2.298956731E0
1.544721742E1,-1.782449432E0,-1.425222855E0,-8.397771120E-1,2.431791883E0
1.545718742E1,-8.111865664E-1,8.903780392E-1,1.389505430E0,1.838891525E0
1.546715742E1,-1.494300106E0,-1.626971968E0,2.571076271E0,3.389749811E0
1.547712742E1,9.432912478E-1,1.475892779E-1,7.798232710E-1,1.232763281E0
1.548709742E1,-1.540847122E-1,1.221799099E-1,-1.693491647E0,1.704870666E0
1.549706742E1,1.525462842E0,-1.218432273E0,-2.028262870E0,2.815220125E0
1.550703742E1,6.229069532E-1,-6.306441352E-1,-1.385910562E0,1.645136221E0
1.551700742E1,-1.004803737E0,-2.507144862E0,1.990620250E-1,2.708326346E0
1.552697742E1,2.010789781E0,-1.024060884E-1,5.184813827E0,5.562019146E0
1.553694742E1,1.790983297E0,-1.056357687E0,5.211449649E0,5.610946460E0
1.554691742E1,1.293492688E0,-5.076084852E-1,2.038293768E0,2.466866675E0
1.555688742E1,4.169777024E-1,2.227338636E0,-4.980412710E-1,2.320119159E0
1.556685742E1,4.441045804E-1,-1.679269465E0,-4.385750878E-1,1.791514142E0
1.557682742E1,1.093148149E0,-6.348105687E-1,-2.325106128E0,2.646521460E0
1.558679742E1,1.350227052E0,2.257956996E0,-4.478743241E0,5.194287623E0
1.559676742E1,1.635602458E0,-1.656047248E0,-1.329729345E0,2.680646940E0
1.560673642E1,2.677853007E-2,-6.667182398E-1,2.338058880E0,2.431408980E0
1.561670642E1,-1.105204304E0,2.286560990E0,2.337827915E-1,2.550390579E0
1.562667642E1,-1.212126051E0,-9.473743585E-1,-2.512148032E0,2.945786053E0
1.563664642E1,-9.892539442E-1,-1.171432061E0,2.558349806E-1,1.554454238E0
1.564661642E1,6.512460686E-1,7.364249441E-1,1.000262132E0,1.402486175E0
1.565658642E1,4.987814188E-1,1.838900498E0,1.552877805E0,2.458000697E0
1.566655642E1,3.384313967E-1,6.438343427E0,-4.252920849E0,7.723609108E0
1.567652571E1,3.065715632E-1,1.108143553E0,-9.125638372E-1,1.467903612E0
1.568649571E1,-4.987346411E-1,-2.274008480E0,6.850480914E-1,2.426755384E0
1.569646571E1,2.196845991E0,8.632098287E-1,-1.662501404E0,2.887070216E0
1.570643571E1,6.032799699E-1,3.308269539E0,-1.739566537E0,3.786117510E0
1.571640571E1,-7.409846760E-1,1.602528852E0,1.767502779E0,2.498244001E0
1.572637571E1,-1.021366122E0,-2.893459875E0,8.719251037E-2,3.069674467E0
1.573634571E1,-7.579848707E-1,-2.387771030E0,2.973442476E0,3.888103871E0
1.574631571E1,8.395987719E-2,1.474702286E0,-6.880266631E-1,1.629471320E0
1.575628571E1,8.683790597E-1,3.750941479E0,-1.338970869E0,4.076332562E0
1.576625571E1,-4.918496543E-1,5.784685528E-1,8.569217330E-1,1.144926550E0
1.577622571E1,-8.625760636E-1,-3.248989882E0,1.253536617E0,3.587663135E0
1.578619571E1,-1.058946688E0,-1.563722636E0,1.487198371E-1,1.894390182E0
1.579616571E1,-1.038532962E0,-8.190686131E-1,1.137046047E0,1.744218398E0
1.580613571E1,-1.432358358E0,-1.294371524E0,1.524963782E0,2.460195652E0
1.581610571E1,3.529817909E-3,-2.016423427E0,3.051502805E0,3.657546345E0
1.582607571E1,7.759295370E-1,7.162166744E-1,-1.532579781E0,1.861137758E0
1.583604571E1,1.394036730E0,-7.289940101E-1,-3.581302643E-1,1.613390206E0
1.584601471E1,1.065470646E0,-2.111782744E0,-7.132164681E-1,2.470532693E0
1.585598471E1,1.597711624E0,-9.384678796E-1,9.545930386E-2,1.855402078E0
1.586595471E1,-6.430822592E-1,-4.058806154E0,7.976233649E-1,4.186127711E0
1.587592471E1,-2.164959370E0,-1.974838030E0,4.588087928E-1,2.966064703E0
1.588589471E1,-8.324849032E-1,1.931921221E0,-3.199245572E-1,2.127839853E0
1.589586471E1,1.576842911E0,-8.816744587E-1,1.518365200E0,2.359918705E0
1.590583471E1,-1.082290016E0,-2.022052834E0,-8.223407149E-1,2.436451024E0
1.591580471E1,-1.198682132E0,1.486292052E0,2.298382598E-1,1.923207879E0
1.592577471E1,-2.143227316E0,1.765553318E0,2.730111181E0,3.894112082E0
1.593574471E1,-9.855289755E-1,2.127027312E0,-2.163508383E0,3.190028381E0
1.594571471E1,-8.374322324E-1,-8.821460366E-2,-2.093741160E0,2.256729183E0
1.595568471E1,5.988687573E-1,-2.917830192E0,-1.645621662E0,3.403005653E0
1.596565471E1,1.768528673E0,9.684614646E-1,-1.064339429E0,2.280006513E0
1.597562471E1,1.822947101E0,1.829347318E0,9.353135991E-1,2.746717909E0
1.598559471E1,3.110642713E0,-1.121733944E0,4.206861162E-1,3.333370957E0
1.599556471E1,1.003486798E0,4.832928389E-2,1.255217691E0,1.607760220E0
1.600553471E1,-5.426374000E-1,-2.496262024E0,1.845159650E0,3.151252699E0
1.601550471E1,-3.476488379E-1,2.437046394E-1,2.008318602E0,2.052704380E0
1.602547471E1,8.835462986E-1,1.634140362E0,-1.945918286E0,2.690291203E0
1.603544471E1,5.929556874E-1,5.783635953E-1,-2.491175238E0,2.625272360E0
1.604541471E1,1.317990913E-1,-5.636604792E-1,-4.856697321E-3,5.788848968E-1
1.605538471E1,-2.110998340E0,-4.428634357E-1,-9.776123571E-1,2.368157076E0
1.606535471E1,1.726931874E0,-7.650280613E-1,-1.443367057E0,2.377155883E0
1.607532371E1,7.945947265E-1,3.515568244E0,-1.345630848E0,3.847248788E0
1.608529371E1,1.745981810E0,1.322207194E0,-2.411371855E0,3.257514170E0
1.609526371E1,2.409733903E0,-1.202538371E0,6.947953999E-1,2.781304850E0
1.610523371E1,-1.612312706E-1,4.802578416E-1,9.654062945E-1,1.090253379E0
1.611520371E1,1.681398290E0,-1.346947056E-1,4.298840203E0,4.617929186E0
1.612517371E1,1.035071264E0,2.796559817E0,1.288394793E0,3.248396600E0
1.613514371E1,2.683286532E-1,1.555321064E0,5.346681713E0,5.574767190E0
1.614511371E1,1.874880463E-2,1.875165222E0,-1.085915655E-1,1.878400452E0
1.615508371E1,-2.809825395E-1,3.318969944E0,-4.872390663E0,5.902093141E0
1.616505371E1,2.464918901E0,1.619643068E0,-1.749639536E0,3.429330454E0
1.617502371E1,2.743325889E0,-5.332818550E0,-2.852766470E0,6.641014015E0
1.618499371E1,1.391508102E0,-3.002837014E0,-1.595276551E0,3.673994039E0
1.619496371E1,3.450370620E0,8.707881126E-1,-7.091052908E-1,3.628520314E0
1.620493371E1,2.975755488E-1,-2.978636850E0,8.431176263E-1,3.109931836E0
1.621490371E1,7.301154330E-1,-4.023220876E0,5.104146810E0,6.540006836E0
1.622487371E1,9.591596409E-1,2.198879068E0,8.489467156E-1,2.544752816E0
1.623484371E1,-1.053897033E0,7.455094707E-1,1.636633907E0,2.084479281E0
1.624481371E1,6.186627518E-1,-8.522062460E-1,7.811704695E-2,1.055983598E0
1.625478371E1,-2.203675392E0,-2.123618970E0,6.654102176E-1,3.131886576E0
1.626475371E1,-1.427663483E0,-3.324084503E0,1.320033492E0,3.851006261E0
1.627472371E1,1.822927952E-2,1.900663176E0,-2.916069596E0,3.480849710E0
1.628469371E1,1.438745418E0,3.256046010E0,-4.912399067E0,6.066587887E0
1.629466371E1,-9.592149702E-1,-3.104231534E0,-1.232159196E0,3.474847199E0
1.630463371E1,1.029966572E-1,-6.304624622E0,3.664271709E0,7.292858637E0
1.631460371E1,-1.232464421E0,-2.316581180E0,6.220394896E0,6.751209489E0
1.632457271E1,-6.151232129E-1,6.549006661E0,-5.620197505E-1,6.601797559E0
1.633454271E1,-8.239487723E-1,1.524767901E0,-9.548783827E-1,1.978787875E0
1.634451271E1,-5.544676329E-1,7.275164187E-1,-3.767239423E0,3.876700577E0
1.635448271E1,7.026837324E-1,-2.945238139E0,-2.267356102E0,3.782736551E0
1.636445271E1,1.371294570E0,-2.092665857E0,-1.731674550E0,3.042761235E0
1.637442271E1,1.661867858E0,-4.774383143E-1,2.539505399E0,3.072269486E0
1.638439271E1,2.473409351E0,-2.401967778E0,1.093461954E1,1.146530015E1
1.639436271E1,1.091067417E0,-2.403427827E-1,1.892527944E0,2.197693059E0
1.640433271E1,3.000404426E-1,2.546217711E0,-3.998623686E0,4.749972661E0
1.641430271E1,-3.710609432E-1,8.926844734E-1,-2.747856311E0,2.912951441E0
1.642427271E1,1.465678571E0,3.364049345E-1,-3.062818921E0,3.412072932E0
1.643424271E1,-1.457289570E0,-1.197850951E0,-1.311387214E0,2.297449938E0
1.644421271E1,-2.098954245E0,2.269813102E0,9.402884102E-1,3.231377839E0
1.645418271E1,-1.698672573E0,2.716263220E0,1.815101454E0,3.682141724E0
