"Time (s)","Linear Acceleration x (m/s^2)","Linear Acceleration y (m/s^2)","Linear Acceleration z (m/s^2)","Absolute acceleration (m/s^2)"
9.835916630E-3,-3.109159567E0,-3.833148653E0,1.084892392E-1,4.936767335E0
1.980591664E-2,-3.930231729E0,1.283089029E0,-2.459082795E0,4.810418598E0
2.977491665E-2,-2.762748877E0,3.934421551E0,-1.448452381E0,5.021002748E0
3.974491666E-2,-9.927738950E-1,1.438217415E0,1.586258975E0,2.360145519E0
4.971491668E-2,8.848570433E-2,-2.589352036E0,1.796965730E0,3.153039727E0
5.968391662E-2,7.823893216E-1,-3.345935256E0,-2.017055511E-1,3.442107046E0
6.965391664E-2,1.416019045E0,-1.369171446E0,1.795446038E-2,1.969787488E0
7.962391665E-2,1.583425999E0,8.099811628E-1,3.624443400E-1,1.815123488E0
8.959291666E-2,1.087617926E0,8.118885246E-1,5.991548324E-1,1.483597736E0
9.956291667E-2,5.524800912E-1,4.632880524E-1,-2.791384739E-1,7.731677427E-1
1.095319167E-1,-7.979196726E-1,1.190228228E0,-2.477852942E0,2.862354667E0
1.195019166E-1,-1.096712027E0,1.376156237E0,-2.705730046E0,3.227624256E0
1.294719166E-1,1.141575666E-1,4.585208175E-1,1.584256303E-1,4.983693113E-1
1.394409167E-1,1.177586255E0,1.365567514E-1,4.143804789E-1,1.255813806E0
1.494109167E-1,2.312295463E0,1.128641552E0,-1.249936486E0,2.860573942E0
1.593809166E-1,2.313741918E0,1.814945625E0,-5.228229403E-1,2.986766331E0
1.693499166E-1,3.397888936E0,1.567080692E0,-6.404981554E-1,3.796265139E0
1.793199166E-1,3.555144539E0,2.060849403E0,-3.579881769E-1,4.124840420E0
1.892899167E-1,1.101430365E0,2.182376179E0,-7.636832017E-1,2.561079199E0
1.992589167E-1,8.786977143E-1,4.634269238E-1,-2.455877352E-1,1.023321808E0
2.092289167E-1,5.928275969E-1,4.132861724E-1,-5.816283882E-2,7.250054729E-1
2.191979166E-1,1.231186073E-1,2.540881834E0,-2.609926926E0,3.644579159E0
2.291679166E-1,5.478647377E-1,2.733904270E0,-3.468891091E0,4.450572293E0
2.391379167E-1,1.864563928E0,1.510078818E0,1.283556222E0,2.721112503E0
2.491069167E-1,3.050285999E0,1.280228571E0,1.422917590E0,3.601100435E0
2.590769167E-1,2.839333661E0,5.178954917E-1,-2.458157766E-1,2.896628519E0
2.690469166E-1,7.324169701E-1,-3.156710002E-1,1.911674652E0,2.071372196E0
2.790159166E-1,2.659628551E0,1.301823801E0,1.208157545E0,3.198126622E0
2.889859166E-1,1.026155211E0,3.130288188E0,-2.055053058E0,3.882646228E0
2.989549167E-1,8.840712324E-1,4.389449826E0,-3.747091672E0,5.838625499E0
3.089249167E-1,5.678152914E-1,3.741219606E0,-2.890432479E0,4.761694893E0
3.188949166E-1,6.059923836E-1,4.054321047E0,-3.085348828E0,5.130703978E0
3.288639166E-1,1.155934747E0,3.614955708E0,-3.527107725E0,5.181175427E0
3.388339166E-1,7.135184037E-1,1.999154845E0,-1.549898064E-1,2.128321040E0
3.488039167E-1,2.669506253E0,1.515105084E0,5.074289757E-1,3.111155929E0
3.587729167E-1,2.391332716E0,2.516166238E0,-1.841605713E0,3.929513494E0
3.687429167E-1,1.218279368E0,2.574441051E0,-2.307766210E0,3.665751795E0
3.787129166E-1,1.496283482E0,2.748883667E0,-2.625337263E0,4.085048521E0
3.886819166E-1,9.337765854E-1,3.278146438E0,-1.512640775E0,3.729110470E0
3.986519167E-1,2.090302851E-1,4.022373322E0,-3.442892032E0,5.298743846E0
4.086209167E-1,-5.205250211E-1,4.455079267E0,-5.609270813E0,7.182102521E0
4.185909167E-1,-9.988174309E-1,2.326422336E0,2.455175686E-1,2.543650138E0
4.285609166E-1,1.181738071E0,2.524682123E0,4.099720291E0,4.957643710E0
4.385299166E-1,1.870977739E0,4.510832176E0,-4.500309527E-1,4.904150536E0
4.484999166E-1,-1.402764577E0,3.230705346E0,-4.308474076E-1,3.548356659E0
4.584699167E-1,-5.171929122E-1,7.331674603E-1,1.074302500E0,1.399696001E0
4.684385416E-1,-1.529712745E-1,1.915525921E0,-1.864332671E0,2.677382317E0
4.784085416E-1,-3.120710157E0,2.002724571E0,-5.896867869E0,6.965830048E0
4.883775417E-1,-3.646908402E0,-4.735253575E-1,-2.247252206E0,4.309792296E0
4.983475417E-1,-3.657772529E0,4.617344472E-1,5.943121684E-1,3.734394935E0
5.083175416E-1,-2.948753485E0,2.453446372E0,-4.702132022E-1,3.864666437E0
5.182865416E-1,-4.522428959E0,4.991765079E-1,7.277280879E-1,4.607724932E0
5.282565416E-1,-4.369435684E0,-5.392208719E-1,1.076670622E0,4.532322471E0
5.382265417E-1,-5.130754564E0,-1.049907916E0,1.851468796E0,5.554717431E0
5.481955417E-1,-5.005320094E0,-2.956615651E0,-9.368824071E-1,5.888340513E0
5.581655417E-1,-4.260193616E0,-1.800953238E0,-1.688239678E0,4.923701395E0
5.681345416E-1,-5.430167674E0,-1.236490229E-1,1.064224239E0,5.534851694E0
5.781045416E-1,-3.221444819E0,-7.509450424E-1,4.653104289E0,5.709028350E0
5.880745417E-1,-3.691442843E0,-6.114640984E-1,3.614519506E0,5.202440760E0
5.980435417E-1,-2.499745502E0,-2.094637246E0,3.192619507E0,4.563885635E0
6.080135417E-1,-2.246654620E0,-2.361803838E0,3.022775434E0,4.445530978E0
6.179835416E-1,-4.278976042E0,-3.158828448E0,3.472125186E0,6.351652261E0
6.279525416E-1,-7.667423187E-1,-4.322428456E0,2.713244303E0,5.160714697E0
6.379225416E-1,-1.286687406E0,-3.799754912E0,2.042952830E-1,4.016894128E0
6.478915417E-1,-1.367342437E0,-1.400002937E0,-1.268097353E0,2.331888603E0
6.578615417E-1,-7.335302800E-2,-1.245699593E0,-8.230377030E-1,1.494837518E0
6.678315416E-1,-1.140421864E0,-1.823395729E0,3.607381225E-1,2.180703099E0
6.778005416E-1,-2.277344316E-3,-2.002742989E0,8.744680578E-1,2.185332710E0
6.877705416E-1,1.878370958E0,-2.537603300E0,-6.886698568E-1,3.231404360E0
6.977405417E-1,1.278861785E0,-2.405642753E0,9.919333577E-2,2.726250875E0
7.077095417E-1,2.037454547E0,-1.593135885E0,1.137532536E0,2.825470447E0
7.176795417E-1,3.681745236E0,-1.466726392E0,4.101166892E-1,3.984310479E0
7.276485416E-1,2.814912180E0,1.116874323E0,-8.786026239E-2,3.029663061E0
7.376185416E-1,2.523804748E0,1.066070205E0,-5.141222835E-2,2.740207895E0
7.475885416E-1,3.310303493E0,9.053518814E-1,-8.217986780E-1,3.528898456E0
7.575575417E-1,2.092880304E0,8.074329463E-1,2.000069350E-1,2.252132035E0
7.675275417E-1,1.882467225E0,-1.513507333E0,3.973171341E-1,2.447906903E0
7.774975416E-1,1.555769692E0,-2.674237235E0,-9.958182478E-1,3.250172012E0
7.874665416E-1,1.109599071E0,-2.116650259E0,-8.141902810E-1,2.524742409E0
7.974365416E-1,1.208703675E0,-5.115442461E-1,-2.175427347E-1,1.330401042E0
8.074065417E-1,1.773788390E0,2.004783960E0,-1.826367284E0,3.240540300E0
8.173755417E-1,1.287740782E0,3.459724119E0,-8.010001320E-1,3.777508241E0
8.273455417E-1,1.944118221E0,3.752640095E0,1.950188507E0,4.654582532E0
8.373145416E-1,-2.671271600E-1,1.569517519E0,1.845612810E0,2.437422574E0
8.472845416E-1,-4.543379387E-1,-1.446133083E0,-4.099436116E-1,1.570279472E0
8.572545417E-1,-1.427933039E0,-1.630922639E0,4.601875663E-2,2.168183375E0
8.672235417E-1,-1.300095217E0,1.440269203E0,-5.902618021E-1,2.028061130E0
8.771935417E-1,-1.568393100E0,3.867033268E0,-2.478664536E0,4.853615260E0
8.871625416E-1,-2.594460456E0,3.661719107E0,-4.456198132E0,6.324327132E0
8.971325416E-1,-1.819861964E0,2.840259860E0,-5.614680657E0,6.550084925E0
9.071025416E-1,-1.503014504E0,2.656129285E0,-4.487271405E0,5.426755941E0
9.170715417E-1,-4.942761392E-1,2.974751375E0,-2.275648624E0,3.777834208E0
9.270415417E-1,-7.621256496E-1,3.066069973E0,-8.232049334E-1,3.264856344E0
9.370115416E-1,-1.944456920E0,1.720562502E0,2.130904309E0,3.358869037E0
9.469805416E-1,-4.172802593E-1,2.443687369E0,-7.031317753E-1,2.576844013E0
9.569505416E-1,-3.367033472E0,2.701058121E0,2.122061564E0,4.809966180E0
9.669205417E-1,-1.131508442E0,2.472777852E0,2.686382779E0,3.822511490E0
9.768895417E-1,-1.766578627E0,3.184807920E0,-1.235727167E-1,3.644046068E0
9.868595417E-1,-4.677290127E-1,4.231045246E0,-2.013792180E0,4.709126591E0
9.968285416E-1,8.183752795E-1,6.066075765E0,-7.198300783E0,9.448944250E0
1.006798542E0,-2.317722556E0,3.420374404E0,-5.224636289E0,6.660902587E0
1.016768542E0,1.065425330E0,6.860459188E-1,-1.678443253E-1,1.278265174E0
1.026737542E0,1.034520310E0,1.576060261E0,9.889734972E-1,2.128912116E0
1.036707542E0,2.431297119E0,3.443962949E0,1.304325532E0,4.412862061E0
1.046677542E0,2.873365333E0,2.792877825E0,3.920324206E-2,4.007234929E0
1.056646542E0,2.424119369E0,1.272989134E0,-3.036799981E0,4.088888624E0
1.066616542E0,1.641569396E0,1.824287722E0,-4.621681936E0,5.232850055E0
1.076585542E0,1.344365218E0,3.193913788E0,-2.023426638E0,4.012811793E0
1.086555542E0,1.277634454E0,3.158283195E0,-1.478356796E0,3.713844552E0
1.096525542E0,1.443260930E0,1.144364423E-1,-1.715735625E0,2.244960255E0
1.106494542E0,3.031978659E0,4.011166549E-1,-1.465094141E0,3.391207750E0
1.116464542E0,3.806367236E0,2.712877098E0,-1.495012590E0,4.907463329E0
1.126434542E0,5.438327463E0,2.944723291E0,-4.542941576E-1,6.201063138E0
1.136403542E0,6.880825624E0,1.223053620E0,1.940690875E-2,6.988705034E0
1.146373542E0,5.394164028E0,4.247440839E-1,-4.686671984E-1,5.431119778E0
1.156342542E0,5.623535680E0,1.119942649E0,6.462880683E-1,5.770278447E0
1.166312542E0,4.852442010E0,1.790058121E0,6.917279506E-1,5.218140387E0
1.176282542E0,4.400997785E0,-6.637583792E-2,-1.580121152E0,4.676533985E0
1.186251542E0,1.641806062E0,-2.755065051E0,-2.333897417E0,3.966483043E0
1.196221542E0,-4.448118157E0,6.826846468E-1,1.064158165E-1,4.501459518E0
1.206191542E0,-3.746885850E0,8.150436822E-1,3.123733460E0,4.945822530E0
1.216160542E0,-3.609008505E0,-1.347356361E0,4.217539932E0,5.712088465E0
1.226130542E0,-4.120893643E0,-4.590983762E0,4.756036919E0,7.789658753E0
1.236099542E0,-1.261751516E0,-5.197288277E0,5.677943437E0,7.800183588E0
1.246069542E0,-2.243838016E0,-4.534987316E0,5.989928060E0,7.840928336E0
1.256039542E0,-1.094315911E-1,-4.648634677E0,6.014286391E0,7.602198394E0
1.266008542E0,-4.446471289E-2,-6.372817774E0,5.090985897E0,8.156771475E0
1.275978542E0,3.325390479E-1,-5.713830138E0,3.735617681E0,6.834711152E0
1.285948542E0,2.206663904E-1,-4.829085307E0,3.823264520E0,6.163287284E0
1.295917542E0,-3.442760469E0,-4.353049155E0,3.996030446E0,6.838851945E0
1.305887542E0,-4.746520575E0,-4.168522139E0,3.276548687E0,7.116305621E0
1.315856542E0,-5.766874909E0,-3.632049458E0,2.511356903E0,7.263301108E0
1.325826542E0,-5.387742031E0,-3.732693488E0,8.899169862E-2,6.555050297E0
1.335796542E0,-3.566511526E0,-2.601008168E0,-8.571100134E-1,4.496652703E0
1.345765542E0,-3.341817354E0,-2.287093671E0,-8.795738465E-1,4.143934223E0
1.355735542E0,-1.011143873E0,-1.424817058E0,-1.125553930E-1,1.750766774E0
1.365705542E0,-5.067401006E-1,9.171638417E-1,-1.795959424E0,2.079289613E0
1.375674542E0,-6.133819120E-1,9.468577570E-1,-1.889970372E0,2.201082686E0
1.385644542E0,6.493739364E-1,7.377355975E-1,-1.276630195E0,1.611125375E0
1.395613542E0,4.581655991E-1,2.019692898E0,-1.883035575E0,2.799088797E0
1.405583542E0,1.800661755E-1,1.684278190E0,-3.037772373E0,3.478114121E0
1.415553542E0,1.495935573E0,1.862832860E0,-2.167407306E0,3.225774935E0
1.425522542E0,1.074965282E0,3.074901315E0,-1.707466493E0,3.677772462E0
1.435492542E0,2.309474035E-1,4.065302410E0,-3.142773163E-1,4.083967510E0
1.445462542E0,9.217736404E-1,2.846741499E0,5.745754766E-1,3.046923167E0
1.455431542E0,1.730192866E0,1.919595583E0,-4.669849545E0,5.337219250E0
1.465401542E0,9.480100970E-1,1.282076291E0,-5.120361723E0,5.362886064E0
1.475370708E0,2.902310220E0,1.591053984E0,-4.183909671E0,5.334787487E0
1.485340708E0,1.054455369E0,1.664545591E0,-2.681818442E0,3.327872940E0
1.495310708E0,4.237689876E-1,3.796736579E0,-6.863678080E-1,3.881480333E0
1.505279708E0,-2.482015137E-1,4.091254107E0,4.698872784E0,6.235332357E0
1.515249708E0,4.772610705E-1,3.458503805E0,-3.416001856E0,4.884474934E0
1.525219708E0,1.778675931E0,1.593231195E0,-2.681656474E0,3.590731841E0
1.535188708E0,1.817955772E0,1.580839483E0,-6.048874426E-1,2.483929443E0
1.545158708E0,9.919389857E-1,3.216745996E0,-2.056739395E0,3.944816180E0
1.555127708E0,1.616897654E0,2.898985201E0,-2.193953665E0,3.978932760E0
1.565097708E0,1.265331985E-1,1.140635361E0,2.502883118E-1,1.174607984E0
1.575067708E0,-1.671768803E0,2.195532998E-1,7.923737347E-1,1.863027299E0
1.585036708E0,-1.240818630E0,1.316078728E0,7.331449485E-1,1.951716067E0
1.595006708E0,-1.141203856E0,2.284684911E0,-1.801425986E0,3.125262703E0
1.604976708E0,-2.047862737E0,2.164060945E0,-3.338820364E0,4.474888041E0
1.614945708E0,-3.850549382E0,3.706651744E0,-5.691481495E0,7.807621873E0
1.624915708E0,-2.395466551E0,4.006225944E0,-7.062034346E0,8.465248692E0
1.634884708E0,-1.856643436E0,2.494026341E0,-3.525457056E0,4.700653113E0
1.644854708E0,-3.626016009E0,1.908263971E0,-1.365911331E0,4.319163952E0
1.654824708E0,-3.855809537E0,-3.561831415E-3,1.045354689E0,3.995002666E0
1.664793708E0,-4.438104800E0,8.867419481E-2,8.829403809E0,9.882459661E0
1.674763708E0,-5.497987774E0,2.942728221E0,1.491801299E0,6.411941209E0
1.684733708E0,-1.918328491E0,1.605058942E0,-2.516931639E0,3.548400102E0
1.694702708E0,3.003358823E-2,7.114237118E-1,1.378770527E0,1.551784096E0
1.704672708E0,-1.104528044E1,-1.035007457E0,2.902236253E-1,1.109746323E1
1.714641708E0,-4.778586706E0,-2.880159213E0,-2.728148271E0,6.210716624E0
1.724611708E0,-7.905297568E0,-4.411367530E0,6.122741717E0,1.092894593E1
1.734581708E0,-9.691309708E0,1.945656038E0,3.942148939E0,1.064178554E1
1.744550708E0,-3.842762937E0,3.042332032E0,-3.718860145E0,6.152441139E0
1.754520708E0,-2.937256982E0,-3.961207938E-1,-2.289270882E0,3.745016880E0
1.764489708E0,-1.255540019E0,-1.751634898E0,6.229306637E0,6.591575436E0
1.774459708E0,9.290610983E-1,-1.949318734E0,4.772230783E0,5.238051612E0
1.784429708E0,1.840134846E0,-4.638157928E0,2.739933334E0,5.692612747E0
1.794398708E0,1.304182713E0,-5.382176651E0,3.837232933E0,6.737438285E0
1.804368708E0,-1.294595326E0,-3.077993615E0,6.716123593E-1,3.406036541E0
1.814338708E0,-2.724308404E0,-1.185712716E0,-1.087819508E0,3.164035747E0
1.824307708E0,-3.023454004E0,-1.580867549E0,-3.401857442E-1,3.428723182E0
1.834277708E0,-2.267901355E0,-9.516632912E-1,-2.231871690E0,3.321188163E0
1.844246708E0,-8.752764353E-1,-1.626560616E0,1.387111580E-1,1.852309116E0
1.854216708E0,-6.323535687E-1,-3.598740794E0,2.799659134E0,4.603139972E0
1.864186708E0,1.404899687E0,-1.877285715E0,1.941688410E0,3.044355214E0
1.874155708E0,3.498863919E0,2.711207425E0,-1.001652015E0,4.538281744E0
1.884125708E0,3.059119096E0,4.570501258E0,2.586375511E-1,5.505868212E0
1.894095708E0,4.225340118E0,3.900566757E0,9.057711267E-1,5.821369381E0
1.904064708E0,2.205651020E0,3.758096132E-1,-3.155555177E-1,2.259580619E0
1.914034708E0,1.924398486E0,-3.513048387E0,-3.204070694E0,5.129413954E0
1.924003708E0,1.904958248E0,-7.595915540E0,-6.522036964E0,1.019135737E1
1.933973708E0,-1.159308883E0,-8.264423028E0,4.731044165E0,9.593094598E0
1.943943708E0,-5.465560870E0,-4.556854441E0,2.059984599E1,2.179428671E1
1.953912708E0,-3.010453304E0,2.871376403E0,1.025849547E1,1.106997565E1
1.963882708E0,-9.853045155E-1,7.344359552E0,-2.058712245E0,7.690821694E0
1.973852708E0,-5.979920770E-1,6.564191296E0,-6.606761364E0,9.332496858E0
1.983821708E0,1.118176498E0,2.845422367E0,-8.834182153E0,9.348236275E0
1.993791708E0,1.477947198E0,-2.192299488E0,-1.111594755E1,1.142605771E1
2.003760708E0,2.168273571E0,-3.685973358E0,-1.019722718E1,1.105763320E1
2.013730708E0,1.357144746E0,7.911399722E-2,-6.077510580E0,6.227699072E0
2.023700708E0,4.296512134E-2,5.248252024E0,-4.322831329E0,6.799475422E0
2.033669708E0,6.200169669E-1,6.403813280E0,-2.283902553E0,6.827111866E0
2.043639708E0,-1.209755955E0,4.982631143E0,-1.680116141E0,5.395638315E0
2.053608708E0,-2.012050295E0,1.564368169E0,3.147789490E0,4.050206517E0
2.063578708E0,-3.206607217E0,-4.558781683E-2,1.296132881E1,1.335217033E1
2.073548708E0,-4.739774935E0,4.670551211E-2,8.866152974E0,1.005367179E1
2.083517708E0,-2.798376839E0,2.037129880E0,4.342155792E0,5.552938682E0
2.093487708E0,-9.834948205E-2,6.018864176E0,-5.542013215E0,8.182316852E0
2.103457708E0,7.731703822E-1,6.814309453E0,-8.447228624E0,1.088063772E1
2.113426708E0,2.618973153E0,2.191480001E0,-8.473279139E0,9.135538536E0
2.123396708E0,5.162290718E-1,1.566512927E-1,-6.664963380E0,6.686760720E0
2.133366708E0,1.077966438E0,1.404712577E0,-1.916082868E0,2.608946650E0
2.143335708E0,2.661763845E-1,6.872951764E-1,-3.357161325E-1,8.098949616E-1
2.153305708E0,8.448141228E-1,-1.245692284E0,-1.839197245E0,2.376574567E0
2.163274708E0,1.970781962E0,-2.775127433E0,-3.446277570E0,4.843773622E0
2.173244708E0,2.249913127E0,1.055390967E1,-5.680967032E0,1.219510168E1
2.183214708E0,4.683703060E0,2.215655022E1,-4.058382815E-1,2.264982332E1
2.193183708E0,7.045093208E0,2.043946155E1,3.752111506E0,2.194272698E1
2.203153708E0,7.095816050E0,-1.284600242E0,-5.080838639E-1,7.229035372E0
2.213122708E0,6.178817099E0,-1.417705616E1,-3.274250146E0,1.580782769E1
2.223092708E0,7.106069727E0,-1.731017674E1,-2.258908630E0,1.884784109E1
2.233062708E0,3.467721063E0,-8.513789234E0,-1.026930113E0,9.250096321E0
2.243031708E0,3.653052364E0,1.051929591E0,3.277406473E0,5.019237057E0
2.253001708E0,2.113555766E0,8.711954881E0,4.924853636E0,1.022836542E1
2.262971708E0,8.431864773E-1,7.811923381E0,2.173739256E0,8.152438451E0
2.272940708E0,1.365873762E0,2.077531509E0,1.222726468E0,2.770705383E0
2.282910708E0,6.033865208E0,2.406540885E0,2.845534049E0,7.091969571E0
2.292879708E0,5.721673594E0,-1.688643136E0,2.087430845E0,6.320318970E0
2.302849708E0,4.637116832E-1,-3.439191329E0,2.579568767E0,4.324030590E0
2.312819708E0,-7.502680810E-1,-1.102354049E1,6.258214687E0,1.269829115E1
2.322788708E0,-9.844363502E-1,-1.146017197E1,4.863474244E0,1.248831606E1
2.332758708E0,-2.694953920E0,-6.134772363E0,3.260328510E0,7.451707896E0
2.342728708E0,-3.519730731E-1,-1.344049761E0,2.597026799E0,2.945318828E0
2.352697708E0,-1.826475165E0,-1.048416876E0,2.217246634E-1,2.117628698E0
2.362667708E0,3.244071058E-1,-1.891550290E0,-2.407113912E0,3.078538591E0
2.372636708E0,2.951067813E0,-3.737935809E0,4.505227035E-1,4.783715716E0
2.382606708E0,1.931192073E-1,-4.119507561E0,-1.058242537E0,4.257641934E0
2.392576708E0,1.701312591E0,-6.401277927E0,2.084077467E0,6.943644758E0
2.402545708E0,3.417837517E-1,-5.467125585E0,2.460339947E0,6.004960529E0
2.412515708E0,-1.343296566E-1,-1.622476921E0,1.157204323E0,1.997397722E0
2.422484708E0,3.290371139E-1,1.295307079E0,2.189817345E0,2.565421185E0
2.432454708E0,-2.165369698E0,3.828084379E-1,-7.330303431E-2,2.200168531E0
2.442424708E0,-1.098696207E-1,5.678973716E-1,1.547184956E-1,5.987625332E-1
2.452393708E0,2.120491295E-1,1.578031650E0,-4.855036712E-1,1.664590801E0
2.462363708E0,-5.169764556E-2,5.446675533E-1,-5.327708083E-1,7.636623104E-1
2.472333417E0,5.283781607E-1,-7.010373026E-1,2.281273645E-1,9.070164689E-1
2.482302417E0,5.873364401E-1,-1.597459316E-2,6.152908087E-2,5.907665438E-1
2.492272417E0,4.503435595E-1,2.136023838E0,-2.447303579E0,3.279436227E0
2.502241417E0,8.847611307E-1,3.003798003E0,-3.952832386E0,5.042865116E0
2.512211417E0,8.160690645E-1,8.768736023E-1,-4.149537984E0,4.318974590E0
2.522181417E0,6.714882521E-1,-1.435577397E0,-1.707167700E0,2.329420634E0
2.532150417E0,9.844736993E-1,-5.683478996E-1,4.290148902E-1,1.215015052E0
2.542120417E0,1.456578987E0,1.344223423E0,-1.621636968E0,2.560911052E0
2.552090417E0,1.627606391E0,1.047923956E0,-2.109733295E0,2.863253701E0
2.562059417E0,1.418160003E0,-5.376204890E-1,-1.479175991E0,2.118531377E0
2.572029417E0,1.743010840E0,9.263422161E-1,1.187781753E0,2.303697502E0
2.581998417E0,2.502456272E0,3.296095929E0,1.402374567E0,4.369575516E0
2.591968417E0,2.057031171E0,2.296343089E0,-5.605181855E-1,3.133488385E0
2.601938417E0,7.891190283E-2,1.070527537E0,-3.442531843E0,3.606006349E0
2.611907417E0,6.280885365E-1,1.021280241E0,-2.655046381E0,2.913207824E0
2.621877417E0,-1.973387043E-1,1.462914299E0,-3.444477797E-2,1.476566035E0
2.631846417E0,-2.687796928E-1,2.690755327E0,5.295981091E-1,2.755518265E0
2.641816417E0,5.493182094E-1,2.920338356E0,5.293057483E-1,3.018325891E0
2.651786417E0,-8.103970461E-2,2.930990813E0,-5.625857610E-1,2.985594969E0
2.661755417E0,3.633850108E-1,3.426029539E0,-1.802817038E0,3.888428518E0
2.671725417E0,-7.942001125E-1,3.855421282E0,-2.807456396E0,4.834960030E0
2.681695417E0,-1.657449702E0,4.032685179E0,-3.421190091E0,5.542042124E0
2.691664417E0,-2.569661537E0,3.664021448E0,-3.244268548E0,5.527521325E0
2.701634417E0,-2.104589499E0,2.824368005E0,-2.364556707E0,4.242343693E0
2.711603417E0,-2.902907513E0,1.951679255E0,-1.697840222E0,3.888262512E0
2.721573417E0,-2.503460239E0,-4.939102131E-1,-2.439812127E0,3.530431090E0
2.731543417E0,-1.612415324E0,-3.850435361E-1,-7.177819741E-1,1.806475205E0
2.741512417E0,-2.123247380E0,6.886572853E-1,-1.275834389E0,2.571027359E0
2.751482417E0,-1.149225286E0,-8.442505243E-1,2.137658427E0,2.569642243E0
2.761451417E0,-1.677628590E0,-1.630058421E0,5.390786676E0,5.876402737E0
2.771421417E0,-1.004576646E0,-1.479791995E0,4.448056469E0,4.794180320E0
2.781391417E0,-1.593236457E0,-3.314267905E0,5.190538836E0,6.361168726E0
2.791360417E0,-2.468882729E0,-2.444267705E0,4.900892331E0,6.007376481E0
2.801330417E0,-3.780295817E-1,-3.053076875E0,3.090254642E0,4.360488335E0
2.811300417E0,-1.480221181E0,-4.445433408E0,4.122208098E0,6.240635587E0
2.821269417E0,-1.357539580E0,-3.747224696E0,3.780715501E0,5.493488539E0
2.831239417E0,-8.091976359E-2,-2.548111039E0,2.208106266E0,3.372706800E0
2.841208417E0,-1.253373333E0,-2.080976981E0,1.534853763E0,2.873531969E0
2.851178417E0,-1.116462533E0,-1.563371803E0,-9.259264791E-1,2.132594623E0
2.861148417E0,-1.340999268E0,-3.676614889E0,1.108605775E0,4.067527854E0
2.871117417E0,-2.800327763E0,-3.758449888E0,3.507662809E-1,4.700087034E0
2.881087417E0,-1.178703878E0,-3.669680969E0,5.203144848E-2,3.854686565E0
2.891056417E0,-1.448742110E0,-3.311559183E0,-2.595374376E-1,3.623898123E0
2.901026417E0,2.488642956E-1,-1.514429439E0,-3.197473866E-1,1.567695236E0
2.910996417E0,3.225999507E-1,-5.774482137E-1,2.020280251E0,2.125805603E0
2.920965417E0,4.999900018E-1,3.854864627E-2,2.002673700E0,2.064504286E0
2.930935417E0,1.920563151E0,-8.728384387E-1,1.992476740E0,2.901787952E0
2.940905417E0,1.621368581E0,-5.777230328E-1,6.510763532E-1,1.840244657E0
2.950874417E0,1.762674002E0,-8.562007713E-1,-2.292120230E0,3.015611804E0
2.960844417E0,1.692069458E0,-2.066932261E-1,-4.130628673E0,4.468547233E0
2.970813417E0,-1.261935119E-2,2.963748962E-2,-4.297841499E0,4.297962212E0
2.980783417E0,4.366148818E-2,1.097069219E0,-1.100598598E0,1.554601065E0
2.990753417E0,-2.252607670E-1,5.016398814E0,2.454982728E-1,5.027451529E0
3.000722417E0,5.999631368E-1,6.985704793E0,-1.516249677E0,7.173495682E0
3.010692417E0,1.372053246E0,5.187374908E0,-3.645848302E0,6.487187248E0
3.020661417E0,1.542896316E0,1.925712063E0,-3.169620654E0,4.016888233E0
3.030631417E0,9.847952230E-1,-5.273451769E-1,-2.914548150E0,3.121298686E0
3.040601417E0,1.307235399E0,-2.307375616E-1,-3.511260016E0,3.753804884E0
3.050570417E0,1.427837437E0,1.782968372E0,-4.042700583E0,4.643395737E0
3.060540417E0,1.100545973E0,3.724901781E0,-3.086020088E0,4.960807868E0
3.070509417E0,1.216493044E0,4.458189109E0,-2.890518433E-1,4.630211272E0
3.080479417E0,1.390530447E0,4.891061115E0,-1.146138468E0,5.212455002E0
3.090449417E0,1.271380126E0,4.081327874E0,-4.063787397E0,5.898136370E0
3.100418417E0,3.315408405E0,4.043317464E0,-5.111720123E0,7.312320536E0
3.110388417E0,4.905257862E0,4.337958076E0,-4.005513461E0,7.676169165E0
3.120358417E0,5.964575703E0,5.548046372E0,-3.812717897E0,8.994098044E0
3.130327417E0,5.339596058E0,7.095267581E0,-2.194016231E0,9.147011278E0
3.140297417E0,6.012312956E0,7.639477882E0,-3.605744004E-2,9.721668042E0
3.150266417E0,5.412850560E0,6.311581639E0,3.028635514E-1,8.320260831E0
3.160236417E0,4.686217656E0,2.069355932E0,3.129674231E0,6.003143400E0
3.170206417E0,3.021693992E0,7.466619569E-1,2.132891777E0,3.773243431E0
3.180175417E0,1.498891925E0,4.110016653E-1,1.003976868E0,1.850288875E0
3.190145417E0,3.390086266E-1,2.034822569E0,3.490399489E0,4.054419605E0
3.200114417E0,-5.973243615E-1,3.990658609E0,2.836343395E0,4.932240503E0
3.210084417E0,2.829812777E-2,2.088850841E0,2.099000146E0,2.961401734E0
3.220054417E0,1.664360417E-1,-2.006212727E0,1.470250801E0,2.492835309E0
3.230023417E0,-2.469687744E-1,-5.839489142E0,2.665727490E0,6.423918591E0
3.239993417E0,2.453714613E-1,-7.157762622E0,3.673545393E0,8.049143349E0
3.249963417E0,-1.377804860E0,-5.081454935E0,3.652427589E0,6.407788837E0
3.259932417E0,-1.409917037E0,-4.161850173E0,1.622426342E0,4.684136009E0
3.269902417E0,-9.600725374E-1,-8.703250131E-1,-6.261473340E-1,1.439189143E0
3.279871417E0,-7.871664237E-1,1.175287423E-1,-1.822229794E0,1.988458048E0
3.289841417E0,-9.234851935E-1,-2.625212425E0,4.998246717E-1,2.827435212E0
3.299811417E0,-1.488499376E0,-6.249207051E0,1.771916258E0,6.663925748E0
3.309780417E0,-1.487845950E0,-6.902228773E0,3.142020627E0,7.728307785E0
3.319750417E0,-7.778249851E-1,-4.786043660E0,4.519243981E0,6.628332504E0
3.329719417E0,7.594763858E-2,-1.750693204E0,2.279794300E0,2.875440277E0
3.339689417E0,5.787798440E-1,-9.968704543E-1,-6.154252946E-2,1.154350161E0
3.349659417E0,6.978276198E-1,-2.431272268E-2,-6.008014083E-2,7.008310201E-1
3.359628417E0,5.107021008E-1,1.026121151E0,1.654942124E0,2.013100764E0
3.369598417E0,1.073591186E-1,-6.594837722E-1,2.526570774E0,2.613427768E0
3.379568417E0,-2.507015638E-1,-3.896566092E0,1.781849508E0,4.291976963E0
3.389537417E0,-2.036727007E-1,-4.076421768E0,-1.170458792E0,4.246018227E0
3.399507417E0,-4.841787652E-1,-1.136584994E0,-1.737190813E0,2.131686292E0
3.409476417E0,-1.305990234E-2,1.510879594E0,-3.471960880E0,3.786481224E0
3.419446417E0,7.760512322E-1,1.075991760E0,-2.100426282E0,2.484311645E0
3.429416417E0,3.053627610E-1,6.405595511E-1,-3.899597581E0,3.963637754E0
3.439385417E0,7.765356740E-1,2.945162710E0,-4.120400138E0,5.123932898E0
3.449355417E0,8.830172718E-1,6.747429001E0,-2.766104302E0,7.345668835E0
3.459324417E0,7.263113075E-1,6.283460625E0,-2.204274001E0,6.698375132E0
3.469294792E0,2.741321244E-1,3.275858423E0,-3.412029843E0,4.737968391E0
3.479264792E0,-1.810251554E-1,6.831094471E-1,-3.105303036E0,3.184700232E0
3.489233792E0,-6.240731804E-1,1.370403454E0,-1.897415632E0,2.422325131E0
3.499203792E0,-6.857870333E-1,4.323779747E0,-1.067795134E0,4.506169283E0
3.509172792E0,5.198616911E-2,5.802637065E0,2.927607322E-1,5.810250280E0
3.519142792E0,-1.347035861E-1,5.283227144E0,-4.662926441E-1,5.305474809E0
3.529112792E0,-9.910832456E-1,2.459125480E0,-1.334307130E0,2.968150880E0
3.539081792E0,-1.528081810E0,8.261434516E-1,-8.812777251E-1,1.947869978E0
3.549051792E0,-9.918938890E-1,-2.269582137E-1,1.320638679E0,1.667168269E0
3.559021792E0,-9.140901066E-1,-1.054686261E0,1.869468280E0,2.332988530E0
3.568990792E0,5.603474103E-1,-3.708169681E-1,5.833088779E-1,8.897998039E-1
3.578960792E0,-7.740989931E-2,5.170385823E-1,1.202810267E0,1.311515812E0
3.588929792E0,-6.691289006E-1,1.137561187E0,9.848997420E-1,1.646756340E0
3.598899792E0,-8.242232991E-1,-2.227047444E0,1.643484505E0,2.887927576E0
3.608869792E0,-1.277507716E0,-2.414275582E0,1.118042597E0,2.951401666E0
3.618838792E0,-7.786573362E-1,4.767465886E-1,-2.012026906E-2,9.132356663E-1
3.628808792E0,-8.116752474E-1,3.013336274E-1,-2.350101221E-1,8.971334459E-1
3.638777792E0,-1.268186523E0,1.474885012E0,-3.053831166E-1,1.968969706E0
3.648747792E0,-1.914390099E0,3.940807003E-1,-2.985787117E-1,1.977204667E0
3.658717792E0,-2.150348055E0,4.068451720E-1,-4.273227060E-1,2.229826102E0
3.668686792E0,-2.777850189E0,4.948536614E-1,-5.645194352E-2,2.822147877E0
3.678656792E0,-2.193067228E0,-1.751562685E-1,-1.115618926E0,2.466744650E0
3.688625792E0,-5.019829521E-1,-1.151848274E0,-9.259510374E-1,1.560809615E0
3.698595792E0,-2.645312521E-1,-8.464242268E-1,-9.112102067E-1,1.271501001E0
3.708565792E0,1.722791095E-1,8.851123291E-1,-3.202642804E-1,9.569081126E-1
3.718534792E0,1.831174353E-1,-1.256253525E0,6.689454442E-1,1.434988823E0
3.728504792E0,2.990254025E-1,-2.704345133E0,8.990941912E-1,2.865531217E0
3.738473792E0,2.251819758E-1,-2.585199636E0,-3.759970164E-1,2.622086542E0
3.748443792E0,8.017554460E-1,8.452425045E-1,-1.280984616E0,1.731521953E0
3.758413792E0,1.614291842E0,1.697679423E0,-2.555607462E-1,2.356557844E0
3.768382792E0,1.244941356E0,-9.529818383E-1,8.773092198E-1,1.796586995E0
3.778352792E0,2.171834818E0,-3.278570069E0,1.039708618E0,4.067785907E0
3.788322792E0,2.890125208E0,-2.803407199E0,9.502941656E-1,4.137024854E0
3.798291792E0,2.432993104E0,-9.750553697E-2,1.883375298E0,3.078321829E0
3.808261792E0,1.829285776E0,1.095520876E0,1.195360329E0,2.444450604E0
3.818230792E0,1.017790403E0,2.094572049E-1,-6.482463008E-1,1.224741970E0
3.828200792E0,6.448515536E-1,-1.001901399E0,-1.500622993E0,1.916118291E0
3.838170792E0,-4.468327085E-2,-5.017370036E-1,-1.041620657E0,1.157026452E0
3.848139792E0,-1.125526886E-1,2.140010762E-1,-7.242168349E-1,7.635146314E-1
3.858109792E0,-9.930287605E-1,-7.402048767E-2,1.280013978E-2,9.958659525E-1
3.868078792E0,-5.099410126E-1,-4.909383658E-1,-3.444167894E-1,7.871996190E-1
3.878048792E0,-8.431225964E-1,-1.828976896E0,1.094126315E0,2.291969588E0
3.888018792E0,-1.029409698E0,-1.680177245E0,1.852670984E0,2.704638548E0
3.897987792E0,-6.353414959E-1,-8.811216044E-1,1.782948200E0,2.087807074E0
3.907957792E0,8.692558497E-2,-5.003161302E-1,7.726861596E-1,9.246167794E-1
3.917926792E0,1.899782293E-1,-1.667616549E0,2.506642878E-1,1.697017756E0
3.927896792E0,1.271805511E0,-1.907717841E0,-3.556259018E-1,2.320203957E0
3.937866792E0,1.736562092E0,-2.429228374E0,5.577612233E-1,3.037745212E0
3.947835792E0,2.092516607E0,-2.692290806E0,6.167303932E-1,3.465171267E0
3.957805792E0,2.288645230E0,-2.503159692E0,9.850470918E-1,3.531858322E0
3.967774792E0,2.349112310E0,-2.577300632E0,1.387968197E0,3.753300269E0
3.977744792E0,1.908989464E0,-1.001514898E0,1.382074204E0,2.560742465E0
3.987714792E0,2.199995886E0,-1.914041605E0,2.371613127E-1,2.925710623E0
3.997683792E0,2.039774868E0,-1.946172640E0,-1.636354995E-1,2.824012399E0
4.007653792E0,1.165693603E0,-1.350196939E0,-4.969197750E-2,1.784472651E0
4.017623792E0,2.151525209E-1,7.553433180E-3,-9.931571800E-1,1.016222833E0
4.027592792E0,4.631049614E-1,5.202066037E-1,-9.304054463E-1,1.162211431E0
4.037562792E0,-1.943459166E-3,-1.097540797E0,1.621542828E0,1.958060449E0
4.047531792E0,-5.573967956E-1,-6.177171108E-1,-5.105496347E-2,8.335899628E-1
4.057501792E0,-9.884574804E-1,4.492857251E-1,-9.422957593E-1,1.437646393E0
4.067471792E0,-7.198052569E-1,4.852598423E-1,-4.742290699E-1,9.891865007E-1
4.077440792E0,-1.991941720E0,2.939605808E-1,1.086437227E0,2.287922745E0
4.087410792E0,-1.344295051E0,9.843305156E-1,4.797307152E-1,1.733833126E0
4.097379792E0,-1.869154577E0,2.358576760E0,1.991316068E-1,3.016003409E0
4.107349792E0,-2.510363754E0,2.264241875E0,5.612964499E-1,3.426918609E0
4.117319792E0,-2.366596655E0,9.774039039E-1,-2.697320580E-2,2.560629936E0
4.127288792E0,-1.350841009E0,3.133981875E-1,-2.987170569E0,3.293353589E0
4.137258792E0,-1.485812142E0,-5.966878921E-2,-4.549865264E0,4.786697401E0
4.147227792E0,-1.123123388E0,-2.296823730E0,1.118095222E0,2.790509330E0
4.157197792E0,-1.193220541E0,-2.270554237E0,6.136236506E0,6.650758622E0
4.167167792E0,-1.348625938E0,4.590447280E-1,6.024442420E0,6.190591285E0
4.177136792E0,-1.034206315E0,2.514545098E0,3.564579606E0,4.483162669E0
4.187106792E0,-1.171416858E0,1.597472180E0,2.670189500E-2,1.981122867E0
4.197075792E0,3.761491902E-2,-1.032189976E0,-9.295032209E-1,1.389534910E0
4.207045792E0,2.674545676E-2,-1.806011372E0,-1.932868470E0,2.645443804E0
4.217015792E0,-3.704678893E-1,-3.210782129E-1,-1.928481304E0,1.989818538E0
4.226984792E0,-3.257382245E-1,4.538652644E-1,-1.386952536E0,1.495237910E0
4.236954792E0,-1.063446705E0,-6.966399041E-1,5.304968262E-1,1.377553242E0
4.246923792E0,-1.721941421E0,-3.751360139E-1,1.468001962E0,2.293651902E0
4.256893792E0,-1.822596999E0,1.104949804E0,5.581231660E-1,2.203242011E0
4.266863792E0,-1.101011996E0,2.524293283E0,-1.566170865E-1,2.758407676E0
4.276832792E0,-8.548284298E-1,2.688625186E0,-1.147889124E0,3.045830999E0
4.286802792E0,-1.106402179E0,1.281926018E-1,5.603310746E-1,1.246807939E0
4.296772792E0,-9.920787341E-1,5.022053656E-1,3.063233489E-1,1.153370902E0
4.306741792E0,-1.050955226E0,1.481359341E0,-2.661032760E-1,1.835686067E0
4.316711792E0,-1.411198016E0,1.392623751E0,-1.047208841E0,2.242214777E0
4.326680792E0,-1.189648842E0,-1.691503009E-1,-1.094004108E0,1.625029594E0
4.336650792E0,-5.719239105E-1,5.998532823E-1,-1.516956605E0,1.728605872E0
4.346620792E0,-5.551744882E-1,9.679185507E-1,-6.590858692E-1,1.295947227E0
4.356589792E0,7.113467478E-1,2.013347792E0,4.779847366E-1,2.188161999E0
4.366559792E0,8.591911836E-1,-6.467926830E-2,1.612752709E0,1.828486860E0
4.376528792E0,3.649208916E-1,-1.843799003E0,9.968420953E-1,2.127546988E0
4.386498792E0,-5.563183132E-1,-2.925400875E0,2.428319424E-1,2.987712787E0
4.396468792E0,-5.692027260E-1,-1.872917553E0,-4.821064389E-1,2.015995665E0
4.406437792E0,-9.582987115E-1,-1.735189312E0,-2.714604950E-1,2.000727160E0
4.416407792E0,-3.491834031E-1,-1.305400250E0,-9.921830338E-1,1.676432532E0
4.426376792E0,-1.871975859E-1,-7.319398373E-1,-2.352276385E-1,7.912717002E-1
4.436346792E0,-2.171017816E-1,-1.093621408E0,1.702867073E0,2.035410827E0
4.446316792E0,-8.444129308E-1,5.488635153E-2,3.511129038E0,3.611657906E0
4.456285792E0,-6.712006422E-1,1.641769516E-1,2.602890387E0,2.693047110E0
4.466255792E0,-1.107820640E0,-3.149254802E-1,1.370429474E-1,1.159838523E0
4.476224542E0,-1.337245648E0,-4.815474451E-2,-1.181253337E0,1.784910151E0
4.486194542E0,-9.620832487E-1,-9.617541236E-1,-4.849066705E-1,1.444198619E0
4.496164542E0,-1.263186423E0,-1.878350785E0,-4.786489803E-1,2.313643546E0
4.506133542E0,-1.185632901E0,-2.918973908E0,1.094784712E0,3.335369187E0
4.516103542E0,-1.248165949E0,-3.036185731E0,9.347855955E-1,3.413233971E0
4.526072542E0,1.851392563E-1,-1.709839585E0,1.317002880E0,2.166177402E0
4.536042542E0,2.167552244E-1,-8.724460906E-1,2.207106392E0,2.383162528E0
4.546012542E0,-8.112726666E-1,-9.141200736E-1,3.163092238E0,3.391007424E0
4.555981542E0,-1.022816597E0,-2.180289307E-1,2.228973809E0,2.462115888E0
4.565951542E0,-1.870470347E0,2.749039203E-1,1.318237812E0,2.304773831E0
4.575921542E0,-2.696986120E0,1.180579445E0,1.003041313E0,3.110240157E0
4.585890542E0,-3.960510365E0,1.767143468E0,-1.726702663E0,4.667969631E0
4.595860542E0,-5.038615894E0,6.937934795E-1,-3.215389735E0,6.017285989E0
4.605829542E0,-4.152515970E0,-1.579976141E-2,-3.751525031E0,5.596211091E0
4.615799542E0,-4.006734067E0,3.416893557E-1,-2.795097721E0,4.897268705E0
4.625769542E0,-2.819038560E0,2.286549588E0,-2.447964315E0,4.378106521E0
4.635738542E0,-1.630259272E0,3.980200864E0,-2.260521877E0,4.858981721E0
4.645708542E0,-2.218966446E-1,3.516365512E0,-1.363278329E-2,3.523386211E0
4.655677542E0,9.296896009E-1,1.218520273E0,2.445952873E0,2.886485729E0
4.665647542E0,1.417194774E0,-1.144300103E-2,3.942900306E-1,1.471066483E0
4.675617542E0,8.984033427E-1,-2.040190313E0,-9.884291214E-1,2.438544075E0
4.685586542E0,1.116676979E0,3.027077231E-1,3.593856615E-1,1.211510419E0
4.695556542E0,6.003108269E-1,1.153899477E0,7.213552076E-1,1.487350136E0
4.705525542E0,1.080874478E0,1.346335730E0,-2.227602053E0,2.818354208E0
4.715495542E0,1.728055124E0,1.037576138E0,-3.523127525E0,4.058961235E0
4.725465542E0,1.811729072E0,-5.118982950E-1,-2.619960163E0,3.226235167E0
4.735434542E0,1.148148156E0,-2.130646446E-1,1.690465128E-1,1.179922647E0
4.745404542E0,9.661746186E-1,1.135303285E0,2.340517049E0,2.774964324E0
4.755373542E0,2.608240443E-1,3.869202000E-1,3.931894677E0,3.959486352E0
4.765343542E0,6.858788346E-1,-1.861913970E0,3.780240122E0,4.269352268E0
4.775313542E0,9.256478593E-1,-3.333339184E0,2.916807514E0,4.525012724E0
4.785282542E0,6.130265110E-1,-2.127410012E0,3.278557205E-1,2.238116225E0
4.795252542E0,4.273478856E-1,-2.131146091E0,1.167045772E-2,2.173602097E0
4.805221542E0,-6.909358721E-2,-1.531237260E0,9.538329005E-1,1.805341705E0
4.815191542E0,2.200195057E-1,-1.750126901E0,7.871024698E-1,1.931549391E0
4.825161542E0,5.161623770E-1,-6.991123992E-1,-1.385969619E0,1.635876992E0
4.835130542E0,4.154887090E-1,-8.520018858E-1,-1.034198787E0,1.402891732E0
4.845100542E0,-8.776908237E-3,-2.040628561E-1,-8.744206953E-1,8.979589277E-1
4.855069542E0,-9.949269859E-1,-4.479326794E-1,5.756566268E-1,1.233654710E0
4.865039542E0,-6.063641569E-1,1.988901168E-1,2.265286773E0,2.353456805E0
4.875009542E0,-9.856163183E-1,1.136337950E0,1.815442346E0,2.357654422E0
4.884978542E0,-1.291282879E0,5.845008329E-1,-2.782631457E-1,1.444466363E0
4.894948542E0,-1.157281434E0,-4.131823844E-1,-1.374879205E-1,1.236496230E0
4.904917542E0,-8.936371310E-1,-1.395294466E0,2.427822411E-1,1.674627477E0
4.914887542E0,-1.311077312E0,-2.456505927E-1,-8.663585544E-1,1.590548671E0
4.924857542E0,-1.907706293E0,1.971066868E0,-1.883929029E0,3.327707392E0
4.934826542E0,-4.476019828E-2,1.372682991E0,-9.016131717E-1,1.642914599E0
4.944796542E0,4.091249283E-2,-1.190208347E0,7.423092896E-1,1.403314941E0
4.954765542E0,4.464519816E-1,-6.567323649E-1,-3.596148723E-1,8.717451620E-1
4.964735542E0,1.023812012E0,9.253256777E-1,-2.539667952E-1,1.403181306E0
4.974705542E0,1.676146467E0,1.097876135E0,6.857579434E-1,2.117796719E0
4.984674542E0,1.323197128E0,-9.312471530E-1,1.024668995E0,1.915207155E0
4.994644542E0,2.045877168E0,-1.557726609E0,1.158386046E-1,2.574013240E0
5.004614542E0,1.851175120E0,-8.402103907E-1,5.671471739E-1,2.110558869E0
5.014583542E0,1.811920276E0,-4.127023280E-1,9.695122093E-1,2.096027725E0
5.024553542E0,8.726410952E-1,-1.583907517E0,7.084813929E-1,1.942218162E0
5.034522542E0,7.509732552E-1,-1.925877539E0,-9.216638589E-1,2.263278461E0
5.044492542E0,1.012149375E0,-4.128315514E-1,-1.229258977E0,1.644978383E0
5.054461542E0,6.708721018E-1,1.370739377E-1,-7.171346873E-1,9.915345688E-1
5.064431542E0,8.141380946E-1,-2.795650283E-1,-2.338140156E0,2.491561124E0
5.074401542E0,6.749746545E-1,-1.021339005E0,-2.347006289E0,2.647104582E0
5.084370542E0,1.281346413E-1,-1.603143102E0,1.572994566E0,2.249621790E0
5.094340542E0,-2.917023861E-1,-3.722071436E-1,3.661356872E0,3.691769574E0
5.104310542E0,4.482256249E-3,1.757880309E0,9.740467250E-1,2.009709007E0
5.114279542E0,6.065039054E-1,1.566838033E0,-1.230644183E0,2.082621788E0
5.124249542E0,7.673802499E-1,-1.861624825E-1,-2.202052644E0,2.339351355E0
5.134218542E0,5.532494386E-1,5.525183174E-1,-5.107724136E-1,9.339431947E-1
5.144188542E0,1.253595673E0,2.611877265E0,6.268823290E-1,2.964183937E0
5.154158542E0,1.564603519E0,1.986270798E0,-3.349776292E-1,2.550581476E0
5.164127542E0,1.509238281E0,5.458650631E-1,-1.675643021E0,2.320247485E0
5.174097542E0,2.075588625E0,5.021477705E-1,-2.866882233E0,3.574805486E0
5.184066542E0,2.056599061E0,-5.252726313E-1,-8.983147573E-1,2.304881871E0
5.194036542E0,2.465184657E0,-6.578787115E-1,4.698237777E-1,2.594354289E0
5.204006542E0,2.158309331E0,-6.619738090E-1,1.703486878E0,2.828140031E0
5.213975542E0,1.105116449E0,-2.595628437E0,2.859163908E0,4.016638844E0
5.223945542E0,1.140244328E0,-2.188219301E0,2.002428702E0,3.177763607E0
5.233914542E0,7.213753805E-2,-5.917297456E-1,3.132294953E-1,6.733948566E-1
5.243884542E0,-8.576257378E-3,-5.966191873E-1,1.407190919E-1,6.130496470E-1
5.253854542E0,1.829051448E-1,-2.299867499E0,3.588734454E-1,2.334873648E0
5.263823542E0,-7.238852978E-3,-1.035501546E0,6.702511275E-1,1.233512232E0
5.273793542E0,-2.635486275E-2,6.038127244E-3,1.266461887E0,1.266750468E0
5.283762542E0,6.054669017E-1,8.729033428E-1,9.517454445E-1,1.426313362E0
5.293732542E0,1.146031171E0,8.839510721E-1,2.517290658E-1,1.469055638E0
5.303702542E0,4.029151122E-1,-1.634408457E0,1.062746648E0,1.990744089E0
5.313671542E0,-1.343386833E-1,-1.396123309E0,5.375415516E-1,1.502051296E0
5.323641542E0,4.197975587E-1,5.408461055E-1,-9.216726297E-1,1.148139772E0
5.333610542E0,6.803021988E-1,1.152688226E0,-1.487864369E0,2.001309973E0
5.343580542E0,8.352059050E-1,-9.643467790E-1,-1.156228423E0,1.721742658E0
5.353550542E0,5.475775664E-1,-3.106886170E0,3.117331928E-1,3.170135714E0
5.363519542E0,6.334976495E-1,-1.808465741E0,1.125086737E0,2.222090857E0
5.373489542E0,1.117607125E0,3.351884213E-1,5.451540416E-1,1.287862529E0
5.383458542E0,2.385544703E0,4.326220375E-1,-6.587800598E-1,2.512364728E0
5.393428542E0,2.181057778E0,-8.015620494E-1,-7.246156150E-1,2.434046536E0
5.403398542E0,1.176700475E0,-1.531809118E0,-1.354396409E-1,1.936338575E0
5.413367542E0,1.570479240E0,-6.200828943E-1,4.226969737E-1,1.740569036E0
5.423337542E0,5.380468241E-1,8.210046262E-2,2.588579326E0,2.645180107E0
5.433306542E0,3.481302830E-1,1.591351900E-1,2.412352433E0,2.442532080E0
5.443276542E0,1.010154086E0,1.742635448E0,-1.451449664E0,2.482719418E0
5.453246542E0,6.469039263E-1,1.735232873E0,-3.197500178E0,3.695067686E0
5.463215542E0,9.447390915E-1,-2.844319582E-1,-2.362321317E0,2.560077243E0
5.473186208E0,8.618885773E-1,-1.607680542E0,-2.350492984E-1,1.839221796E0
5.483155208E0,1.237237503E0,-3.301592311E-1,1.472691429E0,1.951558813E0
5.493125208E0,1.491146118E0,2.383670378E0,-2.625768203E-1,2.823888773E0
5.503095208E0,2.038505730E0,2.531790875E0,-4.202466980E0,5.312833459E0
5.513064208E0,1.442643465E0,-1.090189970E0,1.023062180E0,2.077592491E0
5.523034208E0,1.514958027E0,-3.761528740E0,1.560508772E1,1.612336687E1
5.533003208E0,1.364223678E0,2.033451397E0,1.529581095E1,1.549057337E1
5.542973208E0,-8.785567233E-1,1.165849198E1,1.702841345E0,1.181490439E1
5.552943208E0,2.382025556E0,8.112172058E0,-1.357557647E1,1.599305030E1
5.562912208E0,2.988238270E0,-1.135929814E0,-1.376563554E1,1.413197178E1
5.572882208E0,3.078278375E0,-3.852337461E0,-1.231358946E1,1.326426730E1
5.582851208E0,-5.011457770E-1,-2.830056176E0,-1.092590369E1,1.129759870E1
5.592821208E0,-1.273355315E0,-4.247816522E0,2.365026239E0,5.025806212E0
5.602791208E0,1.266730566E0,-6.161467241E0,3.553863999E1,3.609104067E1
5.612760208E0,1.868087460E0,3.650983035E0,1.969456369E1,2.011703922E1
5.622730208E0,1.583960142E0,1.071329308E1,-1.105514586E1,1.547578199E1
5.632699208E0,-1.640765988E-1,-2.835773292E0,-1.298151691E1,1.328865352E1
5.642669208E0,-7.427800635E-1,-1.186214816E1,-5.875303922E0,1.325826072E1
5.652639208E0,1.013138285E-1,-6.913719721E0,-5.191690153E0,8.646584963E0
5.662608208E0,-1.992305125E0,-9.291667137E-1,-3.862428001E0,4.444207528E0
5.672578208E0,-1.523793755E0,2.059985769E-1,3.669735932E-1,1.580839156E0
5.682548208E0,-9.903348751E-2,-4.862362103E0,4.449159254E0,6.591463489E0
5.692517208E0,-5.216980091E-1,-4.611113971E0,4.096617758E0,6.190057990E0
5.702487208E0,-8.775632814E-2,6.752458191E0,1.360562882E0,6.888724421E0
5.712456208E0,1.163602931E0,8.009180371E0,5.616890320E0,9.851416084E0
5.722426208E0,-3.019911468E-1,5.719594324E-1,6.970851696E0,7.000793498E0
5.732396208E0,-1.042864506E0,-1.161075999E1,2.125589774E0,1.184970235E1
5.742365208E0,-1.636709628E0,-8.904251677E0,-4.624421357E0,1.016610984E1
5.752335208E0,-6.413609120E-1,-1.386571882E0,-3.970300359E0,4.254081610E0
5.762304208E0,1.568683706E-1,-1.056729278E-1,1.423483016E0,1.435993854E0
5.772274208E0,1.039877968E-1,-8.486692652E-1,1.863122297E0,2.049945774E0
5.782244208E0,1.001908708E-1,6.667661870E0,-2.155041030E0,7.007992213E0
5.792213208E0,9.705152991E-1,1.270458693E1,-1.964419461E0,1.289214384E1
5.802183208E0,2.137078822E0,9.884051478E0,9.296201652E-1,1.015508607E1
5.812152208E0,1.319002774E0,-7.211345336E0,2.634567677E0,7.790007492E0
5.822122208E0,9.619543176E-2,-1.392873661E1,-8.409097177E-1,1.395442891E1
5.832092208E0,1.871551204E0,-2.385600252E0,-5.591261973E0,6.360503355E0
5.842061208E0,2.721078987E0,5.128472396E0,-3.040225865E0,6.553508471E0
5.852031208E0,1.817991148E0,2.462069261E0,8.140657353E-1,3.166951196E0
5.862000208E0,5.449458442E-1,-2.312637233E0,9.717148554E-1,2.566999553E0
5.871970208E0,1.244235597E0,-1.289523013E0,-1.747321115E0,2.502822986E0
5.881940208E0,1.467314183E0,1.868895545E0,-1.822828549E0,2.994742959E0
5.891909208E0,5.856454984E-1,2.443982653E0,4.198827088E-2,2.513522404E0
5.901879208E0,2.839462008E-1,-2.902981773E-1,7.971889168E-1,8.946556017E-1
5.911848208E0,-3.251323798E-1,-1.174474952E0,1.066611657E0,1.619494645E0
5.921818208E0,-5.013714796E-1,-1.735862911E-2,1.667552229E0,1.741380234E0
5.931788208E0,-4.539540689E-1,1.850217784E0,7.985758764E-1,2.065696874E0
5.941757208E0,-1.006560387E0,2.131536100E0,-1.302714039E0,2.693264530E0
5.951727208E0,-4.667015107E-1,3.119225549E0,-3.265185208E0,4.539693025E0
5.961696208E0,-3.073039269E-1,3.196224316E0,-3.711344134E0,4.907581977E0
5.971666208E0,3.293369664E-1,1.853735469E0,-5.077897489E-1,1.950038065E0
5.981636208E0,6.611253049E-1,8.710579616E-1,1.399424647E0,1.776011820E0
5.991605208E0,1.160946249E0,2.940857112E-1,7.818715507E-1,1.430246734E0
6.001575208E0,1.245511605E0,5.752277336E-1,3.002966237E-1,1.404408832E0
6.011544208E0,8.900247212E-1,-3.014877015E-1,1.661682209E0,1.908985753E0
6.021514208E0,5.618375732E-1,-2.138013938E-1,8.984913433E-1,1.081045415E0
6.031484208E0,4.101501280E-1,-1.817541497E0,1.673401199E0,2.504386510E0
6.041453208E0,-2.023128576E-1,-1.806208716E0,1.083289086E0,2.115853412E0
6.051423208E0,-3.892161823E-1,-1.096173133E0,8.262115717E-2,1.166152233E0
6.061392208E0,1.595222756E-2,-1.267064442E0,-6.129858363E-1,1.407642856E0
6.071362208E0,5.525834408E-1,-1.855251360E0,-2.665102422E-1,1.954055725E0
6.081332208E0,-1.376540180E-1,-1.737602750E0,1.199258083E0,2.115757995E0
6.091301208E0,1.841719441E-1,-1.342463411E0,1.929667119E0,2.357910623E0
6.101271208E0,3.458379186E-1,-7.290296781E-1,2.017342025E0,2.172730306E0
6.111240208E0,3.104736295E-2,-9.037497443E-1,2.000510230E0,2.195397167E0
6.121210208E0,-3.766613332E-1,-5.870543119E-1,1.399260340E0,1.563469227E0
6.131180208E0,-4.696361551E-1,-1.240606961E0,3.593073088E-1,1.374323649E0
6.141149208E0,-8.902261578E-1,-1.398187669E0,2.210642204E0,2.763036431E0
6.151119208E0,-1.087389299E0,-1.602475350E0,6.125199301E0,6.424049285E0
6.161088208E0,-1.472443507E0,4.012862241E-1,7.229156540E0,7.388492728E0
6.171058208E0,-1.410439047E0,3.399080307E0,5.836036946E0,6.899450157E0
6.181028208E0,-7.197808447E-1,3.188734325E0,1.696821052E0,3.683111828E0
6.190997208E0,-7.916779160E-2,1.252720930E0,-2.923232435E0,3.181330718E0
6.200967208E0,1.964929411E-1,-5.385089734E-1,-6.268051457E0,6.294209280E0
6.210936208E0,5.385710635E-1,-6.954766005E-1,-7.773005483E0,7.822618534E0
6.220906208E0,5.555027363E-1,6.359452209E-1,-7.512994421E0,7.560297268E0
6.230876208E0,1.791602590E-1,-1.284440028E0,-6.233366944E0,6.366847575E0
6.240845208E0,7.144478917E-1,-4.582385139E0,-2.361526680E0,5.204372932E0
6.250815208E0,6.580414103E-1,-4.876730174E0,2.173230549E0,5.379446691E0
6.260784208E0,6.898198579E-1,-3.171390606E0,6.434100103E0,7.206331518E0
6.270754208E0,1.944031280E-1,8.301879707E-1,9.401477847E0,9.440063048E0
6.280724208E0,-2.868544962E-1,2.263420342E0,8.907593361E0,9.195138750E0
6.290693208E0,1.575987975E-1,3.796103618E0,2.632662655E0,4.622353590E0
6.300663208E0,-3.993071609E-1,4.758983038E0,-7.395740206E0,8.803654864E0
6.310632208E0,2.612674277E-1,3.337955853E0,-1.091353098E1,1.141557569E1
6.320602208E0,5.883046659E-1,8.682627001E-1,-7.874021981E0,7.943563725E0
6.330572208E0,-1.439729760E-2,5.981350780E-1,-5.663102619E0,5.694620631E0
6.340541208E0,-3.066549226E-1,2.293964734E0,-4.735945301E0,5.271194299E0
6.350511208E0,-1.061830608E-2,1.488288584E0,-3.209029133E0,3.537369593E0
6.360480208E0,1.254938779E0,-2.489049483E0,-4.461686329E0,5.260882394E0
6.370450208E0,1.564974671E0,-1.019236230E1,8.582613301E-1,1.034746381E1
6.380420208E0,1.101469395E0,-1.036092817E1,1.339293051E1,1.696857846E1
6.390389208E0,1.614135868E0,-1.168996111E0,1.424725549E1,1.438597496E1
6.400359208E0,1.389971746E0,4.234207713E0,7.138404830E0,8.415305100E0
6.410328208E0,-2.275769953E-1,-1.928870729E-1,1.402652310E0,1.434025877E0
6.420298208E0,-7.398765190E-2,-3.311394584E0,-1.523213711E0,3.645680769E0
6.430268208E0,-6.571814311E-1,-3.853730267E-1,-2.628221110E0,2.736411154E0
6.440237208E0,-1.782667533E0,3.613183417E0,-1.276609730E0,4.226432342E0
6.450207208E0,-1.655790116E0,2.909239171E0,-3.169518328E-1,3.362405676E0
6.460176208E0,-2.866871196E-1,2.131887226E0,-2.607875723E0,3.380554456E0
6.470146208E0,1.226331697E-1,1.518099151E0,-2.395717104E0,2.838859695E0
6.480115958E0,-3.958958222E-1,-1.175445297E-1,-5.294776565E-1,6.714885012E-1
6.490084958E0,4.480452383E-1,-3.408781422E0,1.578104448E0,3.782981492E0
6.500054958E0,-5.458641494E-1,-5.233521718E0,-3.489343482E-1,5.273468728E0
6.510023958E0,-4.876392571E-1,-2.092712635E0,-1.947204089E0,2.899800334E0
6.519993958E0,-6.401097541E-1,3.631746572E-1,2.641888976E-2,7.364334910E-1
6.529963958E0,-8.702610592E-1,-4.013406032E-1,1.117164345E0,1.471898354E0
6.539932958E0,-3.073009302E-1,-2.491938008E0,-2.261788968E0,3.379331034E0
6.549902958E0,7.829380097E-1,-3.427965260E0,-4.187389349E0,5.467921663E0
6.559871958E0,1.130916996E0,9.477491650E-1,-4.660479966E0,4.888483942E0
6.569841958E0,1.640253918E0,7.761833793E0,-2.886456957E0,8.442045398E0
6.579811958E0,2.220780545E0,7.604641925E0,6.034776789E-1,7.945226891E0
6.589780958E0,3.060382679E0,1.899491394E-1,3.718435637E0,4.819625131E0
6.599750958E0,3.040410344E0,-3.924988530E0,4.247688176E0,6.533948643E0
6.609719958E0,2.389848108E0,-2.931783696E0,1.823357137E0,4.198971406E0
6.619689958E0,1.522401825E0,-7.195247367E-1,-2.103575007E0,2.694522402E0
6.629659958E0,2.927944998E-1,-1.428881750E0,-2.643352534E0,3.019063480E0
6.639628958E0,2.099412448E-1,-2.669636646E0,-5.225527990E-1,2.728387174E0
6.649598958E0,-4.185754175E-1,-8.161564073E-1,3.937479937E-1,9.981754074E-1
6.659567958E0,-1.355315299E0,6.510137880E-1,1.041974999E0,1.829319657E0
6.669537958E0,-2.876107385E0,-5.845443946E-1,2.153752304E0,3.640375644E0
6.679507958E0,-2.780578792E0,-1.679670584E0,2.227222568E0,3.938709440E0
6.689476958E0,-2.289809849E0,-5.531658965E-1,-5.433589464E-1,2.417531923E0
6.699446958E0,-2.535041927E0,1.883817055E0,1.174407417E-1,3.160537391E0
6.709415958E0,-2.110605699E0,3.212165287E0,2.760412037E-1,3.853421986E0
6.719385958E0,-3.052629271E0,7.192882168E-1,-7.415772182E-1,3.222709694E0
6.729355958E0,-1.978496486E0,-7.087994814E-3,-1.450378454E0,2.453180842E0
6.739324958E0,-1.313641754E0,1.039879649E0,-1.688007544E0,2.378313228E0
6.749294958E0,-3.261249081E-1,1.925549218E0,-2.752991921E-1,1.972279618E0
6.759263958E0,3.995090726E-1,1.568157457E0,9.997990322E-1,1.902189111E0
6.769233958E0,1.198964809E-1,3.306582910E-1,6.159012580E-1,7.092562521E-1
6.779203958E0,2.078182669E-1,6.547159526E-1,-7.603777707E-1,1.024702769E0
6.789172958E0,-6.726720027E-2,2.006746870E-1,-5.911418080E-1,6.278884005E-1
6.799142958E0,-8.636084444E-2,-1.075815467E0,9.560723841E-2,1.083502588E0
6.809111958E0,-5.199947152E-1,-2.770033046E0,-2.013167113E-1,2.825598343E0
6.819081958E0,-1.166118696E0,-2.845077381E0,-3.852724546E-1,3.098827679E0
6.829051958E0,-1.609387490E0,-1.067651877E0,-1.386216956E-1,1.936291455E0
6.839020958E0,-2.096643133E0,-1.950201079E0,2.512221122E0,3.809258673E0
6.848990958E0,-2.405201142E0,-1.673781853E0,1.222201973E0,3.174951320E0
6.858959958E0,-1.934388307E0,-1.570086161E0,1.173371290E0,2.753875244E0
6.868929958E0,-2.278969696E0,-8.586332130E-1,1.131318115E0,2.685299713E0
6.878899958E0,-2.578244080E0,1.373613283E-1,-5.550410986E-2,2.582497121E0
6.888868958E0,-1.835847375E0,-9.665725216E-1,-3.166793525E-1,2.098781512E0
6.898838958E0,-4.420769121E-1,-1.061477802E0,-1.085333857E0,1.581175734E0
6.908807958E0,-2.120602392E-3,4.753286389E-1,-2.381474456E0,2.428448558E0
6.918777958E0,4.281643030E-1,1.363035670E-1,-3.218321528E0,3.249537935E0
6.928747958E0,1.389310499E-1,-2.125510837E0,1.953402722E-1,2.138984800E0
6.938716958E0,-5.098280517E-2,-2.402949817E0,3.597528082E0,4.326543120E0
6.948686958E0,-3.518700890E-1,6.189149129E-1,4.247861254E0,4.307109641E0
6.958655958E0,1.296263848E-1,2.621718713E0,3.577733502E0,4.437385382E0
6.968625958E0,-1.532447414E-2,1.217023094E0,1.386656082E0,1.845046108E0
6.978595958E0,8.273230543E-1,-1.180533252E0,1.448857008E0,2.043846576E0
6.988564958E0,6.251433671E-1,-9.774287546E-1,3.182907282E0,3.387782456E0
6.998534958E0,-2.024938655E-1,1.130355663E0,2.310847692E0,2.580450493E0
7.008503958E0,-4.007908188E-2,2.697876651E0,-1.210384165E0,2.957224135E0
7.018473958E0,-1.025924465E0,1.872700329E0,-6.318384874E0,6.669446375E0
7.028443958E0,-6.003282224E-1,-6.877895585E-1,-9.559669588E0,9.603162557E0
7.038412958E0,-8.224393867E-1,-1.909104801E0,-6.549571502E0,6.871533639E0
7.048382958E0,-5.502948406E-1,-4.544149903E0,2.317867275E0,5.130753498E0
7.058351958E0,-1.202337099E-1,-3.181035881E0,1.200456528E1,1.241946187E1
7.068321958E0,8.698229565E-1,8.079168034E-1,1.102978298E1,1.109348611E1
7.078291958E0,-1.942091831E-1,3.244922267E0,-8.472615480E-2,3.251832752E0
7.088260958E0,-1.377599476E0,1.898536251E0,-7.914132711E0,8.254436188E0
7.098230958E0,1.450284624E-1,-1.081334946E0,-5.242607122E0,5.354927446E0
7.108199958E0,9.558534059E-1,-3.617733720E-1,-2.924514145E0,3.097953952E0
7.118169958E0,1.160360212E0,3.156524060E0,-1.520116441E0,3.690641402E0
7.128139958E0,3.550565657E-1,4.618671497E0,7.664097583E-1,4.695271609E0
7.138108958E0,1.127952841E-1,2.456991246E0,2.133862415E0,3.256209079E0
7.148078958E0,7.906697099E-1,7.049081594E-2,1.678801687E0,1.857014445E0
7.158047958E0,7.175893814E-1,-1.031483924E-1,4.057616830E-1,8.307927868E-1
7.168017958E0,-5.555540090E-2,2.699075038E0,1.828914916E0,3.260831524E0
7.177987958E0,9.058060639E-1,1.796790313E0,3.282867188E0,3.850474909E0
7.187956958E0,-5.723905914E-1,-2.004458855E0,1.729754909E0,2.708789090E0
7.197926958E0,-2.655984969E-1,-4.751732783E0,6.922635555E-2,4.759653275E0
7.207895958E0,1.032478974E0,-3.721646636E0,-1.241220626E0,4.056759194E0
7.217865958E0,5.760248552E-1,-1.210241785E0,-9.267936212E-1,1.629550929E0
7.227835958E0,1.004513861E0,3.820012298E-1,6.878927618E-1,1.275997449E0
7.237804958E0,6.669171913E-1,2.115657109E0,1.797420643E0,2.855083976E0
7.247774958E0,4.943793791E-1,-1.793849748E-1,1.281456487E0,1.385178929E0
7.257743958E0,5.671454563E-1,-1.897476735E0,-1.520176667E-1,1.986248046E0
7.267713958E0,1.272155467E0,-3.871123395E0,-1.414207578E-2,4.074822189E0
7.277683958E0,9.724548937E-1,-4.162833675E0,-7.820393658E-1,4.345853000E0
7.287652958E0,7.591870583E-1,-1.475382902E0,-9.056126672E-1,1.890305266E0
7.297622958E0,1.131459471E0,3.704269588E-1,-2.367116618E-1,1.213857108E0
7.307591958E0,1.111205886E0,-4.276098043E-1,6.514792264E-1,1.357222844E0
7.317561958E0,8.837801872E-1,-1.742805895E0,4.201719121E0,4.633884264E0
7.327531958E0,6.334461209E-1,-6.489514750E-1,8.150546165E0,8.200841102E0
7.337500958E0,7.862556468E-1,2.030461423E0,7.030337759E0,7.359797588E0
7.347470958E0,1.362034773E0,3.304732266E0,1.516661321E0,3.882866935E0
7.357439958E0,8.611602335E-1,4.921779755E-1,-3.414395626E0,3.555549690E0
7.367409958E0,1.774172552E0,-8.569457066E-1,-7.001510986E0,7.273458619E0
7.377379958E0,2.300747797E0,-1.433351069E0,-7.912793698E0,8.364223803E0
7.387348958E0,1.365635781E0,-1.269338132E0,-6.221792965E0,6.495143422E0
7.397318958E0,8.888856105E-1,-1.554529644E0,-3.056241973E0,3.542216120E0
7.407287958E0,1.087598191E-1,-1.658899227E0,-1.164463642E0,2.029716955E0
7.417257958E0,2.507721689E-1,-1.295463199E0,2.054515114E0,2.441750179E0
7.427227958E0,5.358245167E-1,-9.978486934E-1,5.771489532E0,5.881573033E0
7.437196958E0,9.086138968E-1,-1.011921480E0,5.022161245E0,5.203044096E0
7.447166958E0,1.623589792E0,4.998179474E-1,1.728116519E0,2.423272271E0
7.457135958E0,1.018213376E0,1.267558532E0,-4.888178730E-1,1.697765009E0
7.467105958E0,7.028188761E-1,1.362059185E0,-1.236990166E0,1.969594950E0
7.477075917E0,4.208566356E-1,1.195367638E0,-1.394384932E0,1.884232851E0
7.487044917E0,-8.359332986E-2,9.236495733E-1,-6.681326813E-1,1.143030034E0
7.497014917E0,-4.065020136E-1,2.136053659E0,-4.161714810E-1,2.213858131E0
7.506983917E0,-2.928295100E-1,4.161810704E0,-7.710746670E-1,4.242755426E0
7.516953917E0,-2.906332228E-1,3.039777968E0,-1.774629951E-3,3.053640600E0
7.526923917E0,7.417970735E-1,-9.332217577E-1,1.683867715E0,2.063147166E0
7.536892917E0,3.185174248E-1,-5.038115373E0,2.558298351E0,5.659412541E0
7.546862917E0,1.004909060E-1,-3.458363180E0,1.825144047E0,3.911716387E0
7.556831917E0,5.980040272E-1,-6.998918331E-1,2.767615807E-1,9.612774663E-1
7.566801917E0,8.103789928E-1,-5.826791328E-1,8.911016321E-1,1.338017639E0
7.576771917E0,8.255499592E-1,-1.133359378E0,7.227807587E-1,1.577481613E0
7.586740917E0,2.775968555E-1,-1.361010194E0,-1.018701911E-1,1.392762112E0
7.596710917E0,1.144576384E-1,-3.701153022E-1,-2.501438856E-2,3.882159290E-1
7.606679917E0,-5.078425200E-1,9.362178710E-1,1.095713249E0,1.528069191E0
7.616649917E0,-1.260452703E0,1.794000022E0,1.320737497E0,2.559594622E0
7.626619917E0,-7.231089337E-1,3.287088293E-1,9.726024628E-2,8.002471993E-1
7.636588917E0,-2.547905217E-1,-5.142222708E-1,-9.566629529E-1,1.115592560E0
7.646558917E0,1.156805105E-1,-5.095547310E-1,-1.424519727E0,1.517328065E0
7.656527917E0,6.521664935E-1,-9.090256870E-1,-1.091526643E0,1.563035267E0
7.666497917E0,1.150868427E0,-1.199185285E0,-1.214144509E0,2.058322223E0
7.676467917E0,1.679171524E0,-1.405260461E0,-7.464812779E-1,2.313354332E0
7.686436917E0,1.716446793E0,-1.057994908E0,1.909074980E-1,2.025336636E0
7.696406917E0,1.612435644E0,-5.223510700E-1,1.154525714E0,2.050787402E0
7.706375917E0,1.417469885E0,1.044432583E-1,6.604851079E-1,1.567281037E0
7.716345917E0,5.660784490E-1,-7.458737522E-2,3.169436467E-1,6.530400923E-1
7.726315917E0,2.023697948E-1,-9.034375030E-1,9.776667362E-1,1.346471352E0
7.736284917E0,5.289790352E-1,-4.973162162E-1,1.470624438E0,1.640084899E0
7.746254917E0,5.664910432E-1,-4.314908937E-1,1.062750741E0,1.279271523E0
7.756223917E0,4.799136599E-1,-1.101774473E0,1.011468905E0,1.570762062E0
7.766193917E0,6.934989991E-1,-1.314458756E0,1.320504777E0,1.988083386E0
7.776163917E0,9.836922920E-1,-4.843915308E-1,4.332283938E-1,1.178970959E0
7.786132917E0,1.920427203E0,-2.167600849E-1,5.161150146E-1,2.000350041E0
7.796102917E0,1.103253453E0,-5.059010983E-1,1.151136668E0,1.672788011E0
7.806072917E0,1.350292102E0,-1.273120696E0,1.577291685E0,2.435564437E0
7.816041917E0,1.007300425E0,-1.162730819E0,5.511760890E-1,1.634133466E0
7.826011917E0,9.776384503E-1,-6.846077961E-1,-7.917071521E-2,1.196132424E0
7.835980917E0,9.289764599E-1,-1.020402574E0,-2.177807164E-1,1.397013642E0
7.845950917E0,7.157091361E-1,-1.095946553E-1,-2.258773559E-1,7.584663051E-1
7.855920917E0,8.695874599E-1,2.055348927E-1,-6.004716253E-1,1.076565426E0
7.865889917E0,1.032022965E0,6.816455966E-1,-1.549307495E-1,1.246481310E0
7.875859917E0,1.306927250E0,1.716172412E-1,-1.973388505E-1,1.332836801E0
7.885828917E0,1.496974623E0,8.695154661E-1,-9.162183470E-1,1.958684821E0
7.895798917E0,1.605981633E0,1.700591921E0,-2.718827809E0,3.586532384E0
7.905768917E0,1.011793279E0,1.410774093E0,-1.947933821E0,2.609301698E0
7.915737917E0,5.631264457E-1,1.026123782E0,-2.475442135E-1,1.196377677E0
7.925707917E0,-3.294642895E-2,3.086101949E-1,5.607292700E-1,6.408923730E-1
7.935676917E0,-1.257281831E-1,9.026647934E-1,7.235075676E-1,1.163647071E0
7.945646917E0,1.572473798E-1,6.877775717E-1,5.002228671E-1,8.648627888E-1
7.955616917E0,3.996252860E-1,9.368233502E-2,5.370632493E-1,6.759539059E-1
7.965585917E0,9.291167200E-1,-2.156438515E0,8.247871900E-1,2.488726352E0
7.975555917E0,1.556934896E0,-1.725685832E0,6.495408744E-1,2.413284320E0
7.985524917E0,1.210823729E0,-6.568557411E-1,1.269361521E0,1.873187721E0
7.995494917E0,1.052529954E0,-1.789835635E-1,5.200197852E-1,1.187549998E0
8.005464917E0,3.270859346E-1,-1.048833490E0,-4.228490013E-1,1.177216283E0
8.015433917E0,3.414462942E-1,-2.108177351E0,2.652940214E-1,2.152063715E0
8.025403917E0,-7.469520153E-2,-1.590367813E0,6.612224418E-1,1.723967596E0
8.035372917E0,-4.737980571E-1,1.949289206E-1,4.447608572E-1,6.784497793E-1
8.045342917E0,-6.445351461E-1,5.357382703E-1,5.334941089E-2,8.398137939E-1
8.055312917E0,-1.076713307E0,-4.095050704E-1,9.200242996E-1,1.474262751E0
8.065281917E0,-1.272563749E0,-5.495809686E-1,-2.163078028E-1,1.402942194E0
8.075251917E0,-8.253565626E-1,-5.189219704E-1,-1.303203451E0,1.627523487E0
8.085220917E0,-4.683563458E-1,-1.015561664E0,-1.230061800E0,1.662460583E0
8.095190917E0,-7.362928701E-1,-1.594904375E0,-4.344282424E-1,1.809578695E0
8.105160917E0,-4.270954320E-1,-1.903157305E0,9.921245617E-1,2.188316564E0
8.115129917E0,-1.138714094E-1,-5.631982568E-1,8.628098792E-1,1.036629086E0
8.125099917E0,2.831947239E-2,3.067224213E-1,-5.877837521E-1,6.636040804E-1
8.135068917E0,-3.527342344E-1,-2.760648850E-1,-2.393758287E0,2.435305319E0
8.145038917E0,-5.835536570E-1,-1.728408296E0,-3.063359789E0,3.565403666E0
8.155008917E0,-7.850627417E-1,-3.418131120E0,1.655671856E0,3.878297714E0
8.164977917E0,-1.785372930E-1,-3.007148458E0,1.062676247E1,1.104549220E1
8.174947917E0,9.161027914E-1,2.327092135E0,1.280678807E0,2.809758056E0
8.184916917E0,-5.365279368E-1,4.399335129E0,-9.033521336E0,1.006213295E1
8.194886917E0,-1.778290308E0,-2.928209877E0,-3.198626352E0,4.686996911E0
8.204856917E0,-1.055038921E0,-6.467180725E0,6.594996766E0,9.296855168E0
8.214825917E0,-3.077446608E-1,-4.442430863E-1,8.509748223E0,8.526891199E0
8.224795917E0,1.226748183E0,6.581770365E0,4.288668387E0,7.950930057E0
8.234764917E0,-5.922596129E-1,4.671400226E0,-2.763951942E0,5.460053284E0
8.244734917E0,-2.281792878E0,-4.811328775E-1,-5.489498202E0,5.964281859E0
8.254704917E0,-1.974357681E0,-1.213828760E0,-3.262262185E0,4.001727511E0
8.264673917E0,-1.443920643E0,1.734680604E0,-4.586754763E-1,2.303129786E0
8.274643917E0,-7.989791150E-1,3.311898614E0,9.736286491E-1,3.543302527E0
8.284612917E0,-1.315630831E0,2.207456933E0,-1.085348475E0,2.789575578E0
8.294582917E0,-1.797737562E0,5.051608407E-1,-2.159941581E0,2.855239999E0
8.304552917E0,-8.262385420E-1,4.776555383E-1,-5.246472716E-1,1.089072863E0
8.314521917E0,-4.638435379E-1,3.977226385E-1,6.632561034E-1,9.017997469E-1
8.324491917E0,-3.109285063E-1,1.284604043E-2,-2.561852288E-1,4.030786874E-1
8.334460917E0,-4.812651342E-1,7.157842728E-1,-1.717382201E0,1.921812915E0
8.344430917E0,-3.385871520E-1,1.880036538E0,-2.024291441E0,2.783331543E0
8.354400917E0,-8.195488156E-1,-3.711827699E0,7.482371968E-1,3.874168818E0
8.364369917E0,5.602520641E-2,-3.226605864E0,-2.676329076E-1,3.238171026E0
8.374339917E0,3.119208884E-1,-4.459520812E0,-1.373409800E0,4.676630731E0
8.384309917E0,-3.305990148E-1,6.689276102E-1,-1.635807111E0,1.797950155E0
8.394278917E0,-1.311039012E0,3.035082069E0,5.333090445E0,6.274743035E0
8.404248917E0,-1.390660840E0,-9.619248623E-1,6.689040459E0,6.899456448E0
8.414217917E0,-7.100450845E-1,-4.985031425E0,4.029653690E0,6.449248886E0
8.424187917E0,-1.199854572E0,-3.343191742E0,-9.078971744E-3,3.551994432E0
8.434157917E0,-5.901403262E-1,1.920959446E-1,-3.199175406E-1,6.982218052E-1
8.444126917E0,-6.025211110E-1,2.199323456E0,7.958808947E-1,2.415260183E0
8.454096917E0,-1.211319208E0,-6.167923737E-1,9.007664949E-1,1.630676956E0
8.464065917E0,-6.560293103E-1,-1.619617048E0,-1.170310273E0,2.103130992E0
8.474036167E0,-5.823997455E-1,-4.508638886E-1,-2.993300790E-1,7.950259152E-1
8.484006167E0,-7.593227137E-1,1.288114419E0,1.510033502E0,2.125090802E0
8.493975167E0,-9.856557139E-1,1.561200732E-1,2.052318900E0,2.282083156E0
8.503945167E0,-7.059097143E-1,-2.134026722E0,-4.970870054E-1,2.302058658E0
8.513914167E0,-7.303417933E-1,-9.767075005E-1,-2.406993459E0,2.698328036E0
8.523884167E0,-5.919308167E-1,2.967777693E-1,-1.818831393E0,1.935615347E0
8.533854167E0,-6.958400050E-1,-8.391988224E-1,-5.038405395E-1,1.200959310E0
8.543823167E0,-9.248480333E-1,-2.361075275E0,-8.253684032E-1,2.666693334E0
8.553793167E0,-5.022732664E-1,-4.897256532E-1,-2.735240359E0,2.823765123E0
8.563762167E0,-2.672037037E-1,2.106304488E-1,-5.707145602E-1,6.644381946E-1
8.573732167E0,-6.271628492E-1,1.332057121E-1,3.602235675E-1,7.354169020E-1
8.583702167E0,-1.807139373E-1,1.187938751E0,-4.735870457E-1,1.291565210E0
8.593671167E0,-5.488323788E-1,1.544818296E0,-2.935519189E0,3.362283964E0
8.603641167E0,-4.020026542E-2,5.563926825E-1,-4.201474122E0,4.238345630E0
8.613610167E0,2.931742034E-1,-3.409035776E0,-3.066124352E0,4.594409057E0
8.623580167E0,-2.745140024E-1,-5.841422231E0,1.137580249E1,1.279087385E1
8.633550167E0,-7.183755396E-1,-9.320330188E-1,1.597611110E1,1.601939059E1
8.643519167E0,-4.028676401E-1,8.650836275E0,5.607758723E0,1.031727815E1
8.653489167E0,-1.138396681E0,8.146552516E0,-1.915266012E0,8.445739091E0
8.663458167E0,2.025579875E0,1.789156481E0,-6.680138658E0,7.206129838E0
8.673428167E0,1.895454768E0,4.396103373E-1,-9.551917934E0,9.748084030E0
8.683398167E0,-1.937650871E-1,1.653361037E0,-1.142841808E1,1.154902106E1
8.693367167E0,-6.664500719E-1,1.084711128E0,-1.017567434E1,1.025500377E1
8.703337167E0,-2.574473503E-1,-3.207392790E0,-7.091966828E0,7.787787948E0
8.713306167E0,4.200543246E-1,-6.753777323E0,-2.017123339E0,7.061072180E0
8.723276167E0,7.215586176E-1,-5.198275872E0,8.828437264E0,1.027054153E1
8.733246167E0,4.971670391E-1,-3.403799010E0,1.996070322E1,2.025494251E1
8.743215167E0,3.240224687E-1,1.418000959E0,1.794768697E1,1.800653173E1
8.753185167E0,1.558255489E0,3.059015015E0,4.392090429E0,5.574602351E0
8.763154167E0,-4.503795198E-1,1.538195739E0,-2.872489713E0,3.289389760E0
8.773124167E0,1.278254844E0,-4.515053281E-1,-8.846507499E0,8.949775832E0
8.783094167E0,2.432212793E0,-4.733128113E0,-6.045654949E0,8.054073787E0
8.793063167E0,-8.473511566E-1,-3.130942492E0,-6.008581848E0,6.828166715E0
8.803033167E0,-2.030776734E-1,3.810171434E0,-5.152596838E0,6.411544360E0
8.813003167E0,-5.216939526E-1,6.472761308E0,5.891005450E-1,6.520417393E0
8.822972167E0,-4.685857211E-2,-2.603333313E0,1.041173696E1,1.073237190E1
8.832942167E0,8.143170560E-3,-6.694794120E0,7.992883596E0,1.042624203E1
8.842911167E0,1.446442273E-1,-3.986156253E0,4.521912650E0,6.029764311E0
8.852881167E0,7.511404856E-1,-2.510411409E-1,2.993483223E0,3.096477917E0
8.862851167E0,2.489689607E-1,9.837028170E-1,2.471247928E0,2.671464597E0
8.872820167E0,1.603000832E-1,-2.049171636E0,-8.498518646E-2,2.057188127E0
8.882790167E0,-4.679033328E-3,-6.144847700E-1,-6.233399688E0,6.263615976E0
8.892759167E0,-3.839850439E-1,2.171564677E0,-7.429921274E0,7.750281788E0
8.902729167E0,1.432839365E-1,4.201058385E0,-7.385288892E0,8.497759344E0
8.912699167E0,5.901930973E-1,4.204766690E0,-4.069726413E0,5.881416826E0
8.922668167E0,7.599885654E-2,5.685541894E0,-1.948070061E0,6.010502426E0
8.932638167E0,1.336713552E0,3.187296495E0,2.910935740E0,4.518761882E0
8.942607167E0,1.565696656E0,-6.278338464E0,9.913143715E0,1.183804706E1
8.952577167E0,7.336930519E-1,-1.398071017E1,8.063578187E0,1.615610892E1
8.962547167E0,1.178106219E0,-7.164046040E0,-4.298257236E0,8.437209562E0
8.972516167E0,2.346845052E0,3.382680036E0,-7.139833889E0,8.241810110E0
8.982486167E0,1.038605321E0,4.643829727E0,7.311229813E-1,4.814394704E0
8.992455167E0,1.187379830E0,1.506576043E0,2.220231053E0,2.934121361E0
9.002425167E0,1.117801180E0,5.092153001E-1,-1.319434152E0,1.802688598E0
9.012395167E0,6.616533816E-1,1.927472952E0,-3.327601311E0,3.902033786E0
9.022364167E0,7.317619358E-1,3.474643290E0,-1.064151149E0,3.706890771E0
9.032334167E0,5.352487852E-1,-1.258393899E-1,1.545845944E0,1.640721334E0
9.042303167E0,5.726745103E-1,-3.265844189E0,2.391683695E0,4.088256995E0
9.052273167E0,8.231425144E-1,-1.170240983E0,2.865175431E0,3.202539275E0
9.062243167E0,8.756404245E-1,1.874015075E0,8.767508107E-1,2.246635404E0
9.072212167E0,1.576313446E0,1.675526077E0,8.452980530E-1,2.450853017E0
9.082182167E0,6.405412786E-1,-1.072152186E0,-6.654318523E-1,1.415133559E0
9.092152167E0,-7.269733585E-3,1.633416769E-1,-2.589790285E-2,1.655416981E-1
9.102121167E0,1.381673816E0,1.191137470E0,5.297793143E0,5.603074441E0
9.112091167E0,1.338791652E0,3.066581897E0,1.156659597E1,1.204086500E1
9.122060167E0,1.433838435E0,3.201773031E0,5.348206083E0,6.396135669E0
9.132030167E0,1.286699392E0,3.738134615E0,6.676093554E-1,4.009357551E0
9.142000167E0,3.928013295E-1,2.079241235E0,-3.956728971E0,4.487008039E0
9.151969167E0,-1.572915044E0,-1.035386648E0,-5.626804274E0,5.933549830E0
9.161939167E0,-1.918568958E0,-1.856122887E0,-7.861043501E0,8.301933747E0
9.171908167E0,-2.522120166E0,-2.593123782E0,-6.658946595E0,7.578057194E0
9.181878167E0,-2.302169840E0,-4.461973427E0,9.104880756E-1,5.102762131E0
9.191848167E0,-2.171086959E0,-1.977816601E0,3.424324198E0,4.511249639E0
9.201817167E0,-1.427270550E0,-1.153702718E0,4.808820319E-1,1.897202866E0
9.211787167E0,-6.925385939E-1,-1.008301761E0,-2.352624294E0,2.651626522E0
9.221756167E0,-5.358022607E-1,-9.708292946E-1,-2.128063146E0,2.399634626E0
9.231726167E0,-4.040460003E-1,-3.751708049E-1,-1.372116981E0,1.478753296E0
9.241696167E0,-1.222464951E-1,-2.054507512E0,2.526289523E-1,2.073587884E0
9.251665167E0,-1.415170614E0,-4.516382061E0,1.583673921E0,4.990835388E0
9.261635167E0,-1.696058575E0,-2.329219352E0,1.634209651E0,3.312479232E0
9.271604167E0,-9.082161400E-1,-5.014773872E-1,1.398402554E0,1.741225382E0
9.281574167E0,-1.481570791E-1,4.744913176E-1,3.088335586E0,3.128083953E0
9.291544167E0,5.071200965E-1,3.002682647E-1,4.921805483E0,4.956964901E0
9.301513167E0,1.216402046E0,-2.106495399E0,4.413707585E0,5.039620170E0
9.311483167E0,1.217693769E0,-5.435773984E0,2.931447773E0,6.294744075E0
9.321452167E0,7.116451020E-1,-4.865331904E0,-1.157735251E0,5.051558591E0
9.331422167E0,9.683774109E-1,-3.078163769E0,-2.718246011E0,4.219207079E0
9.341392167E0,7.475984981E-3,-1.193347133E0,-2.020023558E0,2.346194460E0
9.351361167E0,-4.085920277E-1,8.342935932E-1,-2.041927813E0,2.243315055E0
9.361331167E0,-7.380554767E-2,8.727840596E-1,-2.012309911E0,2.194673199E0
9.371301167E0,1.904615016E-1,6.592896447E-1,-9.362836522E-1,1.160846888E0
9.381270167E0,1.144279821E-1,3.927533823E-1,-1.681448722E0,1.730496688E0
9.391240167E0,-3.645176165E-1,-3.698106623E-1,-2.333206276E0,2.390289636E0
9.401209167E0,-9.247064576E-1,-2.364096531E0,-1.041354024E-1,2.540645316E0
9.411179167E0,-1.393935427E0,-7.951727968E-1,2.189363016E0,2.714528720E0
9.421149167E0,-8.958663089E-1,3.287225995E0,5.714618343E-1,3.454706907E0
9.431118167E0,-2.796483693E-1,5.778913157E0,-5.238669022E0,7.804978771E0
9.441088167E0,3.673512503E-1,4.585667766E0,-1.085823503E1,1.179256392E1
9.451057167E0,-5.310194576E-2,3.969657165E-1,-1.044607883E1,1.045375361E1
9.461027167E0,-1.478269672E-1,-1.978818522E0,-4.474108738E0,4.894407478E0
9.470997167E0,-8.887204997E-1,-1.226338878E0,1.530052380E1,1.537529706E1
9.480967167E0,-1.103652160E0,8.544509336E0,1.349346286E1,1.600937937E1
9.490937167E0,-1.574986712E0,8.518868710E0,5.035797536E-1,8.677862630E0
9.500906167E0,1.681802844E-1,-7.057726702E-1,-3.761409164E0,3.830743866E0
9.510876167E0,-1.207615216E-1,-4.642085503E0,-2.022547216E0,5.065001323E0
9.520846167E0,-4.277532803E-1,-7.526015586E-1,-1.473021796E0,1.708559389E0
9.530815167E0,-1.574119132E0,9.980302495E-1,-1.908397288E0,2.667563613E0
9.540785167E0,-1.941175025E0,-1.398494940E0,1.771560162E-1,2.399027475E0
9.550755167E0,-1.071594947E0,-2.282024135E0,-7.306873637E-1,2.624853121E0
9.560724167E0,-7.796304591E-1,-7.503562278E-1,2.417367589E-1,1.108735668E0
9.570694167E0,-2.044359085E-1,-4.424897987E-1,1.177331024E0,1.274244719E0
9.580663167E0,4.381310648E-1,-1.626359472E0,2.343000362E0,2.885594334E0
9.590633167E0,2.118579620E-1,-2.364768961E0,3.451132513E0,4.188953527E0
9.600603167E0,6.146392096E-2,-6.406118837E-1,1.335288293E0,1.482280751E0
9.610572167E0,-9.937375161E-1,-2.317127894E0,1.179433098E0,2.783461579E0
9.620542167E0,-1.790088161E-1,-6.266096148E0,-5.434273589E-1,6.292163252E0
9.630511167E0,-1.458792743E0,-5.813100073E0,-1.455162646E0,6.167471690E0
9.640481167E0,-1.473071790E0,2.210668516E-1,1.523932801E1,1.531195381E1
9.650451167E0,9.404582718E-1,1.023950372E1,1.705597021E1,1.991577309E1
9.660420167E0,-9.035917233E-1,9.158594449E0,1.203882763E1,1.515353757E1
9.670390167E0,-1.698153194E0,5.041619024E0,-1.021774740E1,1.151972259E1
9.680359167E0,-1.411486284E0,-6.943051693E0,-1.323337169E1,1.501067575E1
9.690329167E0,7.981218401E-1,-1.148287203E1,-1.178189279E1,1.647137960E1
9.700299167E0,2.568509709E-1,-3.488224325E0,-1.444797403E1,1.486531651E1
9.710268167E0,2.871333426E0,1.994858311E0,-4.630269742E0,5.802018029E0
9.720238167E0,1.849598857E0,6.538289300E-1,7.493959980E0,7.746479483E0
9.730208167E0,-2.248676880E-1,-2.846623970E0,8.468477991E0,8.936943156E0
9.740177167E0,-5.085776612E-1,-1.839368860E0,1.789495327E0,2.616146511E0
9.750147167E0,4.568288160E-1,7.118289238E-1,-9.144425476E-1,1.245631630E0
9.760116167E0,3.417262662E-2,2.339855729E0,9.447808260E-1,2.523629016E0
9.770086167E0,5.184123856E-1,5.317513463E-1,8.815478665E-1,1.152665405E0
9.780056167E0,1.226845064E-1,1.006275116E0,-2.195241222E0,2.418000232E0
9.790025167E0,-9.142137752E-1,2.078176164E0,-2.729151653E0,3.550052358E0
9.799995167E0,-1.328430386E0,1.105990023E0,-1.583848168E0,2.344465022E0
9.809964167E0,-1.368520797E0,3.569584530E0,-8.825395542E-1,3.923475367E0
9.819934167E0,-2.500566452E0,5.986162453E0,1.118846004E0,6.583220327E0
9.829904167E0,-1.879175828E0,-2.095011175E0,5.256031160E0,5.962066518E0
9.839873167E0,5.427552214E-1,-1.617327570E0,6.288934788E0,6.516213047E0
9.849843167E0,2.087680960E0,-6.943182086E0,2.684076637E0,7.731135535E0
9.859812167E0,1.083117031E0,-6.286775411E0,-3.679232395E0,7.364335584E0
9.869782167E0,3.609186552E-1,2.676382871E0,-1.792087982E0,3.241121238E0
9.879752167E0,-1.177314488E-1,3.943197052E0,2.840101985E0,4.860950830E0
9.889721167E0,5.361856188E-1,5.869636801E-1,8.868197161E-1,1.190995629E0
9.899691167E0,1.482464319E-1,-1.483959598E0,-2.111821920E0,2.585324915E0
9.909661167E0,-2.514003792E-1,-9.011161584E-1,-2.466781824E0,2.638223844E0
9.919630167E0,-9.741847193E-1,1.481918920E0,-2.421665293E-1,1.789906193E0
9.929600167E0,-1.331989148E0,1.130469684E0,7.074476051E-1,1.884844532E0
9.939569167E0,-1.623227557E0,-5.847814992E-1,-1.773467524E0,2.474272451E0
9.949539167E0,-1.485357229E0,-9.024806061E-1,-3.290865009E0,3.721632686E0
9.959509167E0,-8.725983375E-1,-3.618154719E-1,-3.075244839E0,3.217059079E0
9.969478167E0,-6.660442751E-1,-1.833368155E-1,-1.100181692E0,1.299087033E0
9.979448167E0,9.329331245E-2,-2.042176319E0,1.926862795E0,2.809268231E0
9.989417167E0,-3.666099695E-1,-9.495544928E-1,1.728355671E0,2.005809046E0
9.999387167E0,4.085345788E-1,2.346111958E0,-8.322891676E-1,2.522666660E0
1.000935717E1,4.250998139E-1,2.875351633E0,-3.828252779E0,4.806649166E0
1.001932617E1,-4.310691998E-1,-1.695786387E0,-2.290066103E0,2.881998418E0
1.002929617E1,-7.007782710E-1,-4.797594542E0,1.618190035E0,5.111412971E0
1.003926517E1,-1.220519509E0,-2.163865940E0,3.323323488E0,4.149272549E0
1.004923517E1,-4.466202718E-1,5.144827643E-1,2.969441811E0,3.046595945E0
1.005920517E1,-8.887030312E-1,4.114393294E-1,2.526511717E0,2.709674677E0
1.006917417E1,1.053402760E-1,-2.292517549E0,1.066541491E0,2.530660790E0
1.007914417E1,6.173523176E-1,-1.779320587E0,-1.730337292E-1,1.891308094E0
1.008911417E1,4.841702867E-1,2.224073258E-1,-1.238048512E-1,5.470041374E-1
1.009908317E1,2.688021132E-1,-4.337072808E-1,1.650653191E0,1.727718883E0
1.010905317E1,-3.601361882E-1,-3.205789191E0,1.453787965E0,3.538401031E0
1.011902217E1,-1.025360976E-1,-1.610906158E0,-1.597410200E0,2.270958310E0
1.012899217E1,1.455496595E-1,6.183550420E-1,-2.249101095E0,2.337092937E0
1.013896217E1,4.253683472E-1,-3.775810272E-1,-1.335378340E0,1.451461668E0
1.014893117E1,-5.151308185E-1,-1.994406322E0,4.752271897E-1,2.113967175E0
1.015890117E1,-2.149523451E-1,-5.895586744E-1,2.099312387E0,2.191094804E0
1.016887017E1,-3.687812417E-2,1.497607876E0,2.903234957E0,3.266950040E0
1.017884017E1,4.789878264E-1,1.432465509E0,2.314642535E0,2.763866284E0
1.018881017E1,3.434221049E-1,-7.169718423E-1,-1.152555787E0,1.400132925E0
1.019877917E1,5.755110312E-1,1.873176000E-1,-4.656827796E0,4.695992541E0
1.020874917E1,9.198705909E-1,3.005946563E0,-3.654467683E0,4.820478263E0
1.021871917E1,7.119963735E-1,4.789209050E0,-5.303711110E-1,4.870806471E0
1.022868817E1,-1.618141283E-1,1.649241673E0,2.552132462E0,3.042952844E0
1.023865817E1,-1.783055606E-1,-1.125594860E-1,4.002530211E-1,4.523991509E-1
1.024862717E1,-2.910822158E-1,1.058147228E0,-2.911656117E0,3.111614655E0
1.025859717E1,-3.997287817E-1,9.597967681E-1,-2.806639540E0,2.993028306E0
1.026856717E1,-7.866094033E-1,-9.479962099E-1,-1.322437282E0,1.807288448E0
1.027853617E1,-5.444786517E-1,-2.018258576E0,2.077808082E-2,2.090515824E0
1.028850617E1,3.246726790E-2,-8.903461719E-1,9.567185014E-1,1.307318140E0
1.029847517E1,-3.777743873E-1,-1.481405534E0,1.396176519E0,2.070406896E0
1.030844517E1,2.138239787E-1,-2.247628474E0,1.841052566E0,2.913250590E0
1.031841517E1,-1.735874971E-1,-3.008457065E0,1.224333283E0,3.252681742E0
1.032838417E1,-5.693591025E-1,-6.804144654E-1,2.471571279E-1,9.209887503E-1
1.033835417E1,-6.972026986E-1,1.357675527E0,8.712672919E-1,1.757407504E0
1.034832317E1,-5.248521800E-1,1.356023397E0,1.040230190E0,1.787833356E0
1.035829317E1,-2.045200536E-1,-8.006270796E-1,3.697749943E-1,9.052986906E-1
1.036826317E1,-3.337663785E-1,-1.416703462E0,2.849172771E-1,1.483113802E0
1.037823217E1,1.512909674E-1,-3.613105649E-1,2.139811957E-1,4.463431788E-1
1.038820217E1,8.431156894E-2,4.836389941E-1,9.552783322E-1,1.074044603E0
1.039817217E1,-5.431619318E-2,-4.374597314E-1,1.540467675E0,1.602298949E0
1.040814117E1,-1.550875463E-1,-8.229672441E-1,1.081753022E0,1.368033930E0
1.041811117E1,2.552278204E-1,-1.328297362E-1,2.071621728E-1,3.545435727E-1
1.042808017E1,5.596967979E-1,-4.474996930E-1,-2.462648427E-1,7.577353454E-1
1.043805017E1,2.126686054E-1,-1.035987450E0,-8.061842734E-1,1.329823678E0
1.044802017E1,3.334479245E-1,-1.048808932E0,-1.404457346E0,1.784289251E0
1.045798917E1,1.979253262E-1,-4.516725585E-1,-1.291159356E0,1.382126991E0
1.046795917E1,5.627182187E-2,1.439862236E-1,4.562892276E-1,4.817659284E-1
1.047792642E1,3.461145102E-2,-1.994985196E-1,5.407481647E-1,5.774133610E-1
1.048789642E1,2.612862119E-2,-6.176960608E-1,-1.169969380E-2,6.183591281E-1
1.049786642E1,3.853681480E-2,-2.319321477E-1,-5.600205874E-1,6.073719335E-1
1.050783542E1,1.116677034E-1,-3.566243139E-1,4.261708045E-1,5.668087260E-1
1.051780542E1,-1.933429364E-1,-7.024119830E-1,6.544601369E-1,9.793273997E-1
1.052777542E1,-5.519749283E-1,-3.850654632E-1,2.384137863E-1,7.139978053E-1
1.053774442E1,-4.356909487E-1,8.832075986E-1,-5.473812461E-1,1.126724675E0
1.054771442E1,-3.468681980E-1,1.306177053E0,-1.104937817E0,1.745652777E0
1.055768342E1,-3.806780780E-1,3.948645195E-1,-1.038549115E0,1.174486293E0
1.056765342E1,-6.398489682E-1,3.790203193E-1,-9.673785603E-1,1.220198502E0
1.057762342E1,-9.521093606E-1,3.083681202E-1,1.067303967E-1,1.006476284E0
1.058759242E1,-1.080163018E0,1.661808802E0,4.760165638E-1,2.038370037E0
1.059756242E1,-1.038448762E0,1.182559897E0,-6.518388301E-1,1.703442867E0
1.060753142E1,-6.373537420E-1,3.581665170E-1,-1.868530971E0,2.006467303E0
1.061750142E1,-8.111557223E-1,-6.235535091E-1,1.655586487E-1,1.036437287E0
1.062747142E1,-7.918032657E-1,-7.845919678E-1,1.622039841E0,1.968133688E0
1.063744042E1,-4.036499245E-1,-7.311124563E-2,1.447182366E0,1.504199227E0
1.064741042E1,-6.534647215E-2,-3.891772252E-1,5.700304359E-1,6.932991937E-1
1.065738042E1,-3.954856400E-1,-8.123563018E-1,1.690897822E-2,9.036689472E-1
1.066734942E1,-5.476730952E-1,-9.991213399E-1,6.857146740E-1,1.329809718E0
1.067731942E1,-6.622060896E-1,-7.724309286E-1,1.047524006E0,1.460298938E0
1.068728842E1,-9.334351811E-1,4.904486614E-1,2.489224023E-1,1.083422120E0
1.069725842E1,-5.320575942E-1,3.297072414E-1,-3.390636635E-1,7.118681876E-1
1.070722842E1,-6.340030682E-1,-2.278025517E-1,-3.766127282E-1,7.718102358E-1
1.071719742E1,-4.278090116E-1,-1.019599751E0,9.437698424E-2,1.109734751E0
1.072716742E1,-4.187268970E-1,-8.273655197E-1,1.046547521E0,1.398258786E0
1.073713642E1,-1.540378158E-2,-3.496646655E-1,8.105872267E-1,8.829237266E-1
1.074710642E1,-1.252486749E-1,4.533083171E-2,-1.056298338E0,1.064663465E0
1.075707642E1,-1.561997050E-1,-7.712652862E-2,-1.854059113E0,1.862225025E0
1.076704542E1,-1.501450593E-1,-6.996754861E-1,-8.154228741E-1,1.084898054E0
1.077701542E1,-6.611043280E-1,-1.408571739E0,9.909720755E-1,1.844765278E0
1.078698542E1,-1.100988023E0,-1.097658326E0,2.395631150E0,2.855884632E0
1.079695442E1,-1.169641351E0,7.765804052E-1,1.854598226E0,2.326085251E0
1.080692442E1,-9.306418200E-1,9.621020329E-1,2.095978889E0,2.486938283E0
1.081689342E1,-1.129314713E0,5.111811340E-1,1.455900564E0,1.912146523E0
1.082686342E1,-6.009773364E-1,-7.927049795E-1,-6.941826117E-1,1.213031097E0
1.083683342E1,-5.353512577E-1,-1.259010487E0,-1.740126700E0,2.213537736E0
1.084680242E1,-2.121681568E-1,-1.404046286E0,-3.973270744E-1,1.474527078E0
1.085677242E1,-1.380353661E-1,-1.244875136E-1,-3.046054369E-1,3.568408266E-1
1.086674142E1,2.979875400E-1,-2.376776218E-1,-3.314464957E-1,5.051178134E-1
1.087671142E1,4.751133517E-1,-8.899620098E-1,-2.189244318E-1,1.032324069E0
1.088668142E1,-3.462132368E-1,-1.811428818E0,3.511539513E-1,1.877351076E0
1.089665042E1,1.026274786E-1,-4.144219941E-1,-3.090966833E-1,5.270851432E-1
1.090662042E1,2.901721698E-1,6.913566524E-1,-9.187127692E-1,1.185836018E0
1.091659042E1,6.214865915E-1,6.779022092E-1,-6.309660244E-1,1.115309425E0
1.092655942E1,-9.908332589E-2,-5.043431076E-1,-3.945730358E-1,6.479717249E-1
1.093652942E1,1.125575948E-1,-1.284133342E-1,-1.818992776E-1,2.494925725E-1
1.094649842E1,7.169958890E-1,2.130487987E0,-1.474989384E-1,2.252735693E0
1.095646842E1,6.408372939E-1,2.783264710E0,5.239099377E-1,2.903741811E0
1.096643842E1,5.479661138E-1,2.561888249E0,1.313760599E0,2.930785760E0
1.097640742E1,5.903014170E-1,1.613024604E0,-6.675766110E-3,1.717657912E0
1.098637742E1,1.686531780E-1,1.460217564E0,-1.732980233E-1,1.480105210E0
1.099634642E1,-6.100916747E-2,1.465949589E0,-9.979039496E-1,1.774413314E0
1.100631642E1,2.076322067E-2,3.151356876E-1,-1.335123986E0,1.371968539E0
1.101628642E1,-6.534378243E-1,-9.820199883E-1,-1.743512238E0,2.105036620E0
1.102625542E1,-6.614424433E-1,-1.454699254E0,-8.584332383E-1,1.813991083E0
1.103622542E1,-7.986059895E-1,-2.411137966E0,2.224748027E0,3.376516193E0
1.104619542E1,-7.513407527E-1,-2.232162296E0,4.083933393E0,4.714400641E0
1.105616442E1,-4.687266573E-1,-1.258822500E0,3.169865068E0,3.442729050E0
1.106613442E1,-3.562260454E-1,-9.697937527E-1,2.608793736E-2,1.033478349E0
1.107610342E1,-4.909085632E-2,-6.423502609E-1,-2.404549908E0,2.489354139E0
1.108607342E1,1.521916488E-1,-1.623665952E0,-2.478165768E0,2.966607321E0
1.109604342E1,3.386072518E-1,-2.498851756E0,-7.434658688E-1,2.629002941E0
1.110601242E1,2.287263752E-1,-1.312310197E0,1.598251614E0,2.080596556E0
1.111598242E1,4.344307641E-1,3.061637199E-1,2.700117888E0,2.751927129E0
1.112595242E1,-8.316119322E-2,1.710547975E0,1.492975420E0,2.271973980E0
1.113592142E1,-9.016828267E-1,1.384293222E-1,2.244447881E0,2.422754814E0
1.114589142E1,-5.080065344E-1,-6.658382338E-1,2.268407432E0,2.418074331E0
1.115586042E1,-6.159451121E-1,-1.803360245E-1,5.189216781E-1,8.253418509E-1
1.116583042E1,-7.000324586E-1,-2.662652439E-1,1.512974651E0,1.688204644E0
1.117580042E1,1.023804995E0,6.168520153E-2,-1.984306426E0,2.233708514E0
1.118576942E1,-1.046462225E0,-1.779930452E-1,-3.297711514E0,3.464342065E0
1.119573942E1,-1.404010472E0,-1.844369107E0,-1.758841299E0,2.909719148E0
1.120570842E1,-1.344334447E-1,-1.596361502E0,-7.105735266E-1,1.752528782E0
1.121567842E1,-5.266521814E-2,9.993563980E-2,-1.403374441E0,1.407913555E0
1.122564842E1,6.141609073E-1,1.032308382E0,-1.267616712E0,1.746340844E0
1.123561742E1,-2.728801076E-1,-9.676276517E-1,1.254859257E0,1.607929905E0
1.124558742E1,3.223958829E-1,-2.458577888E0,5.966756129E-1,2.550405090E0
1.125555742E1,1.295539213E0,3.201879743E-1,-1.112636261E1,1.120610937E1
1.126552642E1,7.270497378E-1,-7.642492121E-1,-1.279174318E1,1.283516154E1
1.127549642E1,-4.709678585E-1,-4.766588804E0,-4.518114883E0,6.584492513E0
1.128546542E1,-1.384015334E0,-6.116971099E0,1.799314205E1,1.905481553E1
1.129543542E1,-1.364193857E0,3.430391269E0,2.274246695E1,2.304014783E1
1.130540542E1,2.684881799E0,1.021580144E1,5.783268748E0,1.204231651E1
1.131537442E1,2.647634743E0,2.730565217E0,-8.167215992E0,9.009404708E0
1.132534442E1,-2.830283926E0,-3.370998761E0,-4.669465383E0,6.417012288E0
1.133531442E1,-7.001992504E-1,1.571972180E0,-1.302341571E0,2.158117025E0
1.134528342E1,-1.122236000E0,4.324285824E0,-7.956645477E-1,4.537834682E0
1.135525342E1,-8.102037956E-1,4.548408723E-1,9.712225199E-1,1.344092107E0
1.136522242E1,-4.159232667E-1,-1.537027465E0,-2.638910989E0,3.082092926E0
1.137519242E1,-1.003818993E0,2.908016226E-1,6.805585992E-1,1.247148011E0
1.138516242E1,-4.512136982E-1,2.003690238E0,5.007887607E0,5.412698648E0
1.139513142E1,5.610015675E-1,9.268994558E-1,4.694887322E0,4.818281055E0
1.140510142E1,1.445165661E-1,2.843556520E-1,2.932121372E-1,4.332626595E-1
1.141507142E1,4.937463083E-1,4.912044141E-1,-1.765250432E0,1.897676548E0
1.142504042E1,-5.854073706E-1,-1.877583046E0,-1.008568686E-1,1.969312568E0
1.143501042E1,-1.468669367E-1,-4.057854519E0,-3.423051844E0,5.310841470E0
1.144497942E1,-1.058041247E0,-2.798525358E0,-8.629630178E0,9.133548733E0
1.145494942E1,-4.703788246E-1,6.336085566E0,-6.311568190E0,8.955619998E0
1.146491942E1,2.795635482E-1,9.561143087E0,2.826690227E-1,9.569405137E0
1.147488842E1,6.997294267E-1,1.047339527E0,7.209187714E0,7.318396604E0
1.148485854E1,3.491555557E-1,-8.287151155E0,6.835209156E0,1.074797042E1
1.149482754E1,-7.077719794E-1,-6.231024549E0,2.775889617E-1,6.277233765E0
1.150479754E1,-1.265296683E0,-4.160311478E-1,-3.553596196E0,3.795010347E0
1.151476754E1,1.310921483E0,-9.727389953E-1,1.056702965E-1,1.635818602E0
1.152473654E1,8.954178274E-1,-4.440151033E0,1.757371894E0,4.858504941E0
1.153470654E1,-1.636369467E0,-4.368642217E0,2.837039798E0,5.459994018E0
1.154467654E1,-1.957723083E0,8.361325425E-1,3.079866478E0,3.743978475E0
1.155464554E1,-6.099541280E-1,3.377015254E0,1.701460233E0,3.830305860E0
1.156461554E1,-5.645800635E-1,-1.247678876E-2,-4.303176498E-1,7.099856323E-1
1.157458454E1,-1.670683632E-1,-2.390874148E0,-6.717667843E0,7.132408588E0
1.158455454E1,-3.702716787E-1,-4.374680637E0,-5.712374766E0,7.204592790E0
1.159452454E1,-5.994648810E-1,-5.632054489E0,8.470862485E0,1.018994147E1
1.160449354E1,-5.149099400E-1,-1.962396617E0,1.180671422E1,1.197975932E1
1.161446354E1,-3.015182761E-2,3.660361969E0,2.947930489E0,4.699941813E0
1.162443354E1,-8.039846239E-1,2.217250434E0,-1.963604359E0,3.068930244E0
1.163440254E1,-2.593352335E-1,-2.224027065E0,-2.760008579E-1,2.256042469E0
1.164437254E1,2.846897656E-1,-1.073347065E-1,-3.229709566E-1,4.437107624E-1
1.165434154E1,-6.497674540E-1,3.906516007E0,-4.479544895E0,5.979079153E0
1.166431154E1,-1.143149956E0,5.032616651E0,-6.061927750E0,7.961217886E0
1.167428154E1,-4.625046717E-1,2.336851430E-1,-4.110389705E0,4.142924432E0
1.168425054E1,-1.396072438E-1,-4.152005509E0,8.397888064E-2,4.155200642E0
1.169422054E1,1.287799400E0,-2.502798334E-1,2.243581908E0,2.598985777E0
1.170419054E1,7.364804196E-1,3.798135233E0,-3.346396601E-1,3.883325683E0
1.171415954E1,-5.482918403E-1,3.930916730E0,-2.346484718E0,4.610718036E0
1.172412954E1,1.559302397E-1,3.612582323E-1,-3.214477569E0,3.238469977E0
1.173409854E1,5.700397549E-2,-1.535162788E0,-1.386503470E0,2.069387859E0
1.174406854E1,-9.333002566E-1,-2.613048754E0,7.027776679E0,7.555707658E0
1.175403854E1,-1.448926590E0,-6.122023094E-1,8.480316263E0,8.624960513E0
1.176400754E1,-8.816955817E-1,4.777434512E0,-2.122998873E0,5.301734794E0
1.177397754E1,-2.729276710E-1,6.163969849E0,-3.728229139E0,7.208932399E0
1.178394654E1,-2.709537972E-1,3.835254820E0,-4.675790316E-1,3.873141573E0
1.179391654E1,-1.807837750E0,-3.234773254E0,-6.192856264E-1,3.757066678E0
1.180388654E1,-7.151956044E-1,-5.164229289E0,-1.139025915E0,5.336492194E0
1.181385554E1,-6.105533306E-2,-1.477909776E0,-2.749793494E0,3.122388400E0
1.182382554E1,-4.383699967E-1,3.593453157E-1,1.166968004E0,1.297347923E0
1.183379554E1,6.964236302E-1,-2.730743265E-1,1.804812693E0,1.953695042E0
1.184376454E1,-1.075760430E0,-1.602464533E0,1.730346063E0,2.592151728E0
1.185373454E1,1.810813138E-2,-1.238709247E0,8.103702950E-1,1.480347432E0
1.186370354E1,1.128860439E-1,6.921059731E-1,8.484239745E-1,1.100716665E0
1.187367354E1,-2.455810840E-1,2.672271109E-1,-8.411512077E-1,9.161090283E-1
1.188364354E1,-7.239642352E-1,-1.907165572E0,-5.882649779E-1,2.123078052E0
1.189361254E1,6.973297293E-1,-5.632501801E0,1.859320437E0,5.972304227E0
1.190358254E1,7.192166615E-1,-6.110521621E-1,-2.827607070E0,2.980942652E0
1.191355254E1,1.034763993E0,1.775991182E0,3.963459116E-1,2.093315858E0
1.192352154E1,1.557125954E0,1.152803709E0,3.308621834E0,3.834133027E0
1.193349154E1,1.204064860E0,-2.709942380E0,2.495184090E0,3.875500423E0
1.194346054E1,9.024253500E-1,-4.078268026E0,2.919771468E0,5.096244405E0
1.195343054E1,6.708555834E-1,-3.549630907E0,1.389628222E0,3.870528825E0
1.196340054E1,1.016755665E0,-1.022702576E0,-1.282565119E0,1.929944539E0
1.197336954E1,5.713614084E-1,-3.487536985E0,2.063585315E0,4.092401793E0
1.198333954E1,6.377143691E-1,-1.741634697E0,-1.251240415E0,2.237313928E0
1.199330954E1,1.266036794E0,2.233447807E0,-7.387524283E-1,2.671496476E0
1.200327854E1,1.327682673E0,7.008186167E-1,-1.755095572E0,2.309599204E0
1.201324854E1,5.353791782E-1,-1.306876672E0,-9.908171242E-1,1.725188707E0
1.202321754E1,3.366942986E-1,-2.346277726E0,7.048309761E-1,2.472886759E0
1.203318754E1,7.694332074E-1,3.759353283E-1,-4.216538304E-1,9.545400905E-1
1.204315754E1,1.309139252E0,2.035626268E0,6.671731532E-2,2.421171428E0
1.205312654E1,1.540479954E0,2.252391031E0,-1.071558402E0,2.931651625E0
1.206309654E1,1.568522469E0,5.908848229E-1,-3.267578473E0,3.672393863E0
1.207306654E1,1.796199452E0,1.089828612E0,-4.136993367E0,4.639910882E0
1.208303554E1,1.392028796E0,3.119900025E0,-1.273750441E0,3.646088387E0
1.209300554E1,4.998959347E-1,1.279148883E0,1.194766252E0,1.820325303E0
1.210297454E1,6.926572193E-1,2.143449802E0,1.223760256E0,2.563540567E0
1.211294454E1,5.144286045E-1,8.274924043E-1,6.066860461E-1,1.147801562E0
1.212291454E1,2.523571664E-1,8.463581532E-1,7.973643333E-1,1.189872322E0
1.213288354E1,6.564324027E-1,-8.876921207E-2,1.041615395E0,1.234401111E0
1.214285354E1,7.435578894E-2,-6.268656644E-1,-9.165159702E-2,6.378787971E-1
1.215282354E1,1.236389364E0,-6.783954218E-1,-2.142196451E0,2.564738709E0
1.216279254E1,2.177384411E0,-2.117303685E0,4.311771905E-1,3.067554651E0
1.217276254E1,4.156971256E-1,-3.374472300E0,2.490004041E0,4.214260021E0
1.218273154E1,-1.276323801E0,-3.959636499E0,1.172065022E0,4.322205463E0
1.219270154E1,-1.677036121E0,-1.245671234E0,1.481255845E0,2.560911137E0
1.220267154E1,-9.976158281E-1,5.659914717E-1,2.647930904E0,2.885675269E0
1.221264054E1,-1.103816613E0,-1.029694676E0,2.727272358E0,3.117161651E0
1.222261054E1,-1.800300835E0,-2.572365290E0,2.392599369E0,3.947490091E0
1.223258054E1,-2.255265522E0,-1.123269130E0,-1.118227369E0,2.756517470E0
1.224254954E1,-1.927171235E0,5.994390070E-1,-1.330928024E0,2.417578437E0
1.225251954E1,-2.222160926E0,4.954483232E-1,-1.051688978E0,2.507891132E0
1.226248854E1,-1.074205217E0,-1.376648573E0,-1.712368798E-1,1.754537036E0
1.227245854E1,-1.495209056E0,-1.626462968E0,2.647055576E0,3.447888503E0
1.228242854E1,-2.094628329E-1,2.433055669E-2,5.079994301E0,5.084369061E0
1.229239754E1,2.914923615E-1,1.574653421E0,4.308633705E0,4.596610229E0
1.230236754E1,5.625430763E-1,3.041181592E0,1.890888970E0,3.625010522E0
1.231233754E1,2.830595436E-1,4.156548795E-1,-1.325785983E-1,5.200661196E-1
1.232230654E1,4.881258550E-1,-1.609520368E0,-1.742950906E0,2.422127273E0
1.233227654E1,1.035276063E0,-8.418999436E-1,-2.425745480E0,2.768543512E0
1.234224554E1,1.258456902E0,-3.957658678E-2,-3.020442395E0,3.272361891E0
1.235221554E1,1.431076795E0,-1.129527113E-1,-2.487803149E0,2.872264545E0
1.236218554E1,1.310623275E0,6.314150906E-1,-1.913300763E0,2.403567805E0
1.237215454E1,6.145285510E-1,5.690919578E-2,-1.464598882E0,1.589318685E0
1.238212454E1,3.280632967E-1,7.458749217E-1,-2.865832073E0,2.979420816E0
1.239209454E1,7.340154527E-1,7.779243878E-1,-2.602698598E0,2.813891439E0
1.240206354E1,5.933186168E-1,-1.720912750E0,-2.372384959E-1,1.835715059E0
1.241203354E1,2.810183172E-1,-7.872925043E-1,1.089768385E0,1.373461290E0
1.242200254E1,4.880305089E-1,-6.863403261E-2,1.108181267E0,1.212827329E0
1.243197254E1,3.778010286E-1,1.070062684E0,1.223905267E0,1.669045196E0
1.244194254E1,6.022596673E-1,2.126365115E0,1.132326760E0,2.483205428E0
1.245191154E1,9.672274829E-1,2.126780852E0,1.024067316E0,2.550968378E0
1.246188154E1,1.374121406E0,3.450631991E0,2.036944231E0,4.236060974E0
1.247185154E1,1.322675849E0,1.252970898E0,2.150252745E0,2.818331837E0
1.248182067E1,1.281445523E0,-2.112853369E-1,-8.688377738E-1,1.562569422E0
1.249179067E1,1.164174351E0,3.514799336E-1,-3.957497295E0,4.140123779E0
1.250175967E1,8.421485965E-1,-9.075323081E-1,-2.259477564E0,2.576444840E0
1.251172967E1,3.147621967E-1,-1.798718140E0,2.149301403E0,2.820276353E0
1.252169967E1,-6.596219127E-1,-1.565226248E0,3.066528395E0,3.505514323E0
1.253166867E1,-3.110054703E-1,-1.236824397E0,-1.622766650E0,2.063935705E0
1.254163867E1,-5.582886787E-1,-1.433893106E0,-5.418700699E0,5.632943543E0
1.255160867E1,-9.740265521E-1,-3.440017248E0,-4.671813040E0,5.882880542E0
1.256157767E1,-1.363621561E0,-4.648580590E0,-3.871503464E0,6.201395354E0
1.257154767E1,-2.945551696E-1,-4.103507240E0,-9.711582005E-2,4.115211526E0
1.258151667E1,-1.025030352E0,-1.950396084E0,1.679262448E0,2.770316674E0
1.259148667E1,-7.398938779E-2,-1.095990407E-1,1.079808823E0,1.087875670E0
1.260145667E1,4.352649425E-1,-6.528533220E-1,-1.375615954E-1,7.966154799E-1
1.261142567E1,7.075582637E-1,-6.429346901E-1,-4.998324485E0,5.088934208E0
1.262139567E1,4.015113419E-1,-2.143217960E0,1.840639753E0,2.853515250E0
1.263136567E1,1.082621334E0,-1.177929195E0,9.274027256E0,9.411013107E0
1.264133467E1,4.806743827E-1,2.439543155E0,7.919163655E0,8.300335635E0
1.265130467E1,-2.308727419E-2,3.428665756E0,4.082327163E0,5.331198454E0
1.266127367E1,4.058115305E-1,-4.574984318E-1,3.103044257E0,3.162731647E0
1.267124367E1,-1.066373529E0,-2.749297357E0,-2.588233171E0,3.923613056E0
1.268121367E1,-1.349062834E-1,-2.265557791E0,-3.563489685E0,4.224856275E0
1.269118267E1,6.760971737E-1,2.041326134E0,-2.224458005E0,3.093918743E0
1.270115267E1,1.492807495E-1,1.849760532E0,1.434545948E0,2.345596053E0
1.271112267E1,7.049244585E-1,-2.062671687E0,2.813920493E0,3.559449609E0
1.272109167E1,-1.344511837E0,-1.357545719E0,2.034524068E0,2.791044723E0
1.273106167E1,-1.449665093E0,1.708117872E-1,7.489166433E-1,1.640604062E0
1.274103067E1,-7.533887400E-1,3.902230875E0,8.945976824E-1,4.073733595E0
1.275100067E1,5.776485174E-1,2.757700099E0,4.355959314E-1,2.851022880E0
1.276097067E1,1.895986280E0,1.063929539E0,-1.335605212E0,2.551578202E0
1.277093967E1,1.627485061E0,1.149348004E0,-1.384563364E0,2.426257234E0
1.278090967E1,6.255750377E-1,8.218559808E-1,-2.179648452E0,2.411982329E0
1.279087967E1,9.805513139E-1,2.035816303E-1,-2.538918339E0,2.729291610E0
1.280084867E1,1.004568460E0,2.593052446E0,-3.769040950E0,4.683881773E0
1.281081867E1,1.473851224E0,5.475146796E0,-3.290523532E0,6.555685698E0
1.282078767E1,1.332168511E0,3.879177350E0,1.878269509E0,4.511162400E0
1.283075767E1,5.225598887E-1,-2.650296103E0,4.920224395E0,5.612997984E0
1.284072767E1,5.148885611E-1,-1.275203182E0,9.480944431E-1,1.670370156E0
1.285069667E1,-1.217263487E-1,-4.552957857E-1,-2.537651247E0,2.581043473E0
1.286066667E1,-9.113108519E-2,-7.158868915E-1,-1.071965368E0,1.292249460E0
1.287063667E1,1.800210350E0,6.288806149E-1,-7.512502670E-1,2.049542655E0
1.288060567E1,8.995157754E-1,4.197306812E-2,6.927781105E-3,9.005211618E-1
1.289057567E1,2.005019457E0,-1.684667322E0,1.432614028E0,2.985061132E0
1.290054467E1,2.460762700E0,-2.962460820E0,4.361903009E0,5.818739128E0
1.291051467E1,-6.726085056E-2,-2.206861102E0,2.648726125E0,3.448261886E0
1.292048467E1,4.725555603E-1,-1.112249175E0,1.039929058E0,1.594320994E0
1.293045367E1,-2.988913551E-1,-7.905602208E-1,2.231124415E0,2.385841081E0
1.294042367E1,-4.063979331E-2,-2.201723153E0,2.174684166E0,3.094913191E0
1.295039367E1,-1.280416267E0,-1.186416720E0,1.301613593E0,2.177440791E0
1.296036267E1,-1.899850559E0,4.571060836E-3,3.322504878E-1,1.928689562E0
1.297033267E1,-2.353099088E0,-1.025038246E0,-1.770846802E-1,2.572768491E0
1.298030167E1,-1.034920187E0,-9.530125362E-1,-1.148457474E0,1.816107721E0
1.299027167E1,-1.211892893E0,-9.692189714E-1,5.967609823E-2,1.552942702E0
1.300024167E1,-7.862316732E-1,-1.004050543E0,-2.297841146E0,2.627993849E0
1.301021067E1,1.037646890E-1,-6.254404056E-1,-2.131710055E0,2.223989786E0
1.302018067E1,-1.319651230E0,-1.516798438E0,1.844743913E0,2.728596155E0
1.303015067E1,-3.744315706E-2,-3.919412041E-1,2.034083773E0,2.071838964E0
1.304011967E1,1.263861228E-1,1.563586396E0,-1.335420440E0,2.060127089E0
1.305008967E1,-4.547186289E-1,1.179633658E0,-2.461017639E0,2.766751239E0
1.306005867E1,-5.691150543E-1,-2.466039813E-1,-2.341553761E0,2.422308709E0
1.307002867E1,-7.911657000E-1,-6.199095243E-1,5.269487357E-1,1.134859442E0
1.307999867E1,-1.147780804E0,6.106691694E-1,5.991092241E-1,1.431519987E0
1.308996767E1,-2.398476698E0,9.711868519E-1,1.378890395E-1,2.591313906E0
1.309993767E1,-1.485084310E0,4.353623351E-1,-2.151357869E0,2.650161589E0
1.310990767E1,-1.072212851E0,-8.660688248E-1,-1.853121804E0,2.309496921E0
1.311987667E1,-1.612501279E-1,-7.733682373E-1,-2.325694942E-1,8.235220725E-1
1.312984667E1,5.357469315E-2,-7.042143872E-1,1.941735188E0,2.066185783E0
1.313981567E1,-4.986651323E-1,-1.192651899E0,4.629293257E-1,1.373094690E0
1.314978567E1,-1.487580048E0,-1.885042047E0,-2.339242941E-1,2.412674551E0
1.315975567E1,-5.726101544E-2,-2.775047618E0,-1.151345998E-1,2.778025213E0
1.316972467E1,7.736358936E-1,-1.582246031E0,-1.198014380E0,2.130082968E0
1.317969467E1,7.275425119E-1,-3.449556103E-1,9.106085283E-1,1.215532958E0
1.318966467E1,2.751592390E0,8.092610782E-1,1.946210647E0,3.466107334E0
1.319963367E1,2.371629353E0,1.221067028E0,2.099555047E0,3.394666680E0
1.320960367E1,1.541595456E0,2.960353484E0,-2.651343924E-1,3.348209304E0
1.321957267E1,1.092397440E0,1.345227390E0,-2.418764489E0,2.975464762E0
1.322954267E1,1.069828357E0,1.514484403E-1,-2.054399924E0,2.321212698E0
1.323951267E1,2.930052372E-1,5.555194008E-1,-1.545024410E0,1.667799239E0
1.324948167E1,-1.247133769E0,1.958765496E0,-1.246213564E0,2.635365848E0
1.325945167E1,-1.305764678E0,1.050230975E0,9.822971463E-1,1.942399078E0
1.326942167E1,-1.164703816E0,-1.175923600E0,3.939925827E0,4.273446714E0
1.327939067E1,-1.383829246E0,-1.443111826E0,2.856105815E0,3.486387177E0
1.328936067E1,-1.617277138E0,1.016954763E0,9.731538552E-1,2.144017434E0
1.329932967E1,-2.014665608E0,7.211300898E-1,4.137261754E-1,2.179466785E0
1.330929967E1,-1.635853742E0,-1.013082152E0,5.228580236E-3,1.924157023E0
1.331926967E1,-1.096355493E0,-1.783294355E0,-5.118705207E-1,2.155027970E0
1.332923867E1,-4.062580568E-2,-8.785988232E-1,-2.557078621E0,2.704114906E0
1.333920867E1,-8.772274319E-1,-1.088496616E0,4.824338830E-1,1.478883126E0
1.334917867E1,-5.848175692E-1,-3.992817986E-1,1.415884559E0,1.583087688E0
1.335914767E1,-6.683708822E-1,1.116610613E0,-7.334478343E-1,1.493815458E0
1.336911767E1,-2.555672512E-1,1.255362117E0,-1.891640922E0,2.284634335E0
1.337908667E1,-2.988314394E-1,-6.333543196E-1,3.337122917E-1,7.757588652E-1
1.338905667E1,-1.031054081E0,-1.305528304E0,1.868582427E0,2.501814733E0
1.339902667E1,-7.863775064E-2,-4.348334545E-1,-1.097036474E0,1.182688909E0
1.340899567E1,-7.060926591E-1,-4.510764349E-1,-3.891263545E-1,9.238268848E-1
1.341896567E1,-1.044749868E0,-1.312592325E0,4.355374593E-1,1.733232176E0
1.342893567E1,3.136420894E-2,-7.655841315E-1,9.529347682E-1,1.222778577E0
1.343890467E1,4.694956027E-1,1.573158288E-1,1.170222564E0,1.270667242E0
1.344887467E1,2.536819262E-1,6.629690051E-1,7.070067251E-1,1.001868719E0
1.345884367E1,4.762220569E-1,1.886358547E-1,-8.217834753E-1,9.683486012E-1
1.346881367E1,5.834558989E-1,-3.022330461E0,-1.451002352E0,3.402985458E0
1.347878329E1,7.072948466E-1,-2.533214673E0,-1.263966295E0,2.918056437E0
1.348875229E1,1.209328962E0,-2.828230383E0,1.613683586E0,3.473519592E0
1.349872229E1,1.116796701E0,-1.208361613E0,1.075848504E0,1.965915223E0
1.350869229E1,1.336357456E0,-1.133877441E-1,1.034537340E0,1.693805048E0
1.351866129E1,1.193202560E0,1.537981439E-1,4.550870401E-1,1.286269969E0
1.352863129E1,6.484399898E-1,1.398803088E-1,-6.282605177E-1,9.136477436E-1
1.353860029E1,9.253116444E-1,1.437292385E-1,-1.976220312E0,2.186848521E0
1.354857029E1,1.126141210E0,-7.066249019E-1,-2.840329442E0,3.136077823E0
1.355854029E1,2.132250228E-2,1.039538172E0,-3.581502618E0,3.729377329E0
1.356850929E1,8.592455992E-2,1.007629916E0,-9.880127996E-1,1.413814121E0
1.357847929E1,3.771727453E-1,4.102064440E-1,3.638636931E0,3.681060625E0
1.358844929E1,-2.932592621E-1,4.224151379E-1,6.260409731E0,6.281493895E0
1.359841829E1,3.704876237E-1,2.140351655E0,4.014125825E0,4.564161744E0
1.360838829E1,1.421585302E0,4.421447252E0,4.154066652E-1,4.662902881E0
1.361835729E1,3.067363085E-1,1.856583356E0,3.749334079E-1,1.918740206E0
1.362832729E1,1.045849949E0,6.827752787E-1,5.360557741E-1,1.359168860E0
1.363829729E1,1.523357114E0,5.647761279E-1,-1.931142372E0,2.523667932E0
1.364826629E1,9.465088975E-1,1.313401287E0,-4.402702541E0,4.690915870E0
1.365823629E1,6.051789263E-1,6.339232537E-1,-5.720487193E0,5.787233705E0
1.366820629E1,-6.630692118E-1,-2.262377198E0,-2.198746628E0,3.223739770E0
1.367817529E1,-6.981318942E-1,-2.823112900E0,-6.822004974E-2,2.908953173E0
1.368814529E1,-8.895942199E-1,-1.634875357E0,6.743833548E-1,1.979643457E0
1.369811429E1,-7.105652674E-1,-1.491969991E0,1.431276770E0,2.186190899E0
1.370808429E1,-1.394462846E0,-2.667605908E0,1.840881243E0,3.528383717E0
1.371805429E1,-1.159646778E0,-1.832385531E0,1.796231904E0,2.815824291E0
1.372802329E1,-9.331650397E-1,-1.213925824E0,1.687126953E0,2.278334974E0
1.373799329E1,-2.027561496E0,3.234597838E-1,2.868058693E0,3.527235818E0
1.374796329E1,-7.648981069E-1,1.547160398E0,2.203232027E0,2.798750753E0
1.375793229E1,-1.123448567E0,1.480362976E0,1.095239040E0,2.157118397E0
1.376790229E1,-1.281404593E0,9.463177666E-1,-3.439718163E-1,1.629672254E0
1.377787129E1,1.169701139E-1,1.774251928E0,-7.951096469E-1,1.947781113E0
1.378784129E1,7.033599629E-1,-1.855408358E0,-7.573518366E-1,2.123873164E0
1.379781129E1,7.356659024E-1,-3.049747763E0,2.635930663E-1,3.148276837E0
1.380778029E1,8.006389202E-1,-2.997644978E0,-1.516294116E-1,3.106427140E0
1.381775029E1,1.304104215E0,-1.716206034E0,-2.407988656E-1,2.168878753E0
1.382772029E1,1.087201604E0,-2.401368438E0,4.870730639E-3,2.636019997E0
1.383768929E1,-7.349180801E-2,-3.086987218E0,-2.434382987E-1,3.097443031E0
1.384765929E1,6.879351541E-1,-1.673879794E0,1.905598226E0,2.628009311E0
1.385762829E1,-2.389057199E-2,1.073463424E0,2.868845143E0,3.063195544E0
1.386759829E1,-1.110732481E0,2.238100436E0,1.917861591E0,3.149764005E0
1.387756829E1,-1.891775810E-1,5.696152836E-2,-1.104613881E0,1.122142860E0
1.388753729E1,-3.157337847E-1,-7.097642720E-1,-3.865364472E0,3.942650840E0
1.389750729E1,6.401963659E-1,3.774480030E-1,-2.632229961E0,2.735133077E0
1.390747729E1,5.520907032E-1,-3.803438365E-2,1.173492912E0,1.297434535E0
1.391744629E1,2.117885081E-1,1.565385292E0,1.129133595E0,1.941707537E0
1.392741629E1,2.412677757E-1,1.915047618E0,-1.131092412E0,2.237182953E0
1.393738529E1,8.014202910E-2,2.324306229E-1,3.050480711E-1,3.917921196E-1
1.394735529E1,8.276599270E-1,8.312083098E-1,1.136384143E0,1.633186189E0
1.395732529E1,9.367509178E-1,6.620501152E-1,-1.288620495E0,1.725211702E0
1.396729429E1,3.917320199E-1,2.846626601E0,-3.410477992E0,4.459607282E0
1.397726429E1,1.090052195E-1,8.611384526E-1,-9.391318309E-1,1.278831564E0
1.398723429E1,-2.705171564E-1,2.271418163E-1,1.600137341E-1,3.877851618E-1
1.399720329E1,-5.275631684E-1,1.557860802E0,-1.123958225E0,1.992118286E0
1.400717329E1,-8.371510544E-1,1.052139214E0,-1.581090621E0,2.075491837E0
1.401714329E1,-1.403522083E0,1.445420307E0,-1.160750660E0,2.325178745E0
1.402711229E1,-1.741358124E0,-2.799795666E0,2.969097995E0,4.436972705E0
1.403708229E1,-7.973775626E-1,-1.299685474E0,3.590250052E0,3.900626712E0
1.404705129E1,-1.383894735E0,-1.623205776E0,4.419516209E0,4.907350115E0
1.405702129E1,-2.142529889E0,-1.555710781E0,4.073801338E0,4.858654927E0
1.406699129E1,-9.485456289E-1,-7.262016723E-1,-5.328304499E-1,1.308058090E0
1.407696029E1,-7.440616270E-1,1.364731362E-1,-1.603037560E0,1.772563692E0
1.408693029E1,-2.750514529E-1,5.024591348E-1,-4.508261740E-2,5.745876140E-1
1.409689929E1,-2.737184339E-1,-9.259454826E-1,-2.219895422E-2,9.658103392E-1
1.410686929E1,-3.116389795E-1,-8.530751422E-1,-2.294495954E0,2.467704953E0
1.411683929E1,3.370892415E-1,1.361117783E-1,-2.634587558E0,2.659550182E0
1.412680829E1,-5.269598820E-1,-1.340297602E0,9.287255412E-1,1.713655599E0
1.413677829E1,-7.446741959E-1,-5.299691150E-1,-4.306006551E-2,9.150197212E-1
1.414674829E1,-1.865969672E-1,-2.380842372E0,2.308207090E0,3.321302275E0
1.415671729E1,-3.159346000E-1,-1.031021410E0,1.988488939E0,2.262058373E0
1.416668729E1,-2.482954346E-1,1.297890963E0,-6.111673522E-1,1.455917961E0
1.417665729E1,-7.041282870E-1,-1.628841323E-1,-6.914122009E-1,1.000189340E0
1.418662629E1,-8.031358275E-1,-1.865080822E0,-2.592816803E0,3.293364937E0
1.419659629E1,-3.329599012E-1,-2.080034702E0,-1.724713440E0,2.722506769E0
1.420656529E1,-3.580486225E-1,2.941935924E-1,-9.763382488E-1,1.080733576E0
1.421653529E1,-2.381395519E-1,2.096085894E0,-1.024372541E0,2.345128061E0
1.422650529E1,1.485924409E0,2.139393881E-1,-1.288803513E0,1.978574210E0
1.423647429E1,6.785651372E-1,-3.333030159E0,1.182038033E-1,3.403456012E0
1.424644429E1,1.003884336E0,-3.359080966E0,4.231546353E0,5.495197288E0
1.425641429E1,9.578058643E-1,-4.139761439E-1,1.224877074E0,1.609065619E0
1.426638329E1,-1.321045499E0,-9.774001032E-1,-1.389887254E0,2.152268280E0
1.427635329E1,1.966690666E0,-1.515015037E0,-9.884823310E-1,2.672122762E0
1.428632229E1,-8.176845771E-1,-2.517617517E0,2.705924174E0,3.785370743E0
1.429629229E1,-3.204050110E-2,6.513880098E-1,4.663098350E0,4.708483742E0
1.430626229E1,-3.158952774E-1,4.241155667E0,2.577292446E0,4.972889257E0
1.431623129E1,-9.584143767E-2,2.840403117E0,6.403712708E-1,2.913271497E0
1.432620129E1,-6.729294446E-1,2.424570482E0,8.527000433E-1,2.656778768E0
1.433617129E1,5.584916502E-1,5.980593565E-1,3.432564095E0,3.528751080E0
1.434614029E1,7.919650143E-1,2.554619282E0,1.158567894E0,2.914715737E0
1.435611029E1,-8.219106522E-1,3.154961392E0,-3.237031449E0,4.594310733E0
1.436607929E1,-1.397359831E-1,3.464824353E0,-6.579049070E0,7.436963131E0
1.437604929E1,-6.553756647E-2,-4.028950855E-1,-5.563183059E0,5.578138164E0
1.438601929E1,-1.457787150E-2,-1.304161810E0,-2.032455323E0,2.414937925E0
1.439598829E1,4.914545653E-1,-2.251730296E0,1.241895980E-1,2.308081448E0
1.440595829E1,1.570422961E0,-7.616410616E-1,-1.524152774E0,2.317189474E0
1.441592829E1,9.828433494E-1,5.345349133E-1,-2.313310540E-1,1.142463426E0
1.442589729E1,1.945272717E-2,-1.314742639E0,2.299378379E0,2.648786051E0
1.443586729E1,-1.173051082E0,-1.239086685E0,1.986168180E0,2.618443945E0
1.444583629E1,-2.748436757E-1,-9.445416749E-1,-1.706887618E0,1.970066842E0
1.445580629E1,-5.264282056E-2,-3.021408355E-1,1.459429944E0,1.491306847E0
1.446577629E1,-3.164875638E-1,-3.722317019E-1,3.091669083E0,3.130038105E0
1.447574529E1,-5.817711881E-2,1.156122296E0,-1.398379165E0,1.815342290E0
1.448571554E1,9.192325501E-2,-1.706855751E0,-1.664561378E0,2.385910942E0
1.449568554E1,7.291051072E-1,-3.404724624E0,3.816561856E0,5.166225743E0
1.450565454E1,-5.507072885E-1,-2.877676193E0,4.891986437E0,5.702265347E0
1.451562454E1,-1.234867773E0,-7.278543878E-1,3.598074211E0,3.873087716E0
1.452559354E1,-7.264443683E-2,4.427169630E-1,2.847104611E0,2.882235276E0
1.453556354E1,-7.136753283E-1,-1.617576954E0,1.871049367E0,2.574240356E0
1.454553354E1,-6.288514519E-1,-4.061904301E0,3.777915269E-1,4.127620033E0
1.455550254E1,-7.819595513E-1,-2.336647070E0,3.580565894E-1,2.489896542E0
1.456547254E1,-3.288020924E-1,1.617515851E0,-1.105580426E0,1.986649547E0
1.457544254E1,-4.222200419E-2,1.579299619E0,-3.010531949E0,3.399893028E0
1.458541154E1,3.352285844E-1,-3.476533987E0,-2.384036121E0,4.228746267E0
1.459538154E1,-3.876056764E-1,-3.145334828E0,-2.428535771E-1,3.178418979E0
1.460535054E1,-3.930407364E-1,8.192943156E-1,-6.829372466E-2,9.112564013E-1
1.461532054E1,-4.374419339E-1,1.621889860E0,2.516311249E0,3.025508960E0
1.462529054E1,-1.521983603E0,3.914339581E-1,2.257543305E0,2.750664721E0
1.463525954E1,-1.032429712E0,5.974720037E-1,-1.984046225E0,2.315021237E0
1.464522954E1,-1.800358723E0,1.718320094E0,-1.383106238E0,2.847261551E0
1.465519954E1,-1.522814931E0,1.448492727E0,-1.063908489E0,2.355631076E0
1.466516854E1,-9.966285988E-1,9.312304884E-2,-3.544661651E0,3.683282053E0
1.467513854E1,-1.759942658E-1,1.478270257E0,-5.534158650E0,5.730895994E0
1.468510754E1,4.798942179E-1,2.486836897E0,-1.176925228E0,2.792813850E0
1.469507754E1,-6.687708135E-2,1.711737884E0,3.665348182E0,4.045898716E0
1.470504754E1,5.096028243E-1,5.508924991E-1,3.600420114E0,3.677798606E0
1.471501654E1,1.006991619E0,1.489666480E0,-1.452688689E0,2.311588798E0
1.472498654E1,8.706631283E-1,1.964593416E0,-1.698500957E0,2.739085079E0
1.473495654E1,5.499900544E-1,9.567228869E-1,-6.471008313E-1,1.279276056E0
1.474492554E1,-3.014252460E-1,-5.252980667E-1,1.801562226E0,1.900637180E0
1.475489554E1,-1.479048357E-1,1.062575324E0,4.316484761E-1,1.156400695E0
1.476486454E1,-1.061595769E0,3.993113270E-1,3.974633145E-1,1.201837011E0
1.477483454E1,-2.281658830E0,4.469845533E-2,1.962622612E0,3.009958884E0
1.478480454E1,-2.038246844E0,-7.369292665E-1,1.111469741E0,2.435750383E0
1.479477354E1,-1.918985864E0,-1.291623040E0,-1.331361887E0,2.668955095E0
1.480474354E1,-1.213728041E0,-2.184962694E0,-1.819968091E0,3.091841132E0
1.481471354E1,-3.889708551E-1,-1.912866315E0,8.063322079E-1,2.111996092E0
1.482468254E1,-3.947455744E-2,-1.701931518E0,5.129510862E-1,1.777989862E0
1.483465254E1,-2.719145496E-1,-2.756701687E0,1.612943913E0,3.205453131E0
1.484462154E1,-4.391694573E-1,-1.249401466E0,1.544362505E0,2.034435888E0
1.485459154E1,-6.614085294E-1,-9.102682203E-1,1.498316851E0,1.873767025E0
1.486456154E1,5.009322075E-1,-6.033481631E-1,2.310958205E0,2.440387245E0
1.487453054E1,1.360398137E0,5.080122355E-1,1.139982519E0,1.846163499E0
1.488450054E1,5.480323701E-1,1.036161697E-1,2.861537293E0,2.915385304E0
1.489447054E1,8.915349108E-1,-1.434450638E0,5.497821713E0,5.751393459E0
1.490443954E1,1.273766375E0,1.522275817E-1,1.691236961E0,2.122719122E0
1.491440954E1,1.271534346E0,2.800027508E0,-5.253103459E0,6.087039477E0
1.492437854E1,1.238853820E0,4.804464144E-1,-5.749084756E0,5.900640904E0
1.493434854E1,1.587500192E0,-2.220796186E0,-3.081602517E0,4.116839398E0
1.494431854E1,1.255000613E0,-3.435342692E0,-4.026931227E0,5.439924729E0
1.495428754E1,7.051025793E-1,-1.513368169E0,-2.752075662E0,3.218908714E0
1.496425754E1,4.349699139E-1,-7.022321811E-1,3.268446785E0,3.371212430E0
1.497422754E1,1.049961309E-1,-1.489883997E0,5.604063283E0,5.799681352E0
1.498419654E1,5.161134797E-1,-7.175954479E-1,2.677317256E0,2.819458111E0
1.499416654E1,1.098007989E0,1.026825448E0,3.472369015E-2,1.503727960E0
1.500413554E1,1.332816675E0,2.570003015E0,-1.574704877E0,3.295604835E0
1.501410554E1,1.262250137E0,8.008785099E-2,-3.092762513E0,3.341387351E0
1.502407554E1,1.371540884E0,-2.669879305E0,-2.209155841E0,3.726895415E0
1.503404454E1,1.433974821E0,-1.259626199E0,-6.907444489E-1,2.029795518E0
1.504401454E1,8.339647604E-1,4.972410795E-1,1.072978690E0,1.447076080E0
1.505398454E1,6.645470224E-1,1.980320087E0,3.584993990E0,4.149153203E0
1.506395354E1,-9.499609474E-2,1.244915774E0,2.636625313E0,2.917298850E0
1.507392354E1,-3.538973187E-1,-1.407678869E0,1.715744396E0,2.247349982E0
1.508389354E1,-4.021051267E-1,3.756760043E-1,-7.800934124E-1,9.546552913E-1
1.509386254E1,-9.199950635E-2,6.915057564E-1,-1.311678990E0,1.485646625E0
1.510383254E1,-5.982613778E-1,-1.410802159E0,-1.885700151E0,2.429844536E0
1.511380154E1,-8.797315751E-1,-3.302498630E-1,-1.262217978E0,1.573590429E0
1.512377154E1,5.928882617E-1,2.620108098E0,-1.274241022E0,2.973242862E0
1.513374154E1,4.859557706E-1,1.672968213E0,1.352909462E0,2.205751496E0
1.514371054E1,-9.554478284E-2,-1.637337327E-1,9.657676524E-1,9.841974899E-1
1.515368054E1,1.108817444E0,-4.745018426E-1,7.039930701E-2,1.208132520E0
1.516365054E1,1.547652002E-2,-1.181372620E0,5.701719385E-1,1.311860065E0
1.517361954E1,-1.038579667E0,-9.082167247E-1,1.233881786E0,1.850937493E0
1.518358954E1,-1.995099217E0,-1.246767003E0,-4.081882775E-1,2.387774385E0
1.519355854E1,-1.101506086E0,-1.531208609E0,-8.584718299E-1,2.072411480E0
1.520352854E1,-9.936066847E-1,1.907478690E-1,4.768813670E-1,1.118505624E0
1.521349854E1,-5.382737692E-1,-6.362618476E-2,4.729824436E-1,7.193742655E-1
1.522346754E1,-3.381927207E-2,3.142530504E-1,-2.449959970E-1,3.999021897E-1
1.523343754E1,-1.010263209E0,-1.081603918E0,-1.381385987E0,2.024531065E0
1.524340754E1,1.067470248E-1,-7.000324586E-1,-1.318162968E0,1.496326829E0
1.525337654E1,-4.731780695E-1,-1.085832917E0,5.582658380E-1,1.309424055E0
1.526334654E1,4.668965153E-3,-1.179039581E0,-4.759300250E-1,1.271481624E0
1.527331554E1,-6.925000754E-1,-7.754787898E-1,5.005701917E-1,1.153903906E0
1.528328554E1,-1.111326777E0,-7.131392848E-1,-1.093774897E0,1.714630681E0
1.529325554E1,-4.232469409E-1,-2.011231685E-1,-1.289356075E0,1.371870107E0
1.530322454E1,-4.889719471E-1,-7.500928107E-1,2.416724396E-1,9.274364441E-1
1.531319454E1,-1.143036520E0,-1.263071671E0,6.047336608E-1,1.807646352E0
1.532316454E1,-7.459334669E-1,1.662509590E-1,-7.900523901E-2,7.683084968E-1
1.533313354E1,-4.453955725E-2,3.472123432E-1,1.651799245E0,1.688484803E0
1.534310354E1,-3.305824234E-1,-2.538582709E0,1.042629185E1,1.073597917E1
1.535307254E1,-9.397984866E-2,-9.205192664E-1,1.239433132E1,1.242882283E1
1.536304254E1,2.483048997E-1,3.251334908E0,5.111606103E0,6.063113965E0
1.537301254E1,1.494863340E-1,4.048600131E0,-2.314142599E0,4.665700928E0
1.538298154E1,1.271926256E0,3.390285802E-1,-8.889049501E0,8.985985634E0
1.539295154E1,2.111358821E0,-4.519534295E0,-1.010865005E1,1.127248119E1
1.540292154E1,1.811968662E0,-3.598582042E0,-8.642675316E0,9.535662523E0
1.541289054E1,1.657478500E0,-6.374324602E-1,-4.160295691E0,4.523451708E0
1.542286054E1,2.340691150E0,6.364817029E-1,1.172181966E0,2.694059127E0
1.543282954E1,2.815474682E0,-2.013086421E0,5.499239078E0,6.497772316E0
1.544279954E1,2.854718270E0,-5.968767571E-1,6.037813833E0,6.705287029E0
1.545276954E1,2.327153384E0,1.376200091E0,4.523048764E0,5.269491407E0
1.546273854E1,1.245123058E0,2.802704071E0,9.785742241E-1,3.219175213E0
1.547270854E1,1.191660357E0,2.588492495E0,-2.606336151E0,3.861778856E0
1.548267954E1,6.433854374E-1,3.751728514E-1,-6.335039499E0,6.378669527E0
1.549264854E1,4.856613267E-1,1.856308829E0,-5.886249910E0,6.191097431E0
1.550261854E1,1.221260425E-2,2.604127657E0,-1.231127747E0,2.880504389E0
1.551258754E1,-6.039219942E-1,8.300970465E-1,4.788521710E0,4.897317944E0
1.552255754E1,4.345928050E-1,3.452926731E0,4.614849465E0,5.780000822E0
1.553252754E1,6.138475697E-1,1.903516617E0,2.694484681E0,3.355656723E0
1.554249654E1,-2.593985662E-2,-1.880438241E0,2.132117021E-1,1.892664811E0
1.555246654E1,5.999352895E-2,-6.998044757E0,-1.745860480E0,7.212784376E0
1.556243654E1,5.731483175E-1,-6.348150126E0,-3.267345169E0,7.162614988E0
1.557240554E1,2.923241644E-1,-1.886390999E0,-1.712765239E0,2.564661612E0
1.558237554E1,-9.071265113E-1,1.052689437E0,1.905536830E0,2.358411365E0
1.559234454E1,-1.188201729E0,-3.841699621E-1,2.259303317E0,2.581445600E0
1.560231454E1,-7.534405609E-1,-1.822805160E0,1.454155755E-1,1.977735326E0
1.561228454E1,1.195694205E-1,2.729831100E-2,-5.317188942E-1,5.456803337E-1
1.562225354E1,9.138816534E-1,2.924831648E0,2.526956105E-1,3.074682897E0
1.563222354E1,7.207240006E-1,1.937567000E0,1.538846827E-1,2.072990463E0
1.564219354E1,8.661904469E-1,-2.058900818E0,-5.628254968E-1,2.303504072E0
1.565216254E1,7.615691409E-1,-4.182417170E0,-1.633261818E0,4.554134945E0
1.566213254E1,3.579344191E-1,-1.599759611E0,-1.649230564E0,2.325362190E0
1.567210154E1,-2.133118357E-1,1.454463026E0,-3.890448443E0,4.158912565E0
1.568207154E1,-7.638502859E-2,1.577944526E0,-8.772188804E0,8.913306906E0
1.569204154E1,-9.096604022E-1,-2.160140972E0,-4.777023745E0,5.321056937E0
1.570201054E1,-1.701907545E0,-4.947808635E0,9.123556178E0,1.051744156E1
1.571198054E1,-1.737733874E0,-1.566602975E0,1.413003285E1,1.432242271E1
1.572195054E1,9.329652111E-1,1.925854735E0,8.833396872E0,9.088907572E0
1.573191954E1,2.060428403E0,4.984140310E-1,1.458870950E0,2.573341446E0
1.574188954E1,5.746712979E-2,-1.465678278E0,-1.587094542E0,2.161107209E0
1.575185854E1,1.593956103E0,1.024231038E0,-4.756466689E0,5.119933656E0
1.576182854E1,1.421385912E0,1.488646141E0,-4.214171351E0,4.689951537E0
1.577179854E1,1.647569077E0,-6.339220843E-1,-2.026874156E0,2.687854147E0
1.578176754E1,2.808022991E0,-9.514013359E-1,-2.726290610E0,4.027755965E0
1.579173754E1,2.146082511E0,3.111145574E-1,-5.128154308E-1,2.228327193E0
1.580170754E1,1.823279954E0,-7.943062395E-2,4.195985926E0,4.575691959E0
1.581167654E1,1.608290991E0,2.588232002E-1,2.247641630E0,2.775875044E0
1.582164654E1,9.951319309E-1,8.743756717E-1,5.561386210E-1,1.436701271E0
1.583161554E1,8.807821736E-1,3.230447777E0,-6.452466792E-1,3.409972632E0
1.584158554E1,-3.630415600E-2,3.109298731E0,-1.596741863E0,3.495517296E0
1.585155554E1,-5.675253426E-1,-1.422783981E0,-2.296172351E0,2.760218603E0
1.586152454E1,-1.210692313E0,-1.262817902E0,-3.508627015E0,3.920580118E0
1.587149454E1,-1.567100865E0,2.456315308E0,-1.710763153E0,3.378757254E0
1.588146454E1,-9.750822669E-1,6.435663064E0,2.603016686E-1,6.514315118E0
1.589143354E1,-2.534393033E-1,4.207787654E0,6.218911457E-1,4.261039429E0
1.590140354E1,-1.483325029E0,-1.581411633E0,-1.452327915E0,2.609668996E0
1.591137254E1,-1.697942840E0,-5.982998525E0,-1.080981774E0,6.312511611E0
1.592134254E1,-2.268447339E0,-3.595021673E0,-1.202292788E0,4.417639879E0
1.593131254E1,-8.860836978E-1,-1.336830788E0,-7.624225420E-1,1.775823473E0
1.594128154E1,-6.030828457E-1,-1.440362466E0,3.949087245E0,4.246603704E0
1.595125154E1,-1.729655360E0,-3.097082435E0,6.309295962E0,7.238151893E0
1.596122154E1,-1.648660606E0,-1.030491652E0,4.692578841E0,5.079398687E0
1.597119054E1,-1.531898873E0,3.681563095E0,1.623000539E0,4.305200545E0
1.598116054E1,-2.286759430E-1,1.371643941E0,7.217732835E-1,1.566734330E0
1.599112954E1,-1.275335183E0,-3.857630360E-1,-1.921180471E0,2.337996439E0
1.600109954E1,-1.468422961E0,-1.747282231E0,-3.491739087E0,4.171510882E0
1.601106954E1,-7.587982184E-1,-1.081645141E0,-3.975992038E0,4.189778471E0
1.602103854E1,8.737731893E-2,-1.065557404E0,-3.303700233E0,3.472388602E0
1.603100854E1,-2.172186894E-1,-2.794725838E0,-1.972381030E0,3.427530218E0
1.604097854E1,-4.290277906E-1,-2.877605734E0,-1.812430446E0,3.427766580E0
1.605094754E1,-7.698185389E-1,-2.456271454E0,2.221784073E0,3.400325647E0
1.606091754E1,-2.194326279E-1,1.773095056E-1,2.814255538E0,2.828360580E0
1.607088654E1,-2.301444529E-1,-1.555032797E0,4.166449885E0,4.453133516E0
1.608085654E1,-3.852359461E-1,-1.736667488E0,4.542512391E0,4.878405428E0
1.609082654E1,-1.222058935E0,-8.172846276E-1,5.145244550E0,5.351160965E0
1.610079554E1,-5.545209888E-1,1.464318508E0,3.218799831E0,3.579440539E0
1.611076554E1,-4.082244206E-1,1.445298977E0,1.497003567E0,2.120508427E0
1.612073554E1,-8.324289161E-1,2.282619382E0,-1.277353495E-1,2.433023934E0
1.613070454E1,-9.498065078E-1,2.277266548E0,-1.995713759E0,3.173475814E0
1.614067454E1,-2.098361045E-1,3.405183923E0,-9.634619783E0,1.022082223E1
1.615064354E1,-4.092611685E-1,4.175113705E-1,-1.000660912E1,1.002367380E1
1.616061354E1,4.118331394E-1,-6.222067784E0,2.166130859E0,6.601201174E0
1.617058354E1,1.666431026E0,-6.167690433E0,1.042566971E1,1.222750942E1
1.618055254E1,1.547055733E0,2.333769655E0,5.769666370E0,6.413182694E0
1.619052254E1,-2.176708472E0,5.299188874E0,4.641616264E0,7.373199037E0
1.620049254E1,-9.626657776E-1,4.777923632E-1,7.545502601E0,7.621654705E0
1.621046154E1,1.379605363E0,7.539718536E-1,6.097508642E0,6.296935457E0
1.622043154E1,2.956011049E0,7.464749045E0,-2.752972625E0,8.487599065E0
1.623040054E1,4.766423620E0,1.010218537E1,-1.564001197E1,1.921933708E1
1.624037054E1,4.696807548E0,4.067808819E0,-1.418720693E1,1.548818615E1
1.625034054E1,2.264730118E0,6.263806379E-1,-1.025820545E1,1.052388399E1
1.626030954E1,-3.683871576E-1,5.458817276E-1,6.500086516E-1,9.253146522E-1
1.627027954E1,-1.047744081E0,1.857968853E0,8.607824156E0,8.868170760E0
1.628024854E1,-1.773798330E0,1.450632808E-1,8.490582220E0,8.675101746E0
1.629021854E1,-1.193926738E0,-2.408555251E0,2.156675912E0,3.446425748E0
1.630018854E1,-1.939487080E0,-4.705705256E0,-1.798313513E0,5.398074062E0
1.631015754E1,-1.149912261E0,-3.043203852E0,-1.297365591E0,3.502362826E0
1.632012754E1,-6.815114030E-1,-9.726825696E-1,8.843574536E-1,1.480762398E0
1.633009754E1,-7.417736115E-1,-1.030699228E0,5.229650277E-1,1.373339510E0
1.634006654E1,-7.405314437E-1,-3.249015025E0,1.414485320E0,3.620117978E0
1.635003654E1,-6.609107852E-1,-1.988921049E0,1.519773209E0,2.588884047E0
1.636000554E1,1.060498832E0,3.127403757E-1,1.764224830E0,2.082055130E0
1.636997554E1,2.259207569E0,-4.236089931E0,2.737588016E0,5.526559951E0
1.637994554E1,1.334205681E0,-1.717735080E0,2.249645471E0,3.129156971E0
