"Time (s)","Linear Acceleration x (m/s^2)","Linear Acceleration y (m/s^2)","Linear Acceleration z (m/s^2)","Absolute acceleration (m/s^2)"
6.550000049E-3,-1.094154820E0,-5.616583925E-1,1.949193896E0,2.304775860E0
1.652000000E-2,-9.130367307E-1,5.336709872E-1,1.461861216E0,1.804294601E0
2.649000002E-2,-1.311369088E0,4.236594254E-1,-1.748962428E0,2.226666964E0
3.646000003E-2,-9.646546349E-1,-2.560855923E0,-1.070732190E0,2.938538590E0
4.643000005E-2,8.603848927E-2,-1.740884792E0,2.394345347E0,2.961582706E0
5.640000000E-2,-5.399118666E-1,1.549564773E0,-1.160350710E-1,1.645028859E0
6.637000002E-2,7.642420493E-2,-1.696478990E-1,-1.687276057E0,1.697504510E0
7.634000003E-2,1.002709411E0,-2.169082534E0,-1.154895843E0,2.654077920E0
8.631000004E-2,7.706209961E-2,-1.393187130E0,-1.427276105E-1,1.402597632E0
9.628000000E-2,-1.947063244E-1,1.501111528E0,-5.399348170E-1,1.607101733E0
1.062500000E-1,-4.952702024E-1,1.226608434E0,8.781816244E-1,1.587785814E0
1.162200000E-1,3.401795680E-1,-3.224853453E-1,2.351030343E0,2.397303195E0
1.261900000E-1,8.737121589E-1,-1.417393433E0,1.058320890E0,1.972921739E0
1.361600000E-1,-5.813338712E-1,-5.227118433E-2,-1.454108977E0,1.566880424E0
1.461300000E-1,-3.143337420E-1,2.051451758E-1,-2.308369642E-1,4.406540009E-1
1.561010000E-1,-8.722722821E-2,-1.192277969E0,1.854788845E0,2.206666492E0
1.660710000E-1,-6.891262320E-1,-1.862200776E0,4.837945300E-1,2.043708355E0
1.760410000E-1,-5.044170018E-1,-9.025747463E-1,-1.029878279E0,1.459358405E0
1.860110000E-1,7.038249627E-2,-2.795288632E0,2.180530797E0,3.545885896E0
1.959810000E-1,1.579800579E0,2.081037207E0,7.861803639E-1,2.728473069E0
2.059510000E-1,4.769421780E-1,3.733117411E0,-2.089863871E0,4.304784599E0
2.159210000E-1,-1.512251936E0,-3.512802511E-2,-5.947203040E-3,1.512671565E0
2.258908750E-1,4.197727080E-1,-1.824360520E0,1.763783365E0,2.572048248E0
2.358608751E-1,9.610346968E-1,7.202749345E-1,-1.172620507E0,1.678517955E0
2.458308750E-1,6.332115014E-1,1.221401489E0,-8.600154948E-1,1.622468814E0
2.558008750E-1,-3.792036295E-1,-1.596470844E0,2.567324697E0,3.046911658E0
2.657708750E-1,-4.997559670E-1,-1.124211409E0,1.799063711E0,2.179503970E0
2.757408750E-1,8.532118209E-1,-9.607589275E-2,8.635986686E-1,1.217786372E0
2.857108750E-1,9.627360173E-2,4.470129123E-1,-1.835072619E-1,4.927109349E-1
2.956808750E-1,-1.703076842E-1,-5.304930255E-1,-1.752311128E-1,5.840663492E-1
3.056518750E-1,1.071062996E-1,-2.514098955E0,-1.975066656E0,3.198914443E0
3.156218750E-1,8.288432573E-1,-2.211148865E0,-1.697971784E0,2.908482186E0
3.255918750E-1,7.996647741E-1,1.307443267E-1,-2.664196104E0,2.784690056E0
3.355618750E-1,3.983300181E-1,1.706907206E0,-2.882104290E-1,1.776306355E0
3.455318750E-1,9.926943728E-1,1.459260374E0,-1.141499287E-1,1.768590728E0
3.555018750E-1,8.054926939E-2,-1.502564561E0,-1.086299232E0,1.855864884E0
3.654718750E-1,1.701624247E0,-2.967325411E0,-5.072693467E-2,3.420982081E0
3.754418750E-1,1.338824689E0,-2.981085371E0,2.486693932E0,4.106454462E0
3.854118750E-1,1.260709250E0,-1.387009546E0,1.400840843E0,2.339986829E0
3.953818750E-1,1.599620155E0,-1.162386418E0,-7.527588487E-2,1.978785811E0
4.053518750E-1,-7.772476456E-1,-2.638630030E0,1.281717272E0,3.034679803E0
4.153218750E-1,3.537558161E-2,-3.425874003E0,3.880062618E0,5.176171369E0
4.252918750E-1,-9.903546095E-1,-2.815356276E0,3.252620126E0,4.414359625E0
4.352628750E-1,-1.022815281E0,-3.222272784E0,2.066368589E0,3.962205465E0
4.452328750E-1,-1.610537345E-1,-4.000595368E0,2.186676221E0,4.562044990E0
4.552028750E-1,-1.487204803E0,-3.635300802E0,1.501933939E0,4.205115409E0
4.651728750E-1,-6.029458015E-1,-2.617314591E0,4.321144992E-1,2.720404794E0
4.751428750E-1,-1.065746342E0,-2.698734437E0,-1.057662494E0,3.088305811E0
4.851128750E-1,-3.158315793E-1,-4.433165365E0,1.925898589E0,4.843737205E0
4.950828750E-1,7.810453391E-1,-3.496506614E0,2.882362736E0,4.598217618E0
5.050528750E-1,5.502370993E-1,-9.962793007E-1,-2.341295314E-1,1.161959529E0
5.150228750E-1,1.041431792E0,-1.083693713E-1,-1.713727106E0,2.008279038E0
5.249928750E-1,4.511787611E-1,1.018786111E0,5.159764355E-1,1.227892135E0
5.349628750E-1,8.386050376E-1,-9.386678544E-1,1.553689983E0,1.999577034E0
5.449328750E-1,2.259821088E0,-2.060983304E0,7.558982188E-1,3.150527836E0
5.549038750E-1,1.828753825E0,-2.202156140E0,1.898778033E-1,2.868777753E0
5.648738750E-1,2.228234721E0,4.625331768E-1,-2.806322621E0,3.613089200E0
5.748438750E-1,1.521902473E0,3.149101020E0,-3.103143075E0,4.675737515E0
5.848138750E-1,1.312582677E0,2.800805480E0,2.102157058E0,3.739846109E0
5.947838750E-1,1.651618859E0,3.659099847E-1,2.322452077E0,2.873241831E0
6.047538750E-1,7.293906706E-1,-9.743788469E-1,-5.881392628E-1,1.351788697E0
6.147238750E-1,1.349704018E0,6.142260307E-1,-1.140878897E0,1.870983488E0
6.246938750E-1,1.122234612E0,3.762758117E0,1.675093968E0,4.268922460E0
6.346638750E-1,-2.035693511E-2,3.914214158E0,1.707845392E0,4.270623229E0
6.446338750E-1,-3.265554459E-1,1.826058551E0,-1.614322686E0,2.459098621E0
6.546038750E-1,-3.039467846E-1,-1.316293028E-1,-3.510401060E0,3.525992842E0
6.645738750E-1,-6.610368658E-2,1.117803445E-1,-2.910865574E0,2.913760960E0
6.745448750E-1,-5.313789152E-1,1.753519455E0,-1.142159438E0,2.159102178E0
6.845148750E-1,-2.114605926E0,3.142171192E0,-4.112370157E-1,3.809713100E0
6.944848750E-1,-2.297804016E0,2.539065689E0,7.925894970E-1,3.514961732E0
7.044548750E-1,-2.189860030E0,1.495998138E0,1.288978930E0,2.948722445E0
7.144248750E-1,-1.457222473E0,1.745010587E0,4.056657887E-1,2.309355758E0
7.243948750E-1,-6.939423642E-1,2.376603141E0,-8.351472867E-1,2.612904415E0
7.343648750E-1,-3.212328717E-1,3.182817235E0,-1.699137719E0,3.622234821E0
7.443348750E-1,4.698628809E-1,2.791197628E0,-2.620671769E0,3.857392364E0
7.543048750E-1,7.606344634E-1,1.311980999E0,-6.765380538E-1,1.660591059E0
7.642748751E-1,-2.762905875E-1,2.025000416E0,-2.099057449E0,2.929676662E0
7.742448750E-1,4.780468998E-1,3.443039382E0,-2.807289165E0,4.468100433E0
7.842158750E-1,3.134542111E-1,2.906273463E0,-1.270487110E0,3.187289833E0
7.941858750E-1,-7.869214254E-1,4.465882875E0,-6.806737894E-1,4.585484925E0
8.041558750E-1,2.407770116E-2,5.085298895E0,-1.652378705E0,5.347073963E0
8.141258750E-1,1.777361477E0,2.617506672E0,-3.512382097E0,4.727280718E0
8.240958750E-1,2.870133870E0,2.734867599E0,-1.765273236E0,4.339741791E0
8.340658750E-1,9.572841465E-1,4.218187219E0,-3.359140023E0,5.476615565E0
8.440358750E-1,1.924021340E0,3.982731247E0,-1.680531294E0,4.731616186E0
8.540058750E-1,3.018758397E0,2.826244377E0,-3.785317844E-1,4.152570993E0
8.639758750E-1,1.769358393E0,3.468750758E0,-1.042173219E0,4.031003097E0
8.739458750E-1,-1.803278384E-1,4.928806939E0,-3.715603246E0,6.175059793E0
8.839158750E-1,9.918798557E-1,3.751880249E0,-3.297556563E0,5.092574039E0
8.938868750E-1,1.361215139E0,1.995117051E0,-4.126751384E0,4.781576695E0
9.038568750E-1,4.810770366E-1,3.282961913E0,-1.297586616E0,3.562724387E0
9.138268750E-1,1.348447452E0,3.629624910E0,-4.399772501E-1,3.896930523E0
9.237968750E-1,1.232385191E0,1.691325546E0,-1.435532373E0,2.537736897E0
9.337668750E-1,1.899857137E0,1.175073707E0,-8.054913783E-1,2.374672971E0
9.437368750E-1,1.524939224E0,2.322682457E0,1.895073237E0,3.363271623E0
9.537068750E-1,5.354578963E-1,2.176350330E0,2.026092383E0,3.021302081E0
9.636768750E-1,4.089989208E-1,5.000921819E-1,8.630186248E-1,1.078041490E0
9.736468750E-1,-3.120303775E-1,-1.605309496E0,1.375631742E0,2.136994203E0
9.836168750E-1,1.356815694E-1,-5.628532711E-1,1.347914186E0,1.466998959E0
9.935868750E-1,-2.572845785E-1,2.105631473E0,5.781492949E-1,2.198666837E0
1.003556875E0,-5.416049279E-2,4.686277297E-1,1.122405789E0,1.217513886E0
1.013527875E0,-1.862235859E-2,-1.612549226E0,1.302455592E0,2.072933276E0
1.023497875E0,1.130329497E0,-2.153398547E0,3.856294856E0,4.559142473E0
1.033467875E0,1.466161697E0,-2.257931268E0,3.298852891E0,4.257970658E0
1.043437875E0,1.054302026E0,-3.227377111E0,1.179952916E0,3.594412979E0
1.053407875E0,1.244626045E0,-2.823192130E0,-1.263530093E0,3.334068999E0
1.063377875E0,3.270569178E-1,-1.716686090E0,-6.406519371E-1,1.861293170E0
1.073347875E0,6.278763556E-1,-5.481501549E-1,-3.722454429E-2,8.343158737E-1
1.083317875E0,1.573271578E0,2.166633135E-1,-1.351773348E0,2.085525745E0
1.093287875E0,1.129273198E0,-2.222195132E0,8.265349227E-1,2.626131973E0
1.103257875E0,8.774887294E-1,-3.848531215E0,3.984758184E0,5.608874822E0
1.113228875E0,1.933582123E0,-1.196121929E0,1.693172389E-1,2.279937679E0
1.123198875E0,9.110771826E-1,-7.425531185E-1,-1.217750487E0,1.692442914E0
1.133168875E0,6.445118304E-1,-3.096257978E0,4.964680776E0,5.886447500E0
1.143138875E0,1.206950095E-1,-2.144272798E0,2.541753654E0,3.327609465E0
1.153108875E0,7.001777619E-1,1.206698665E0,-2.841628693E0,3.165631722E0
1.163078875E0,1.360541248E0,-6.161497647E-1,-1.390070271E-1,1.500011991E0
1.173048875E0,5.666602470E-1,-1.432131633E0,-9.341271991E-1,1.801304658E0
1.183018875E0,1.650107354E0,-1.577627900E0,-1.285401603E0,2.619927737E0
1.192988875E0,2.713439892E-1,-4.609558904E-1,1.337421942E-1,5.513572960E-1
1.202958875E0,5.385848410E-1,-2.191928190E-1,5.793228310E-1,8.208130515E-1
1.212928875E0,1.699900342E-1,-1.241669400E0,-6.584017450E-1,1.415673821E0
1.222899458E0,1.560825341E0,-1.269009519E0,5.384806144E-1,2.082431818E0
1.232869458E0,2.479616755E0,-1.714392812E0,8.570281523E-1,3.134029231E0
1.242839458E0,1.662329058E0,-2.604678173E0,-1.517472914E0,3.442442494E0
1.252809458E0,1.372671881E0,-1.201563640E0,-9.715651667E-1,2.066862876E0
1.262779458E0,7.261683431E-1,4.671679723E-1,7.133965623E-1,1.120045103E0
1.272749458E0,1.905738851E0,-2.083333701E-2,3.150545867E0,3.682147995E0
1.282719458E0,2.015276204E0,7.316065460E-2,3.113923586E0,3.709880154E0
1.292689458E0,1.567181849E0,-1.336856516E0,2.684530381E0,3.383777129E0
1.302659458E0,1.364337552E0,-1.772562960E0,2.389378722E0,3.272999707E0
1.312629458E0,1.975624919E0,-2.091746382E0,3.001903213E0,4.158114915E0
1.322599458E0,1.467437705E0,-2.648527612E0,1.068167601E0,3.210771552E0
1.332570458E0,1.195681122E0,-1.761865771E0,-2.154064545E0,3.028831195E0
1.342540458E0,4.400316292E-1,-2.305579351E0,-1.883995687E0,3.009778020E0
1.352510458E0,1.425238496E0,-1.116864675E0,6.319337386E-1,1.917819523E0
1.362480458E0,2.086380100E0,-1.026996186E-1,2.310623744E0,3.114885427E0
1.372450458E0,1.056941678E0,-4.870730639E-3,2.312117708E-1,1.081946541E0
1.382420458E0,1.601715505E0,9.690116876E-1,-9.820498091E-1,2.113976830E0
1.392390458E0,9.613599481E-1,6.513611126E-1,9.154377437E-1,1.478685400E0
1.402360458E0,9.007735115E-1,-5.302509508E-1,8.874430293E-1,1.371172535E0
1.412330458E0,1.022590236E0,-1.471686292E0,-1.432958429E0,2.294541608E0
1.422300458E0,-1.709068045E-3,-6.646316609E-1,-3.108344173E0,3.178606874E0
1.432270458E0,-6.614786229E-1,1.307507294E0,-2.994590685E0,3.333872023E0
1.442241458E0,-1.189503904E0,2.082125081E0,-7.596837062E-1,2.515409256E0
1.452211458E0,-6.863214688E-1,2.732362067E0,5.674278402E-1,2.873815230E0
1.462181458E0,-1.035986280E-1,2.278202103E0,1.235265237E-1,2.283899363E0
1.472151458E0,-5.706397158E-1,1.319664240E0,-5.370357674E-1,1.534780378E0
1.482121458E0,8.759414099E-2,8.057536259E-1,-6.644273007E-1,1.048034006E0
1.492091458E0,1.255633720E0,3.289219895E0,-1.057000589E0,3.675980659E0
1.502061458E0,1.156788513E0,4.895911380E0,-2.865877097E0,5.789763332E0
1.512031458E0,5.884301618E-1,3.716152592E0,-2.132177247E0,4.324606335E0
1.522001458E0,1.230076710E0,2.931922275E0,-3.135855907E-1,3.194932372E0
1.531971458E0,8.316151299E-1,2.500032893E0,-1.217502565E0,2.902423244E0
1.541942458E0,6.506737724E-1,2.341415766E0,-5.371366319E0,5.895522053E0
1.551912458E0,-1.865254484E-1,1.903681216E0,-2.802635951E0,3.393164038E0
1.561882458E0,-8.922704905E-3,3.336290566E0,-1.141548988E0,3.526194613E0
1.571852458E0,6.403065860E-1,4.193802575E0,-2.250441862E0,4.802339132E0
1.581822458E0,-5.120323424E-1,4.632026246E0,-3.724418508E0,5.965663206E0
1.591792458E0,5.045421322E-1,2.269394149E0,-2.231732526E0,3.222629770E0
1.601762458E0,-6.655534744E-2,2.636924398E0,-1.798195984E0,3.192382917E0
1.611732458E0,1.350607121E0,4.734379709E0,-1.250245804E0,5.079528068E0
1.621702458E0,-6.546203506E-1,2.152305410E0,-1.828892112E-2,2.249729065E0
1.631672458E0,-8.401207821E-1,1.774946285E0,5.418503648E-1,2.037115377E0
1.641642458E0,-3.191120866E-1,1.533570299E0,2.910141689E0,3.304934952E0
1.651613458E0,-2.261838231E0,4.979415759E-1,9.251868063E-1,2.493958425E0
1.661583458E0,-2.401034854E0,-4.300656348E-2,-1.665403377E0,2.922393941E0
1.671553458E0,-2.888917465E0,4.266368276E-1,9.711734033E-1,3.077505627E0
1.681523458E0,-3.829309956E0,8.852368748E-1,-1.220744262E0,4.115516446E0
1.691493458E0,-3.492246040E0,1.717528381E0,-9.695759439E-1,4.010706129E0
1.701463458E0,-1.632971065E0,1.005241328E0,2.537008638E0,3.180175696E0
1.711433458E0,-1.124785898E0,-3.005039075E-1,-5.127306461E-2,1.165364682E0
1.721403458E0,-6.716146982E-1,-1.345195815E0,-4.809744179E-2,1.504304307E0
1.731373458E0,3.034909576E-1,-1.987015441E0,3.378297840E0,3.931060089E0
1.741343458E0,1.521459546E0,-6.331283247E-1,-1.482011890E-1,1.654585815E0
1.751313458E0,5.631631735E-1,-1.237856723E0,-2.246860442E0,2.626370856E0
1.761284458E0,8.070400134E-2,-2.605250323E0,1.524752113E0,3.019720415E0
1.771254458E0,3.549159037E-1,-1.486631191E-1,1.843724744E0,1.883450810E0
1.781224458E0,5.653905241E-1,1.637078588E0,1.502465451E0,2.292835619E0
1.791194458E0,1.160860295E0,-7.772306156E-1,1.785612191E0,2.267177750E0
1.801164458E0,3.187646158E-1,-3.091707675E0,-2.133180045E0,3.769711439E0
1.811134458E0,3.793074176E-2,-3.305856393E0,3.694252723E0,4.957582921E0
1.821104458E0,2.457231567E0,-1.815856914E0,4.209796464E0,5.201702565E0
1.831074458E0,2.511887830E0,-1.824079853E0,5.000111979E-1,3.144337606E0
1.841044458E0,3.547140285E-1,-3.298411134E0,1.544415715E0,3.659311130E0
1.851014458E0,1.588286643E0,-2.723163812E0,2.307848656E0,3.906973384E0
1.860985458E0,2.592182381E0,-2.572463230E0,2.840400193E0,4.626537563E0
1.870955458E0,2.705022533E0,-2.329051829E0,-4.500309527E-1,3.597798936E0
1.880925458E0,3.227985514E0,-2.998872017E0,-3.078414030E0,5.374919236E0
1.890895458E0,2.791554600E0,-3.745955558E0,5.387954285E0,7.131269979E0
1.900865458E0,1.960497002E0,-5.834015563E-1,3.715800297E0,4.241589056E0
1.910835458E0,2.726473336E0,-7.666813615E-1,-2.947979021E-1,2.847518738E0
1.920805458E0,1.969245314E0,-4.146175835E0,9.970005548E-1,4.697096046E0
1.930775458E0,4.635736889E-1,-2.090980690E0,2.264548270E0,3.116934339E0
1.940745458E0,-2.845986038E-1,8.689067709E-1,1.761734501E0,1.984868710E0
1.950715458E0,-2.186335328E-1,-2.397986993E-1,2.977349585E-1,4.403977105E-1
1.960685458E0,-9.622265786E-2,-3.911839896E-1,9.335804844E-1,1.016787212E0
1.970656458E0,-4.065922800E-1,-3.420024741E-1,3.620901157E0,3.659673231E0
1.980626458E0,-5.049199355E-1,-1.291223091E0,4.329158016E0,4.545746401E0
1.990596458E0,9.197246298E-2,-9.655665082E-1,2.993542280E0,3.146755948E0
2.000566458E0,1.482422365E0,-2.400525854E0,1.109906196E0,3.031829845E0
2.010536458E0,1.006533855E-1,-1.590461076E0,5.631962103E-1,1.690232975E0
2.020506458E0,-8.227017805E-2,9.877631235E-1,1.011993400E0,1.416536273E0
2.030476458E0,-9.630098131E-1,1.885878198E0,-8.667415470E-1,2.288048380E0
2.040446458E0,-1.216563941E0,-3.578531063E-1,-2.053263810E0,2.413292137E0
2.050416458E0,-1.544385017E0,-3.336000252E-1,-2.511263348E0,2.966961014E0
2.060386458E0,-1.204604631E0,1.232277602E0,1.099323905E0,2.044038516E0
2.070357458E0,-1.904252781E0,2.679580128E-1,1.520638597E-1,1.929016218E0
2.080327458E0,-2.042334487E-1,-1.738567248E0,-1.641274257E0,2.399605919E0
2.090297458E0,2.578051999E-1,-6.803811362E-1,-1.033721069E0,1.264104925E0
2.100267458E0,4.047350581E-1,3.281427019E0,-1.864527383E0,3.795791895E0
2.110237458E0,3.843314914E-1,2.792618794E0,-1.648034223E0,3.265340292E0
2.120207458E0,-4.049196839E-5,4.785194644E-1,-3.742829052E0,3.773294342E0
2.130177458E0,-3.739035670E-1,1.658574122E0,-1.369255353E0,2.183009899E0
2.140147458E0,-5.856588739E-1,1.768358812E0,6.198224008E-2,1.863848439E0
2.150117458E0,7.996250130E-1,1.568535187E0,-3.753655756E0,4.146038390E0
2.160087458E0,1.453485372E0,9.600610623E-1,-1.791251830E0,2.498583617E0
2.170058458E0,7.738849119E-1,1.489788395E0,-1.904063916E-1,1.689562639E0
2.180028458E0,1.381600141E0,5.089293712E0,-3.382159342E0,6.264880785E0
2.189998458E0,1.596004529E0,5.241440018E0,-6.415681958E-1,5.516478375E0
2.199968458E0,5.874629592E-1,1.776011940E0,2.202552581E-1,1.883572010E0
2.209938458E0,1.296357092E0,2.071275865E0,1.723896584E0,2.990408810E0
2.219908458E0,8.850371924E-1,1.062073633E0,4.678520381E0,4.878508398E0
2.229879500E0,1.730356003E0,8.968488604E-1,-3.428836495E-1,1.978898424E0
2.239849500E0,1.978288472E0,7.526509675E-1,-3.898425799E0,4.435970296E0
2.249819500E0,1.219147533E0,4.198823580E0,-2.512949685E0,5.042951148E0
2.259789500E0,1.207002940E0,9.135786799E0,-4.885290790E0,1.043002985E1
2.269760500E0,6.665839000E-1,7.265901613E0,-6.246656495E0,9.605122472E0
2.279730500E0,1.370558405E0,2.659335606E0,3.980135375E-1,3.018097245E0
2.289700500E0,1.002019951E0,5.652632010E-1,3.658855433E0,3.835464711E0
2.299670500E0,1.398347298E0,2.372864724E0,2.739308851E0,3.884543106E0
2.309640500E0,2.781359103E0,3.384858124E0,2.919047583E0,5.264414665E0
2.319610500E0,2.668808095E0,2.681763771E0,-3.594026184E0,5.218373097E0
2.329580500E0,2.741184931E0,3.042859158E0,-2.813542178E0,4.968813366E0
2.339550500E0,9.781366331E-1,4.125602406E0,-9.905721259E-1,4.354145108E0
2.349520500E0,1.839572051E0,3.378128563E0,-2.845885466E0,4.784855485E0
2.359491500E0,1.061237043E0,2.766095531E-1,-2.541363645E-1,1.125754057E0
2.369461500E0,1.065602647E0,-2.112867987E0,4.090457132E0,4.725627967E0
2.379431500E0,1.033416575E0,-6.801861316E-2,5.278550541E-1,1.162414430E0
2.389401500E0,1.119023102E0,2.325431818E-1,-3.318639868E-1,1.190135597E0
2.399371500E0,-7.568442982E-1,-5.361355886E-1,-2.517226338E-2,9.278406673E-1
2.409341500E0,-5.500633639E-1,-3.161057407E-1,-1.001935020E0,1.185903170E0
2.419311500E0,-2.840431184E-1,2.528195715E-1,-4.121287161E-1,5.607569059E-1
2.429281500E0,1.034745136E0,7.746098936E-1,-2.352395083E0,2.684116356E0
2.439251500E0,1.397674868E0,-4.008377427E-1,-2.416399875E0,2.820133736E0
2.449222500E0,2.548835509E0,-1.377434731E0,-4.857691348E-2,2.897628100E0
2.459192500E0,1.358216980E0,-1.568210374E0,-1.589541017E0,2.613556539E0
2.469162500E0,1.187781168E0,-3.269607165E0,-8.538192004E-1,3.581921599E0
2.479132500E0,1.150894374E0,-4.478226640E0,1.121264412E0,4.757762665E0
2.489102500E0,-6.794596151E-2,-1.531950036E0,-7.103326213E-1,1.689988165E0
2.499072500E0,4.126783544E-1,2.236869012E0,2.014893211E0,3.038697263E0
2.509042500E0,3.827789095E-1,4.507931373E-1,1.467434782E0,1.582118512E0
2.519012500E0,1.430337561E0,1.239636031E-1,-1.217386791E0,1.882355734E0
2.528982500E0,1.351585945E0,-9.450322562E-1,1.602579723E0,2.299593942E0
2.538953500E0,1.368542724E0,4.126157892E-1,6.665007234E-1,1.577144315E0
2.548923500E0,2.127991080E0,-2.308255329E0,6.945790529E-2,3.140256853E0
2.558893500E0,6.243177402E-1,-5.860877087E0,-5.566373885E-1,5.920261654E0
2.568863500E0,1.514898678E0,-1.043710160E0,1.525427467E-1,1.845946422E0
2.578833500E0,1.055562758E0,4.061286250E0,-1.198440058E0,4.364002442E0
2.588803500E0,2.536002333E0,5.483200166E0,-1.693762373E0,6.274202966E0
2.598773500E0,7.178695361E-1,-1.102170622E0,-1.316532179E0,1.861014167E0
2.608743500E0,3.412278642E-1,-7.641510374E0,4.527844065E-1,7.662514664E0
2.618713500E0,5.415408278E-1,-5.519820693E0,6.894633240E-1,5.589011238E0
2.628684500E0,-2.181640014E-1,-1.189536795E0,2.162953482E0,2.478096262E0
2.638654500E0,9.845769757E-1,4.689159974E-1,1.408372641E0,1.781232026E0
2.648624500E0,1.313975923E0,1.278279987E0,-4.454689550E-1,1.886524593E0
2.658594500E0,2.475250931E0,1.515579001E0,1.564876292E0,3.297375425E0
2.668564500E0,4.112679767E0,2.650887841E-1,-2.771414158E0,4.966401451E0
2.678534500E0,4.923851423E0,-2.139557895E0,-6.335458159E-2,5.368988231E0
2.688504500E0,3.562310302E0,-3.316477861E0,4.308856484E0,6.500409547E0
2.698474500E0,1.889702277E0,-3.237169736E0,5.327562488E0,6.514074351E0
2.708445500E0,1.167267966E-1,-6.634025761E-1,3.885302893E0,3.943260921E0
2.718415500E0,1.315513302E0,8.765327096E-2,1.113868854E0,1.725967024E0
2.728385500E0,2.094376168E0,-2.136715564E0,-1.690647562E0,3.436605027E0
2.738355500E0,3.322447137E-1,-1.520123750E0,-1.864269521E0,2.428304678E0
2.748325500E0,6.856808332E-1,-2.265255198E-1,-8.747083783E-1,1.134278080E0
2.758295500E0,-1.365102661E0,-2.923967722E0,2.882970262E0,4.327194247E0
2.768265500E0,-1.994893979E0,-2.850151010E0,3.032034500E0,4.614780166E0
2.778235500E0,-1.122434367E0,1.034884080E-1,1.612200147E-1,1.138666172E0
2.788206500E0,-1.144432543E0,-9.865691221E-1,-1.129562196E0,1.886519343E0
2.798176500E0,-1.651276066E0,-9.387380210E-1,-6.859193265E-1,2.019511585E0
2.808146500E0,-2.098918431E0,-1.580598578E0,-2.601543188E-2,2.627627684E0
2.818116500E0,-2.574008065E0,-1.734130673E0,-1.660836702E0,3.520100178E0
2.828086500E0,-2.271775428E0,-1.429626685E0,6.362577546E-1,2.758553966E0
2.838056500E0,-1.022783925E0,-2.224640438E-1,1.235510235E0,1.619278466E0
2.848026500E0,2.487456702E-2,-7.686866641E-1,2.436236554E-1,8.067530088E-1
2.857996500E0,9.421530873E-1,-1.557052132E0,2.455461615E0,3.056363121E0
2.867966500E0,4.551132064E-1,-1.183958551E0,3.646779764E-1,1.319801465E0
2.877937500E0,1.251796193E0,-1.233425995E0,-1.725754244E0,2.463038998E0
2.887907500E0,2.669446173E-1,-9.207727432E-2,-1.954887330E0,1.975176480E0
2.897877500E0,1.670250573E-1,-4.271051896E-1,1.511880053E0,1.579904271E0
2.907847500E0,2.459575716E-1,-6.347102889E-1,1.814038430E0,1.937546826E0
2.917817500E0,6.962717488E-1,8.631203663E-1,-8.841633260E-2,1.112469578E0
2.927787500E0,-4.711687104E-1,1.481763384E-1,7.965819758E-1,9.372827882E-1
2.937757500E0,-4.119079106E-1,-9.979823023E-2,9.520179248E-1,1.042096897E0
2.947727500E0,-4.668007672E-1,1.813780860E0,-2.896683737E0,3.449417434E0
2.957698500E0,-8.848739089E-1,-1.867074138E0,1.496065673E0,2.550917515E0
2.967668500E0,-1.645779391E0,-2.557582067E0,2.681019128E0,4.054340809E0
2.977638500E0,-4.213407851E-1,1.173836144E0,-2.689290015E0,2.964405527E0
2.987608500E0,5.093547562E-1,2.395849836E-1,-9.087877053E-1,1.068989394E0
2.997578500E0,-8.380485289E-1,-2.251840223E0,2.008425021E-1,2.411109172E0
3.007548500E0,-1.444961008E-1,7.986016041E-1,-1.207873371E0,1.455198174E0
3.017518500E0,-8.377924208E-1,3.267317103E0,1.865736002E0,3.854637210E0
3.027488500E0,-1.099351972E0,-1.478902926E0,3.296646152E0,3.776718744E0
3.037458500E0,8.952752285E-2,-4.189214265E-1,2.228175080E-1,4.828643503E-1
3.047429500E0,-4.385437686E-1,8.600128636E-1,-1.109333754E0,1.470565925E0
3.057399500E0,-5.330341523E-1,-1.970254397E-1,-2.009815489E0,2.088612633E0
3.067369500E0,-1.570537274E0,2.388363061E0,-3.372604991E0,4.421010050E0
3.077339500E0,-1.853879896E0,2.427527127E-1,-2.691575106E0,3.277251303E0
3.087309500E0,-1.336224140E0,-1.511337723E0,-2.393461248E0,3.130222582E0
3.097279500E0,-1.556214373E0,-5.739404690E-1,-7.013817036E-1,1.800873991E0
3.107249500E0,-1.566255942E0,-1.357418835E0,4.246642109E0,4.725432549E0
3.117219500E0,-8.058473276E-1,5.522513920E-1,2.077529170E0,2.295756731E0
3.127190500E0,-9.409627403E-1,1.902396583E0,6.401531696E-3,2.122395961E0
3.137160500E0,-3.152183526E-1,1.360682750E0,7.109945261E-1,1.567269400E0
3.147130500E0,-6.394659025E-1,2.273187531E0,-2.312041694E-1,2.372710171E0
3.157100500E0,-1.378738075E0,-5.203279334E-1,-4.561553264E-1,1.542639789E0
3.167070500E0,-2.695203158E-1,-1.159169573E-1,-1.762052005E0,1.786310502E0
3.177040500E0,-1.362726498E0,4.275618571E-1,-6.571188658E-1,1.572144349E0
3.187010500E0,-7.310529609E-1,-1.183398095E0,2.063823296E0,2.488822228E0
3.196980500E0,-1.080317019E0,-9.236732545E-1,3.344244826E-1,1.460170154E0
3.206950500E0,-1.623617713E0,2.034688083E0,-2.273752956E0,3.456304758E0
3.216921500E0,4.305460567E-1,2.154704815E-1,3.067727659E0,3.105277834E0
3.226890958E0,1.126084053E0,-3.301513374E-2,2.357831240E0,2.613144360E0
3.236860958E0,3.445949248E0,8.215323374E-1,3.282564887E0,4.829566631E0
3.246830958E0,3.541501523E0,-6.022664282E-1,4.561898249E-1,3.621196908E0
3.256800958E0,3.360440736E0,-1.763307110E0,-2.336016448E0,4.456319866E0
3.266770958E0,2.455453136E0,3.554478541E-1,-1.907779822E0,3.129731159E0
3.276740958E0,2.599469473E0,1.287799546E-1,-1.042443361E0,2.803660817E0
3.286710958E0,-2.999662268E0,1.127825865E0,1.005398326E0,3.358688836E0
3.296681958E0,-4.274726871E0,-1.374402657E0,-4.229922581E-1,4.510121388E0
3.306651958E0,4.155329358E0,-5.054532015E-1,3.346342807E0,5.359128212E0
3.316621958E0,5.962556093E-2,-3.658257848E0,1.565211337E0,3.979483914E0
3.326591958E0,-3.274810602E0,-1.438218292E0,3.835582264E0,5.244477823E0
3.336561958E0,-2.736601006E0,-2.417302978E0,8.662149467E0,9.400275110E0
3.346531958E0,6.087330467E-1,-3.712277350E-1,1.338460992E0,1.516523584E0
3.356501958E0,2.224379506E0,2.490164547E0,-2.980452703E0,4.475699048E0
3.366471958E0,1.258152701E0,1.355904113E0,-2.723612586E0,3.292338029E0
3.376441958E0,-4.531881568E-1,-4.432569534E-1,-2.640033070E0,2.715074740E0
3.386412958E0,-1.129881308E0,-1.671747606E0,-2.972753089E0,3.592858578E0
3.396382958E0,-4.285793092E-1,-2.114930008E0,1.197879310E0,2.468101295E0
3.406352958E0,-3.801504399E-1,1.802693077E0,3.275324280E0,3.757920412E0
3.416322958E0,2.252428599E-1,4.082025739E0,1.242721606E0,4.272941080E0
3.426292958E0,7.349781237E-1,-1.274607643E0,-2.306687983E0,2.735987379E0
3.436262958E0,2.917276023E-1,-3.131004765E0,-3.088374762E0,4.407533834E0
3.446232958E0,6.214798672E-1,9.841869664E-1,-1.895420562E0,2.224293217E0
3.456202958E0,6.105675741E-1,1.251607035E0,1.446842642E0,2.008150036E0
3.466173958E0,-6.157883702E-2,-1.543978051E0,2.948605843E0,3.328954279E0
3.476143958E0,-1.648568366E0,-2.633032491E0,-9.804488415E-1,3.257593849E0
3.486113958E0,-2.354692454E0,-9.477579358E-1,-3.417409866E0,4.256936909E0
3.496083958E0,-1.479922680E0,-1.220315076E0,-1.029980021E0,2.177199777E0
3.506053958E0,-7.570794294E-1,-1.710391855E0,1.375622386E0,2.321841189E0
3.516023958E0,-1.434248325E0,1.792917995E0,-1.487081426E-1,2.300812314E0
3.525993958E0,-2.681432818E0,3.917987659E0,-5.079807774E0,6.953068120E0
3.535963958E0,-1.964292722E0,-3.206820640E-1,-1.920027984E0,2.765463857E0
3.545934958E0,-1.532212429E0,-2.603788519E0,1.572173617E0,3.405748003E0
3.555904958E0,-7.589720269E-1,-2.518090849E0,2.809625713E0,3.848482390E0
3.565874958E0,-5.331920271E-1,1.076588761E0,1.749341328E0,2.122152723E0
3.575844958E0,-1.096660718E0,2.340696267E0,6.102119172E-1,2.655914593E0
3.585814958E0,-3.885916266E-1,4.560670334E-1,-2.950598574E0,3.010819246E0
3.595784958E0,-3.287419757E-1,-1.152720386E0,-1.174933666E0,1.678482855E0
3.605754958E0,-6.168967465E-1,-1.775016451E0,1.065674933E0,2.160302771E0
3.615724958E0,-6.613432964E-2,7.297442079E-2,1.636209984E0,1.639171171E0
3.625694958E0,-4.928274184E-1,3.062825353E0,5.409978408E-1,3.149040595E0
3.635665958E0,-4.713151831E-1,-9.917380607E-1,1.248996838E0,1.663032016E0
3.645635958E0,-7.310134922E-1,-5.235056612E0,2.711099544E0,5.940560512E0
3.655605958E0,-1.496741611E0,1.795516497E0,-5.617648119E-1,2.404099550E0
3.665575958E0,-1.036369273E0,2.224485487E-2,-2.295681185E0,2.518870422E0
3.675545958E0,-1.037938081E0,-3.806859279E0,-2.496510238E0,4.669267223E0
3.685515958E0,-5.311363288E-1,-1.719811134E0,-3.436867061E0,3.879679282E0
3.695485958E0,-1.571219936E0,-1.255473214E0,-8.746475673E-1,2.193160607E0
3.705455958E0,-9.081907046E-1,-2.903894231E0,2.298474984E0,3.813187553E0
3.715426958E0,-4.172406444E-1,-1.081856225E0,1.397586282E0,1.815970833E0
3.725396958E0,-4.992729139E-1,-9.188010621E-1,3.141727681E0,3.311181308E0
3.735366958E0,4.884328339E-1,4.847166359E-2,8.466370654E-1,9.786268216E-1
3.745336958E0,4.920815695E-2,4.678687611E-1,1.145120468E0,1.237991723E0
3.755306958E0,3.512912147E-2,-1.279434812E0,2.307199030E0,2.638437958E0
3.765276958E0,-4.664359740E-1,-6.796189517E-1,5.351903862E-1,9.827884751E-1
3.775246958E0,-1.056979685E0,1.556648967E0,5.421982741E-1,1.958147346E0
3.785216958E0,-9.387591440E-2,1.658238492E0,-1.020398773E0,1.949302757E0
3.795186958E0,5.150556453E-3,-1.394500122E0,5.945653528E-1,1.515970012E0
3.805157958E0,-3.054214341E-1,5.647059613E-1,4.874174649E-1,8.060712501E-1
3.815127958E0,-8.640002261E-1,2.857479033E0,-8.366517752E-1,3.100269183E0
3.825097958E0,1.654646913E-1,-1.292357158E0,2.692453358E0,2.991132006E0
3.835067958E0,-2.912585825E-2,5.323325595E-1,-1.962716752E0,2.033834634E0
3.845037958E0,4.012170443E-1,2.920952898E0,-3.888851568E0,4.880174942E0
3.855007958E0,3.330430413E-1,2.007007364E0,-3.095843995E0,3.704490015E0
3.864977958E0,7.973571704E-1,-1.668555611E0,1.838689706E0,2.607802930E0
3.874947958E0,5.085323453E-1,-5.437387231E-1,1.713448194E0,1.868197436E0
3.884918958E0,1.666387171E0,-4.718469143E-2,1.870588607E0,2.505628531E0
3.894888958E0,1.172832761E0,1.113394937E0,2.122963790E0,2.668737571E0
3.904858958E0,3.272443576E-1,1.427501222E-1,7.833824712E-1,8.609033414E-1
3.914828958E0,-3.050870282E-1,-3.782479021E-1,-3.871289456E-1,6.213037830E-1
3.924798958E0,-6.088794829E-1,2.445900832E0,-3.490747399E0,4.305633810E0
3.934768958E0,-2.211048951E-1,1.875202060E-1,-1.414643780E0,1.444045784E0
3.944738958E0,-2.993287999E-1,-1.417870274E0,2.005092108E-1,1.462927813E0
3.954708958E0,-1.285204259E0,-1.609935520E0,1.756514107E0,2.707209666E0
3.964678958E0,-3.161321628E-1,-1.168168730E0,-8.724899447E-1,1.491910329E0
3.974649958E0,1.993405351E-1,-5.956351009E-1,-2.513970609E0,2.591247970E0
3.984619958E0,8.012856223E-2,-1.927248126E-1,-4.603933883E-1,5.054953134E-1
3.994589958E0,6.122980210E-1,-8.294035667E-1,1.349877681E0,1.698525506E0
4.004559958E0,-6.561075168E-1,5.413042349E-1,5.442073774E-1,1.009776717E0
4.014529958E0,-1.192967064E0,2.595319412E0,-1.371232297E0,3.168458817E0
4.024499958E0,-6.270579647E-2,1.070535724E0,-1.059687384E0,1.507619350E0
4.034469958E0,2.098197323E-1,4.353301755E-1,-1.479796380E0,1.556706141E0
4.044439958E0,-5.182052114E-1,5.319109753E-1,-2.763977085E0,2.861998472E0
4.054410958E0,-2.094267629E-1,-1.157682626E0,-1.102387261E-1,1.181626509E0
4.064380958E0,-5.930610469E-1,-4.351345861E-1,9.205218977E-1,1.178314083E0
4.074350958E0,-9.027330597E-1,1.641160821E0,3.001429589E0,3.537925295E0
4.084320958E0,-1.155379115E-1,9.806365371E-3,4.304963992E0,4.306525299E0
4.094290958E0,-4.198831473E-1,-1.054859923E0,4.212363392E0,4.362686863E0
4.104260958E0,-7.830048873E-1,1.968984090E0,1.602287947E0,2.656562001E0
4.114230958E0,1.181958219E0,1.780438575E0,-1.342365178E0,2.523674111E0
4.124200958E0,3.444028730E0,-2.049086559E-1,-1.631338668E0,3.816357859E0
4.134171958E0,2.635924231E0,-1.154088927E0,-2.872466324E0,4.065843158E0
4.144141958E0,1.616513053E0,-1.056728401E0,-2.068039139E0,2.829589236E0
4.154111958E0,2.296645390E0,4.708113724E-1,-2.863351684E0,3.700679163E0
4.164081958E0,1.625652397E0,1.937971920E-2,-2.616582227E-1,1.646689502E0
4.174051958E0,5.877325889E-1,-2.112489088E0,1.708766913E0,2.779914406E0
4.184021958E0,5.945648412E-1,-6.242078125E-1,4.397942907E0,4.481634139E0
4.193991958E0,-6.616821791E-1,5.041641828E-1,1.701697630E0,1.894143514E0
4.203961958E0,1.076352168E-1,-2.276461387E-1,1.281465257E0,1.305971405E0
4.213931958E0,8.816744587E-1,-3.621733215E-1,1.978660939E0,2.196273771E0
4.223903208E0,1.439419017E0,1.561115070E0,-2.251653405E0,3.094987952E0
4.233873208E0,8.953949502E-1,-4.778777325E-1,-2.557901909E0,2.751901419E0
4.243843208E0,1.135990406E0,-9.926861867E-1,-8.160584664E-1,1.715182640E0
4.253813208E0,9.243834720E-1,1.268843165E0,3.565550244E-1,1.609838274E0
4.263783208E0,6.428019583E-1,4.413048604E-1,8.278505462E-1,1.137225072E0
4.273753208E0,1.180765533E0,-4.847166359E-2,-1.642614439E0,2.023546130E0
4.283723208E0,-9.940266609E-3,2.030752614E-1,-1.981872230E0,1.992274054E0
4.293693208E0,-1.106840282E-1,-9.738821259E-1,1.240923003E0,1.581324523E0
4.303663208E0,8.726155137E-1,1.000791889E-1,1.156197433E0,1.451986977E0
4.313634208E0,-2.178489096E-1,5.371626520E-1,-3.273762488E-1,6.657154576E-1
4.323604208E0,4.646633906E-1,3.561960053E-1,1.468645155E-1,6.036197865E-1
4.333574208E0,3.152413760E-1,-1.355276707E0,1.972627782E0,2.414003406E0
4.343544208E0,-2.350924216E-2,1.772055129E0,-1.192857136E0,2.136267823E0
4.353514208E0,-2.609252376E-1,2.641821148E0,-2.292754068E0,3.507708964E0
4.363484208E0,-1.134268547E0,-1.798086348E0,-7.360697258E-1,2.249772943E0
4.373454208E0,2.962532010E-2,-1.370795217E0,-2.175616212E0,2.571626546E0
4.383424208E0,8.669129435E-2,4.956620389E-1,1.830680775E0,1.898575344E0
4.393395208E0,-9.653380282E-1,-6.060981086E-1,4.421277975E0,4.565843992E0
4.403365208E0,-6.204024446E-1,-2.438910778E0,1.088597773E0,2.741939111E0
4.413335208E0,-9.133991119E-1,-2.970955070E0,3.340118446E0,4.562593911E0
4.423305208E0,-1.165539310E0,8.852158248E-2,5.908857000E-1,1.309757178E0
4.433275208E0,-1.330700421E0,-3.433631212E-1,2.914731753E-1,1.404855315E0
4.443245208E0,-2.017294882E-1,-3.264784966E0,1.190739275E0,3.481002109E0
4.453215208E0,-1.016013800E0,-1.901691701E0,-1.278391961E0,2.506591585E0
4.463185208E0,-1.026294520E0,1.545339282E0,-1.962002222E0,2.700149377E0
4.473155208E0,-1.928644588E0,2.609738646E0,-1.471451819E-1,3.248393056E0
4.483126208E0,-1.138659148E0,-7.362697005E-1,1.323557609E0,1.894846292E0
4.493096208E0,-5.881496781E-1,-7.011533698E-1,-9.223088068E-1,1.299303516E0
4.503066208E0,-2.720575323E-1,4.647904944E-1,3.681816280E-1,6.523827219E-1
4.513036208E0,5.382408420E-1,2.009676325E0,2.620020390E-2,2.080670225E0
4.523006208E0,5.707221250E-1,-3.276077986E-1,2.679450905E0,2.759077339E0
4.532976208E0,1.174317077E0,3.907811165E-2,5.317376053E-1,1.289687007E0
4.542946208E0,-7.037643709E-1,1.671840577E0,-2.772756094E0,3.313383703E0
4.552916208E0,-1.112030782E-1,8.721911520E-2,1.586922634E-1,2.125006661E-1
4.562887208E0,-1.495224405E-2,1.100211512E0,-1.010398280E0,1.493851942E0
4.572857208E0,-1.530223645E-2,1.752263181E0,-7.094660640E-1,1.890503243E0
4.582827208E0,2.398686466E-1,-1.276769943E0,-7.391383445E-1,1.494658472E0
4.592797208E0,6.740191463E-1,-2.132317581E0,-5.313230377E-1,2.298561342E0
4.602767208E0,-3.291753640E-1,-3.534887445E-1,-1.905733881E0,1.965993982E0
4.612737208E0,-8.195005761E-1,-1.770470826E0,3.683465195E-1,1.985403561E0
4.622707208E0,-7.638202458E-1,4.134627584E-1,-2.042211987E0,2.219234693E0
4.632677208E0,-8.075585152E-1,-1.418293320E0,2.154342288E0,2.702757368E0
4.642648208E0,7.045786688E-1,-2.514255368E0,3.235310029E0,4.157540395E0
4.652618208E0,-7.341727428E-2,3.017929262E-1,-1.426408963E0,1.459832728E0
4.662588208E0,-4.584152387E-1,-5.909780860E-2,-8.024122345E-1,9.260142959E-1
4.672558208E0,-2.543958347E-1,-2.386931078E0,4.390522206E-1,2.440271309E0
4.682528208E0,-7.130405400E-1,1.606210259E0,-7.600813168E-1,1.914696273E0
4.692498208E0,-1.035115630E0,1.390721651E0,-3.416112953E-1,1.766994441E0
4.702468208E0,-4.180463542E-1,-3.137033244E0,1.183040830E0,3.378657416E0
4.712438208E0,6.632789075E-3,5.826253384E-2,1.063323768E0,1.064939412E0
4.722408208E0,5.169289104E-1,1.037615899E0,2.006577886E0,2.317372880E0
4.732379208E0,6.073317615E-1,-9.051405045E-1,1.425516093E0,1.794499187E0
4.742349208E0,1.794639122E-1,8.790110520E-1,2.073422670E-3,8.971466014E-1
4.752319208E0,-8.747752558E-2,1.648312258E0,-2.311358154E0,2.840239803E0
4.762289208E0,7.464532113E-1,-7.720663548E-2,-2.723498565E-1,7.983280689E-1
4.772259208E0,5.619776140E-1,1.053903903E0,-1.532499089E0,1.942957986E0
4.782229208E0,3.044272065E-1,4.959479678E-1,-1.165492752E0,1.302694770E0
4.792199208E0,-3.849333892E-1,1.249103258E0,-7.743070078E-1,1.519205057E0
4.802169208E0,-2.861543287E-1,8.514428920E-1,-1.292262726E0,1.573779607E0
4.812139208E0,3.167081501E-1,-1.960077903E0,-1.449721811E0,2.458435025E0
4.822110208E0,3.783859695E-1,1.688614485E-1,-1.732984911E0,1.781832437E0
4.832080208E0,6.736347650E-1,-2.019487953E-1,-1.735716730E0,1.872773259E0
4.842050208E0,7.804032417E-1,-2.344691961E0,7.643854523E-1,2.586676387E0
4.852020208E0,5.976966830E-1,-3.293011522E-1,1.244589207E0,1.419395247E0
4.861990208E0,9.332179570E-1,9.190507382E-1,-5.725137484E-1,1.429448148E0
4.871960208E0,3.967028841E-1,-1.348333723E0,1.100268815E0,1.784928142E0
4.881930208E0,3.892022221E-1,-5.487348765E-2,4.842770423E0,4.858694767E0
4.891900208E0,-7.619962800E-1,3.297575274E-1,3.820222213E0,3.909408666E0
4.901871208E0,-9.566410258E-1,-1.499527225E-1,1.987628229E0,2.210953154E0
4.911841208E0,-7.377921693E-2,2.789643146E0,-6.259344953E-1,2.859955637E0
4.921811208E0,6.068067911E-1,1.427623429E0,-1.061464353E0,1.879635526E0
4.931781208E0,9.653052107E-1,3.496295822E-1,-4.706030946E0,4.816719034E0
4.941751208E0,1.411719880E0,-1.735468224E-1,-3.432760561E0,3.715765949E0
4.951721208E0,1.706632680E0,-1.890206307E0,1.584665608E-1,2.551585123E0
4.961691208E0,6.355207130E-1,8.690889117E-1,-2.314479983E-1,1.101258502E0
4.971661208E0,7.126057264E-1,-8.427641621E-1,3.815126950E0,3.971555362E0
4.981631208E0,3.310771709E-1,-1.988286333E0,2.256613598E0,3.025756032E0
4.991602208E0,3.143230708E-1,1.606321064E0,2.435048400E0,2.934029152E0
5.001572208E0,-2.053932439E-1,1.633519095E0,3.254408205E0,3.647155574E0
5.011542208E0,4.439921676E-1,2.082596952E-1,-2.023538319E0,2.082116345E0
5.021512208E0,1.596229939E0,-1.935538016E0,1.330718694E0,2.839906631E0
5.031482208E0,1.889209796E-1,6.790877321E-1,-5.953588200E-1,9.226610477E-1
5.041452208E0,1.728850930E0,9.640789765E-1,1.208236483E0,2.319096636E0
5.051422208E0,7.620310709E-3,-1.057242664E0,2.454823684E0,2.672822373E0
5.061392208E0,-3.828640596E-1,-1.096782705E0,-1.072524362E0,1.581083710E0
5.071363208E0,1.272177686E0,-2.211981216E-1,1.724390674E0,2.154272005E0
5.081333208E0,5.555424242E-1,1.817047115E0,3.202432305E-1,1.926873978E0
5.091303208E0,2.487389751E0,2.765487421E-1,-2.427534143E0,3.486618562E0
5.101273208E0,1.662973713E0,-9.825023836E-1,-3.359201419E0,3.874922796E0
5.111243208E0,1.688689768E-1,-1.112873658E0,-2.335337586E0,2.592451764E0
5.121213208E0,1.143272309E0,-1.681409838E0,8.954069370E-1,2.221702995E0
5.131183208E0,-1.294542848E-1,8.610922596E-1,-4.323366934E-1,9.721899546E-1
5.141153208E0,1.134438189E0,1.488585330E0,-1.726975143E-1,1.879537369E0
5.151123208E0,1.366537860E0,-1.453762822E0,6.030145794E-1,2.084341298E0
5.161094208E0,8.810667137E-1,7.952026176E-1,-2.906645054E0,3.139619599E0
5.171064208E0,-2.013898746E-1,2.922538370E0,-2.222957609E0,3.677407911E0
5.181034208E0,1.207856998E0,-4.684315556E-1,-4.323624212E-1,1.365753973E0
5.191004208E0,1.695457774E0,-1.533201340E-1,1.889607260E0,2.543363860E0
5.200974208E0,1.332726043E0,-8.764657590E-1,2.526837991E0,2.988186936E0
5.210944208E0,1.975898130E0,-3.705651577E0,1.013998411E0,4.320210621E0
5.220914208E0,1.496604348E0,-1.911151619E0,-4.373286953E0,5.001796063E0
5.230883833E0,1.180543046E0,1.436595982E0,-3.955727343E0,4.370957413E0
5.240853833E0,7.844610632E-1,-2.704005410E0,1.339338074E0,3.117827913E0
5.250824833E0,4.632722649E-1,-5.307477887E0,6.596235207E0,8.479048391E0
5.260794833E0,-5.288643567E-1,1.495335356E0,3.810173188E0,4.127123097E0
5.270764833E0,7.795771033E-2,3.544504068E0,1.293811653E0,3.774060822E0
5.280734833E0,4.323430523E-1,-1.162686965E0,2.859977841E0,3.117408338E0
5.290704833E0,-6.163937397E-2,-1.562076937E0,1.293124605E0,2.028806303E0
5.300674833E0,1.028834259E0,-1.116795093E0,1.423042721E-1,1.525116952E0
5.310644833E0,1.646502838E-1,2.253350852E0,2.585018957E0,3.433223381E0
5.320614833E0,3.059584826E-2,3.109539051E0,1.558692276E-1,3.113593492E0
5.330585833E0,-2.069870487E-2,-6.384875903E-1,3.209098130E-1,7.148971586E-1
5.340555833E0,-3.666559432E-1,-1.452389311E0,-1.064844044E0,1.837869454E0
5.350525833E0,-3.537263607E-1,9.861071920E-1,-2.993264537E0,3.171302937E0
5.360495833E0,-7.002303869E-2,2.018081698E-1,-2.245038450E-1,3.098898833E-1
5.370465833E0,-3.345021044E-1,-1.828169396E0,-3.393197715E-2,1.858829303E0
5.380435833E0,2.014177220E-1,-1.261547010E0,-5.760308486E-1,1.401385563E0
5.390405833E0,4.820606844E-1,1.374457913E0,-1.299204540E0,1.951781109E0
5.400375833E0,1.273051553E0,4.317160115E-1,2.129620845E0,2.518397092E0
5.410345833E0,1.316147140E0,6.721310073E-1,8.421873343E-1,1.700965282E0
5.420316833E0,8.985958622E-1,1.517724637E0,-2.004310336E0,2.669873128E0
5.430286833E0,1.019253596E0,-3.725632390E-1,1.279809326E0,1.677972935E0
5.440256833E0,-2.947493702E-1,9.003402328E-1,-4.878063047E-1,1.065572483E0
5.450226833E0,1.034800100E0,1.158352424E0,-1.952890506E0,2.495270108E0
5.460196833E0,-6.980487907E-1,-4.463811207E-1,-1.907551196E0,2.079730700E0
5.470166833E0,-1.153345965E0,5.451060945E-1,-2.407415628E0,2.724517861E0
5.480136833E0,-4.351894768E-1,-9.519267082E-2,-9.733298564E-1,1.070431004E0
5.490106833E0,-1.307068753E0,-3.713163203E-1,1.487734560E0,2.014859463E0
5.500076833E0,-7.207905858E-1,-1.650085427E0,4.494935936E-1,1.855900179E0
5.510047833E0,-1.118191481E0,-1.604530062E0,3.455827242E-1,1.986025258E0
5.520017833E0,-1.625985396E0,1.101598472E0,7.677476013E-1,2.108739928E0
5.529987833E0,-2.206481910E-1,-8.903178129E-1,1.169190531E0,1.486054484E0
5.539957833E0,-3.108541370E-1,1.982361057E-1,-3.499143416E-1,5.082990208E-1
5.549927833E0,-8.049003710E-1,9.953346831E-1,-1.594108862E0,2.044440951E0
5.559897833E0,-4.543797828E-1,-2.646322335E0,-1.696714633E0,3.176212120E0
5.569867833E0,1.795398895E-1,-2.272074513E0,-5.333046591E-1,2.340720194E0
5.579837833E0,3.122476016E-1,-3.036336297E-1,-1.505760357E0,1.567484034E0
5.589808833E0,1.078076731E-1,-1.824728894E0,2.091753691E0,2.777893363E0
5.599778833E0,2.140604620E-1,-1.309163518E0,3.866826276E0,4.088040661E0
5.609748833E0,2.292490067E-1,1.830795088E0,1.410263631E0,2.322328416E0
5.619718833E0,-1.917604240E-1,-3.769501126E-1,4.120884288E0,4.142529513E0
5.629688833E0,-7.771844957E-2,-1.588442617E0,1.400605785E0,2.119171222E0
5.639658833E0,-4.537825263E-1,6.166283593E-1,2.980910540E-3,7.656095613E-1
5.649628833E0,-1.027291325E0,2.520033002E-2,4.314806610E-1,1.114512487E0
5.659598833E0,-6.024118046E-1,-1.889524814E-1,-4.259965575E-1,7.616272642E-1
5.669568833E0,-7.051527192E-1,5.442562017E-1,-2.361514401E0,2.523926591E0
5.679539833E0,-4.904381365E-1,-1.176830210E0,-1.251769003E0,1.786724530E0
5.689509833E0,-7.959760581E-1,-1.485495077E0,-1.348022944E-1,1.690693694E0
5.699479833E0,-8.963440995E-1,1.999978718E-1,-6.637010765E-1,1.133106797E0
5.709449833E0,-6.106686212E-1,-8.265337533E-1,-6.372897881E-1,1.209219783E0
5.719419833E0,-4.387477268E-1,-4.897952351E-1,-1.438189933E0,1.581388385E0
5.729389833E0,5.564530184E-1,-1.037123564E0,-5.135761535E-1,1.284143962E0
5.739359833E0,2.136682235E-1,-1.526227658E0,5.878498256E-2,1.542232359E0
5.749329833E0,-1.957740990E-1,-6.396500167E-1,7.499574476E-1,1.004945678E0
5.759299833E0,6.597238004E-2,-6.236909187E-1,2.391313566E0,2.472189978E0
5.769270833E0,-1.076424162E-1,6.742664105E-1,1.037674372E0,1.242171560E0
5.779240833E0,5.669174514E-1,2.430150188E0,1.026712596E-1,2.497512106E0
5.789210833E0,2.615941957E-2,-2.595391917E-1,7.200945479E-1,7.658858042E-1
5.799180833E0,7.435316500E-1,-1.802670273E-1,-9.671329772E-1,1.233159240E0
5.809150833E0,5.079674677E-1,5.556065243E-1,-2.402703942E0,2.517879225E0
5.819120833E0,2.634634043E-1,-1.215593742E0,2.732819027E-1,1.273485025E0
5.829090833E0,5.070178434E-1,5.187649727E-3,1.046712413E0,1.163056697E0
5.839060833E0,5.182162115E-1,-1.507807175E0,3.331386799E0,3.693259877E0
5.849030833E0,-1.935347616E-1,4.575607046E-1,1.784481339E0,1.852347471E0
5.859001833E0,1.936625598E-1,2.122772586E0,3.287725639E-1,2.156793925E0
5.868971833E0,-1.151593774E-1,2.331574318E-1,-3.252367526E-1,4.164168770E-1
5.878941833E0,-4.159284196E-1,-3.685564345E-1,-8.958121490E-1,1.054186749E0
5.888911833E0,-6.555339780E-1,3.243266335E-1,-1.939393963E0,2.072718385E0
5.898881833E0,-1.481476870E0,-1.523763349E0,4.738232732E-2,2.125764226E0
5.908851833E0,-1.458466761E0,1.922026563E-1,-3.642756879E-1,1.515507813E0
5.918821833E0,-1.029930173E0,-1.118144630E0,-2.911375451E-1,1.547825780E0
5.928791833E0,-2.233527840E-1,-3.299818851E0,1.848734053E0,3.788998352E0
5.938761833E0,8.679237078E-1,-6.136006710E-1,2.543246448E-1,1.092921942E0
5.948732833E0,7.704355663E-1,-7.986448735E-1,2.427075722E0,2.668726504E0
5.958702833E0,-1.480231779E-1,9.655214846E-3,1.542396086E0,1.549512753E0
5.968672833E0,-1.307737090E-1,-2.556358829E-1,-6.493917704E-1,7.100430543E-1
5.978642833E0,-5.521247267E-1,-1.380068317E0,-2.305697465E-1,1.504191703E0
5.988612833E0,6.300817061E-2,1.457626078E-1,-1.279171395E0,1.288990390E0
5.998582833E0,-7.332364574E-2,-3.782256827E-1,-2.103612429E0,2.138601477E0
6.008552833E0,-3.065129814E-1,-1.518880924E0,-8.863443375E-2,1.552032710E0
6.018522833E0,2.826858334E-2,-4.902226666E-1,-8.648926574E-1,9.945635648E-1
6.028492833E0,-7.475402087E-1,-1.404852033E-1,-1.453873919E0,1.640823522E0
6.038463833E0,-5.582625855E-1,2.278958148E0,-1.322720287E0,2.693491473E0
6.048433833E0,2.708946672E-1,9.726179579E-1,-1.341593345E0,1.679059950E0
6.058403833E0,-7.340159643E-2,-2.307886078E0,9.087689942E-1,2.481448574E0
6.068373833E0,-2.559691742E-3,-1.586548412E0,1.138599068E0,1.952831343E0
6.078343833E0,-3.998190846E-2,2.353162238E-1,-7.951985246E-1,8.302487409E-1
6.088313833E0,-3.864245754E-1,2.441803104E-1,3.364072734E-1,5.675542529E-1
6.098283833E0,-4.165448988E-1,-6.646459866E-1,-1.655135667E0,1.831594392E0
6.108253833E0,-8.455487524E-1,-2.093905467E0,-2.939728600E-1,2.277237985E0
6.118223833E0,-1.880268526E0,-3.492141375E-1,3.051922050E0,3.601609146E0
6.128194833E0,-7.574353056E-1,1.043116375E0,1.695036482E0,2.129541896E0
6.138164833E0,-1.425449435E0,1.081267118E-2,1.031725414E0,1.759681885E0
6.148134833E0,2.922475659E-1,-2.250184584E0,1.843320701E0,2.923451814E0
6.158104833E0,5.679813523E-2,-1.474178960E0,-3.821441942E-1,1.523963195E0
6.168074833E0,-1.064422313E0,-2.980840373E-1,1.035647727E0,1.514732705E0
6.178044833E0,-1.710296691E-1,-1.074787234E0,3.352666571E0,3.524881825E0
6.188014833E0,-6.190538574E-2,-6.088489312E-1,6.598460072E-1,8.999589163E-1
6.197984833E0,-5.060690595E-1,-1.768768117E-1,1.971515642E0,2.043101864E0
6.207954833E0,-2.269661075E-1,1.011851898E-1,1.213884893E0,1.239059559E0
6.217925833E0,-2.452236364E-1,1.326887306E0,1.587554133E-1,1.358663989E0
6.227896583E0,-1.729284793E-1,5.479870176E-1,1.910039771E-1,6.055382314E-1
6.237866583E0,2.700622796E-1,-1.582732227E0,-1.986783891E0,2.554463773E0
6.247836583E0,-1.954845888E-1,-3.975130159E-1,1.220102237E0,1.298029388E0
6.257806583E0,-3.911531456E-2,2.733318379E0,-1.594729836E0,3.164762648E0
6.267776583E0,1.290121914E0,-2.123425135E-1,1.548718681E0,2.026828421E0
6.277746583E0,3.736489208E-1,1.777875155E-2,-1.513416116E0,1.558960532E0
6.287716583E0,1.007136411E0,-3.178751081E-1,-1.719889487E0,2.018263655E0
6.297686583E0,-3.288849767E-1,4.028129321E-1,-1.163496512E0,1.274420543E0
6.307657583E0,-1.017392135E0,1.017183097E0,-1.619022678E0,2.165867641E0
6.317627583E0,-2.534364893E-1,-1.152875337E0,-2.377214760E-1,1.204102611E0
6.327597583E0,-9.136139240E-2,-1.612154246E0,-1.401189337E0,2.137924174E0
6.337567583E0,-2.642405724E-1,-1.323590645E0,1.080112878E0,1.728687105E0
6.347537583E0,3.766644761E-2,-1.097313048E0,5.183334482E-1,1.214159894E0
6.357507583E0,6.145097668E-1,1.327007466E0,-2.005904871E-1,1.476078457E0
6.367477583E0,4.863479360E-1,4.641242042E-1,1.422513548E0,1.573369119E0
6.377447583E0,9.583454892E-1,-1.735310349E0,5.719746351E-1,2.063221526E0
6.387417583E0,-2.477180220E-2,1.168542659E0,5.784241140E-1,1.304101240E0
6.397388583E0,-7.486738376E-1,3.525490969E-1,4.614739537E-2,8.288141909E-1
6.407358583E0,9.639299456E-2,-1.335256425E0,4.536234820E-1,1.413497646E0
6.417328583E0,-1.422351287E-1,-6.135290426E-1,9.392639780E-1,1.130869373E0
6.427298583E0,-1.929399902E-1,-1.427846208E-1,3.068794191E-2,2.419814818E-1
6.437268583E0,-4.044898405E-1,1.302023775E0,-5.363557363E-1,1.465112766E0
6.447238583E0,-1.213350896E0,6.401309502E-1,-8.942439258E-2,1.374767163E0
6.457208583E0,-7.712590735E-1,-2.346369528E0,4.600108050E0,5.221234010E0
6.467178583E0,-6.839929613E-1,1.254614551E0,1.453274580E0,2.038114581E0
6.477148583E0,1.297259610E-2,7.835844925E-1,-2.063038015E-1,8.103913892E-1
6.487119583E0,4.560520499E-1,1.133289796E-1,2.063094733E0,2.115936391E0
6.497089583E0,-4.979843703E-1,1.665399284E0,-3.453306507E0,3.866118085E0
6.507059583E0,-4.204048651E-1,-7.200878236E-1,-3.858957093E0,3.948014257E0
6.517029583E0,-5.496276733E-2,-2.504740486E0,-2.257029335E0,3.372080549E0
6.526999583E0,-3.014377444E-1,-2.962542973E0,-8.304888099E-1,3.091478165E0
6.536969583E0,-5.916249342E-3,-1.572453114E0,1.796497952E0,2.387477474E0
6.546939583E0,-4.787167714E-1,-5.305526671E-1,4.777519004E0,4.830667005E0
6.556909583E0,-3.003369329E-1,-1.696552665E0,2.562834036E0,3.088140462E0
6.566879583E0,1.627520217E-1,-1.927968211E0,1.818813266E0,2.655490791E0
6.576850583E0,-1.084603320E-1,-4.253562874E-1,2.274710146E0,2.316678195E0
6.586820583E0,4.112785310E-3,-1.035184335E0,1.759284518E0,2.041250973E0
6.596790583E0,7.900865963E-1,-8.064155307E-1,6.277009392E-1,1.291724161E0
6.606760583E0,6.564014856E-2,5.882103065E-1,-5.845444531E0,5.875331630E0
6.616730583E0,2.251660787E-1,-1.170478965E0,-2.772399999E0,3.017767805E0
6.626700583E0,3.037410723E-1,-4.491088468E-1,-1.523085072E0,1.616708240E0
6.636670583E0,-1.287847201E0,-8.080036345E-1,3.341601884E-1,1.556625619E0
6.646640583E0,-4.701670092E-1,-1.642732553E0,3.889583640E0,4.248351227E0
6.656610583E0,-1.820324844E-1,1.786415014E0,2.074561123E0,2.743759880E0
6.666581583E0,-6.301450753E-1,2.243250079E0,3.207151008E-1,2.352044198E0
6.676551583E0,3.749642520E-1,-2.742756370E-1,-9.496193969E-1,1.057167117E0
6.686521583E0,2.835201946E-1,9.552362323E-2,-6.972705263E-1,7.587454449E-1
6.696491583E0,-4.211374116E-1,5.180156520E-1,-9.033533031E-1,1.123273843E0
6.706461583E0,1.969512166E-1,7.154661843E-1,1.815244710E-1,7.639586221E-1
6.716431583E0,1.875072325E-1,4.065449175E-1,3.824032259E-1,5.887868539E-1
6.726401583E0,-3.779483054E-1,-8.081097615E-1,2.526254439E-1,9.272032803E-1
6.736371583E0,1.557586422E-1,-2.586758503E-1,-1.080214620E-1,3.206907956E-1
6.746341583E0,2.141520806E-2,1.920024768E0,-3.240450901E-1,1.947295289E0
6.756312583E0,-3.379477589E-1,9.063000074E-1,-1.328046516E0,1.642953420E0
6.766282583E0,-8.316377878E-2,-3.738604731E0,2.050448960E-1,3.745146854E0
6.776252583E0,-1.056554592E-1,-2.663019936E0,3.210764587E-1,2.684386028E0
6.786222583E0,-1.264791191E0,-9.122425327E-1,1.558827932E0,2.204955264E0
6.796192583E0,-5.581203520E-1,-5.671679315E-1,1.275904555E0,1.503698848E0
6.806162583E0,-1.844759993E-3,-3.524127691E0,2.746117349E0,4.467733193E0
6.816132583E0,-4.209848724E-1,-1.539761331E0,1.639607801E0,2.288319680E0
6.826102583E0,-1.748280935E-2,1.165809086E0,-7.677002388E-1,1.395987153E0
6.836072583E0,-7.061618755E-1,1.247360203E-1,1.478261486E0,1.643009644E0
6.846043583E0,-3.249884287E-1,8.080904657E-1,2.126018375E-1,8.965641197E-1
6.856013583E0,1.400454196E-1,-5.120921302E-1,-2.973829561E-1,6.085126884E-1
6.865983583E0,-3.907844786E-1,-4.340844262E-1,-1.971300464E0,2.056007616E0
6.875953583E0,-7.937818904E-1,6.556918529E-1,-3.476198357E0,3.625462248E0
6.885923583E0,-3.387159003E-1,-7.176273152E-1,-7.238209784E-1,1.074073663E0
6.895893583E0,8.339203946E-2,-2.193489397E0,6.196949315E-1,2.280870837E0
6.905863583E0,8.647764440E-1,-2.625082324E0,1.467166395E0,3.129132905E0
6.915833583E0,4.714396557E-1,1.526481135E0,-2.339575063E0,2.833021616E0
6.925803583E0,-2.322565586E-1,2.069876042E0,-1.870803199E0,2.799684723E0
6.935774583E0,6.205651434E-1,-9.488920033E-2,-7.619050634E-1,9.872205342E-1
6.945744583E0,-2.477066199E-1,6.563511264E-1,-1.147062913E0,1.344584953E0
6.955714583E0,-5.190268914E-1,-2.649727169E-1,6.752972746E-1,8.919786229E-1
6.965684583E0,-3.288805912E-1,-8.007285288E-1,1.098259127E0,1.398392552E0
6.975654583E0,-4.178910010E-2,-9.907507583E-1,8.137494010E-1,1.282778812E0
6.985624583E0,-7.771024154E-1,-1.117929161E0,-9.292623156E-1,1.648387765E0
6.995594583E0,-9.502273612E-3,2.545494702E-1,-8.634051257E-1,9.001967214E-1
7.005564583E0,1.405732770E-1,-1.309015583E0,3.240257943E-1,1.355830137E0
7.015534583E0,-4.676402081E-2,-3.692170529E0,3.311408032E0,4.959811816E0
7.025505583E0,4.204978724E-1,-9.492194474E-1,3.978084172E0,4.111324568E0
7.035475583E0,2.598507752E-1,1.462116739E0,3.097031565E0,3.434663346E0
7.045445583E0,2.452001744E-1,3.486937353E-1,1.607789007E0,1.663338793E0
7.055415583E0,1.394649665E0,-8.719397217E-1,4.165848792E-2,1.645315166E0
7.065385583E0,2.750478349E-1,-3.710239595E-1,5.934473652E-1,7.519906018E-1
7.075355583E0,-1.198649973E-2,-9.928528324E-1,-7.376256698E-1,1.236928475E0
7.085325583E0,3.529233918E-1,6.021111846E-2,-1.532862786E0,1.574118363E0
7.095295583E0,-3.942735853E-1,1.014515889E0,-4.848990691E-1,1.191562527E0
7.105265583E0,-2.995081998E-1,-3.988736629E-2,9.195869279E-1,9.679546899E-1
7.115236583E0,4.706779462E-1,1.902809688E-1,8.365476948E-1,9.785482215E-1
7.125206583E0,8.698537275E-3,1.487180244E0,-5.020249790E-1,1.569652772E0
7.135176583E0,5.123279922E-1,-5.883345598E-1,-2.439060760E-1,8.173785535E-1
7.145146583E0,3.653926523E-1,3.801684201E-2,-6.119526333E-1,7.137528256E-1
7.155116583E0,-3.066398660E-1,-8.286878675E-2,-1.482367986E0,1.516017839E0
7.165086583E0,3.262230317E-1,-1.195208886E0,7.160506135E-1,1.430969681E0
7.175056583E0,2.275032108E-1,-3.783315173E-1,2.752752185E-1,5.202584875E-1
7.185026583E0,-2.540786963E-1,1.052226045E0,-2.352790940E0,2.589857301E0
7.194997583E0,-4.161419160E-1,-1.640044295E0,3.966400266E-2,1.692481202E0
7.204967583E0,-4.011002827E-1,-2.445121399E-1,-3.061064172E-1,5.606859744E-1
7.214937583E0,-3.883768510E-1,-2.069776931E-1,1.473755622E-1,4.641076386E-1
7.224907583E0,-5.989441864E-2,-1.554607119E0,1.759897306E0,2.348963423E0
7.234877333E0,2.539214427E-1,-7.207222465E-1,-5.906810474E-1,9.658264624E-1
7.244847333E0,3.515751701E-2,-4.215474111E-1,-4.695735168E-1,6.320107266E-1
7.254817333E0,-1.452771061E-1,-1.583516631E-1,8.445630580E-1,8.714742944E-1
7.264787333E0,2.079657630E-1,1.707325575E-1,-2.988944614E-1,4.021657168E-1
7.274757333E0,5.737178363E-2,-4.746497771E-1,-1.772484022E0,1.835833201E0
7.284728333E0,-2.626075912E-2,-4.524306500E-1,-1.451126897E0,1.520247477E0
7.294698333E0,-9.232512318E-2,-2.337737283E-1,-1.644276803E0,1.663376171E0
7.304668333E0,-5.298227153E-1,-1.941249284E0,1.166204942E0,2.325767585E0
7.314638333E0,-1.242069934E-1,-1.010892077E0,2.564412784E0,2.759264956E0
7.324608333E0,4.338114343E-1,9.252721757E-1,1.415986885E0,1.746235900E0
7.334578333E0,3.547795174E-1,1.539969492E0,2.440337791E0,2.907339519E0
7.344548333E0,3.453378721E-1,1.524236096E0,6.635303378E-2,1.564275119E0
7.354518333E0,3.050094430E-1,-8.266620997E-1,1.444004989E-1,8.928899660E-1
7.364488333E0,2.362677851E-1,-8.625034851E-1,6.537672418E-1,1.107766372E0
7.374459333E0,6.548239799E-1,-2.204078704E-2,-5.747052848E-1,8.715310696E-1
7.384429333E0,-7.077309758E-1,-1.042957331E0,3.457897156E-1,1.306986479E0
7.394399333E0,4.292652972E-2,-1.401095197E-1,-1.181301284E-1,1.882235152E-1
7.404369333E0,-3.351192780E-1,1.351910757E0,-3.785832399E-1,1.443361665E0
7.414339333E0,8.674556382E-2,-1.643193313E0,1.126633911E0,1.994219904E0
7.424309333E0,1.494976629E-1,-2.590986625E0,2.802615486E0,3.819713969E0
7.434279333E0,-3.007508793E-1,6.300339782E-1,5.073763508E-1,8.630322511E-1
7.444249333E0,-2.358284399E-1,-5.789813536E-1,1.766927998E0,1.874264926E0
7.454220333E0,4.776847013E-1,-7.925131908E-1,6.008856082E-1,1.103323772E0
7.464190333E0,1.019685266E0,-5.157592115E-1,-7.932268435E-1,1.391033584E0
7.474160333E0,1.358221950E-1,-6.256871581E-2,-2.636227702E0,2.640465680E0
7.484130333E0,1.053627330E-1,-1.450708529E0,-4.631678921E-1,1.526493052E0
7.494100333E0,7.250738174E-1,-8.118896940E-1,5.893484670E-1,1.237832190E0
7.504070333E0,2.093525398E-1,4.321209311E-2,-5.061671466E-1,5.494551403E-1
7.514040333E0,5.657510050E-2,-8.834403178E-1,-6.404513776E-1,1.092632374E0
7.524010333E0,8.065945286E-1,4.964362103E-1,1.353396535E-2,9.472205724E-1
7.533980333E0,-2.035693511E-1,1.459547765E0,-1.048720931E0,1.808738718E0
7.543951333E0,4.505494545E-1,-1.472174535E0,9.740964264E-1,1.821855241E0
7.553921333E0,1.737215079E-1,-8.289623943E-1,1.693552458E-1,8.637354993E-1
7.563891333E0,6.247909261E-1,8.493557283E-1,-4.875566286E-1,1.161671348E0
7.573861333E0,1.024203922E0,-1.571351498E-2,4.270695215E-1,1.109787801E0
7.583831333E0,4.848141383E-1,-1.117116398E-1,-9.637439311E-1,1.084585914E0
7.593801333E0,-8.404758543E-2,-6.199299896E-1,-1.637442577E-1,6.466756301E-1
7.603771333E0,8.082167655E-3,5.232106107E-1,-5.346109271E-1,7.480798808E-1
7.613741333E0,3.509851860E-1,1.999877854E0,-2.854961514E-2,2.030644506E0
7.623711333E0,1.404376946E-2,3.489232385E-1,2.024908322E0,2.054798863E0
7.633682333E0,-1.462014413E-1,-9.089847565E-1,1.542017772E0,1.795952938E0
7.643652333E0,-1.066032929E-1,-2.577853194E-1,2.456769052E0,2.472555704E0
7.653622333E0,-2.694326075E-1,9.061076340E-1,1.299822591E0,1.607222369E0
7.663592333E0,4.960801148E-1,1.405653101E0,-1.444374533E0,2.075614105E0
7.673562333E0,7.828660890E-1,-7.493776962E-1,-1.194776192E0,1.613051888E0
7.683532333E0,-3.324131866E-1,-2.818230475E0,-1.349052054E0,3.142111230E0
7.693502333E0,-5.028824732E-2,-6.940665445E-1,-1.675151855E0,1.813943498E0
7.703472333E0,-3.044558944E-1,1.174247495E0,-2.457912183E0,2.740963858E0
7.713442333E0,2.400420166E-1,-2.722725855E0,-5.500645334E-1,2.788086664E0
7.723413333E0,2.986390842E-1,-2.930568352E0,1.926061141E-1,2.952035447E0
7.733383333E0,1.315240529E-1,-1.160569104E0,-6.734156406E-1,1.348223960E0
7.743353333E0,-2.568989546E-1,-7.129486656E-1,2.164557374E0,2.293382109E0
7.753323333E0,1.823761180E-2,-1.205467826E0,3.373445821E0,3.582404499E0
7.763293333E0,-6.727617757E-1,-1.785711301E0,2.693723958E0,3.301139503E0
7.773263333E0,-2.030745305E-1,-4.304667538E-1,5.452060819E-2,4.790755554E-1
7.783233333E0,2.856876478E-1,2.721937358E-1,-2.213023190E0,2.247927601E0
7.793203333E0,8.923708434E-1,-9.335149956E-1,2.442486643E0,2.762882005E0
7.803174333E0,9.528550268E-1,-1.322473535E-1,1.023197835E0,1.404405879E0
7.813144333E0,1.473104534E0,3.168676329E-1,2.992851723E0,3.350761631E0
7.823114333E0,2.494553760E-2,1.464698870E0,1.095560637E0,1.829267112E0
7.833084333E0,-3.133241471E-1,1.293768091E0,-1.405624450E0,1.935920450E0
7.843054333E0,1.606887951E-2,-3.136317837E-1,-5.901243925E-2,3.195396261E-1
7.853024333E0,-1.761467868E-1,1.601844728E-1,-1.248440183E0,1.270940458E0
7.862994333E0,5.689359833E-1,1.053226796E-1,9.931601036E-1,1.149412029E0
7.872964333E0,-3.323178039E-1,2.514402718E0,-1.824454660E0,3.124306476E0
7.882934333E0,-8.482177871E-1,1.683653415E0,-3.194540318E0,3.709346314E0
7.892905333E0,-3.063621598E-1,-1.831043010E0,-2.249439064E0,2.916599455E0
7.902875333E0,-5.829421113E-1,-1.337883579E0,-2.432470948E0,2.836665100E0
7.912845333E0,-3.779398269E-1,3.445916212E-1,1.086001024E0,1.200408315E0
7.922815333E0,3.022854079E-1,-9.160777214E-1,2.881780354E0,3.038952594E0
7.932785333E0,3.257618326E-1,-2.037129003E-1,9.761663407E-1,1.049056930E0
7.942755333E0,1.479661310E-1,-6.325012109E-1,1.220125042E0,1.382265125E0
7.952725333E0,-1.121202870E-1,-3.703953838E-1,-4.161457533E-1,5.682789694E-1
7.962695333E0,4.614485183E-1,-1.738473693E-1,-7.976391524E-1,9.377557573E-1
7.972665333E0,1.032080340E-1,-4.572723492E0,2.696383857E0,5.309513908E0
7.982636333E0,-5.385241762E-2,-1.787596736E0,-8.906040341E-1,1.997893320E0
7.992606333E0,-7.039569636E-1,1.115203773E0,-1.980151979E0,2.379125201E0
8.002576333E0,-3.484456672E-1,-1.085390575E0,-9.291091186E-1,1.470622602E0
8.012546333E0,5.291023383E-1,-3.402590683E0,-2.676732534E-1,3.453870526E0
8.022516333E0,4.701914214E-1,-1.396142605E0,-7.420292079E-2,1.475059395E0
8.032486333E0,5.546721393E-1,2.206964305E0,3.655129588E-1,2.304767309E0
8.042456333E0,4.519625804E-1,1.435001446E0,7.087708300E-1,1.663086111E0
8.052426333E0,2.034773306E-1,-6.718547264E-1,-2.557694918E-1,7.471344125E-1
8.062396333E0,-4.756446809E-2,-3.896479261E-1,-1.078911860E0,1.148102211E0
8.072367333E0,-1.124404952E-2,1.397051847E0,1.992865580E-1,1.411238968E0
8.082337333E0,1.527997318E-1,1.684751522E0,-5.709835321E-1,1.785429260E0
8.092307333E0,5.432301615E-1,-1.060132065E0,2.354328758E-1,1.214251886E0
8.102277333E0,4.636817893E-1,4.624691498E-1,-3.468001145E-1,7.410457716E-1
8.112247333E0,5.708412255E-1,8.821311262E-1,1.518624816E0,1.846682528E0
8.122217333E0,5.460594099E-1,1.489016855E-1,3.340054711E0,3.387671481E0
8.132187333E0,-2.775988289E-1,1.040364676E0,-2.333389878E-2,1.077016360E0
8.142157333E0,-2.074799690E-1,-4.166550457E-1,-4.663791829E-1,6.589073584E-1
8.152127333E0,5.979793958E-2,-1.301935190E0,-8.322324497E-1,1.546357618E0
8.162098333E0,7.413624061E-1,-7.270761234E-1,-9.197600055E-1,1.387161265E0
8.172068333E0,6.784647844E-1,-9.760341936E-1,4.853598297E-2,1.189669262E0
8.182038333E0,-1.056947818E-1,-8.729805261E-1,-1.188300986E0,1.478284688E0
8.192008333E0,3.212587456E-1,-2.177233552E0,6.172086954E-2,2.201672680E0
8.201978333E0,5.811698203E-1,-1.613800822E0,4.975799257E-1,1.785972350E0
8.211948333E0,2.033288113E-1,3.993537194E-1,-8.873874807E-1,9.941240062E-1
8.221918333E0,1.052543841E0,-1.035366476E-2,-1.693364178E0,1.993850038E0
8.231888083E0,6.743169889E-1,-1.669229503E0,-2.532698071E0,3.107344534E0
8.241859083E0,9.321446275E-1,-2.512926881E0,6.942264658E-1,2.768690214E0
8.251829083E0,1.776217470E-1,5.586801133E-1,-1.317195253E0,1.441761523E0
8.261799083E0,1.191216700E-1,1.127315696E0,-1.237166752E0,1.677978612E0
8.271769083E0,2.423355869E-1,-1.500324493E0,8.006358504E-2,1.521877228E0
8.281739083E0,4.694980878E-1,-1.090161903E0,-8.909501892E-1,1.484140717E0
8.291709083E0,6.966627813E-1,1.370775045E0,3.662859607E-1,1.580673483E0
8.301679083E0,-6.939914078E-2,2.221480895E0,-3.199016361E0,3.895317611E0
8.311649083E0,8.921606360E-1,-5.716258487E-1,-2.664049339E0,2.867030797E0
8.321619083E0,4.064463188E-1,-1.403488462E0,-3.369186709E0,3.672383089E0
8.331590083E0,1.226661059E-1,-1.281229322E0,-1.077663479E0,1.678676301E0
8.341560083E0,5.544227555E-2,1.412873535E0,7.376057893E-1,1.594787689E0
8.351530083E0,-8.466054174E-1,2.610592047E0,1.064275694E0,2.943571695E0
8.361500083E0,-8.973714553E-2,4.567482340E-1,2.109456137E0,2.160202976E0
8.371470083E0,1.728235949E-1,-7.507710877E-1,2.883325773E0,2.984475286E0
8.381440083E0,1.761809199E-1,2.156219244E0,5.685581070E-1,2.236868227E0
8.391410083E0,8.309321751E-1,1.402297092E0,-5.356891537E-1,1.715764635E0
8.401380083E0,9.563694227E-1,2.938857365E-1,-9.994897145E-1,1.414210376E0
8.411350083E0,4.323599361E-2,-1.462919562E0,-1.749181699E0,2.280710330E0
8.421321083E0,4.154945927E-1,-1.411466111E0,-1.559790968E0,2.144252831E0
8.431291083E0,-3.310621874E-1,-1.715827426E-1,-1.059213760E0,1.122932143E0
8.441261083E0,-1.090432629E-3,-1.569629493E-1,5.734925723E-1,5.945858113E-1
8.451231083E0,1.417215970E-1,-2.259150705E0,4.942212850E-1,2.316916398E0
8.461201083E0,1.050822128E-1,-2.369197642E0,2.700659341E-1,2.386854698E0
8.471171083E0,9.338792771E-2,-8.736055934E-1,7.438681573E-1,1.151194108E0
8.481141083E0,-1.170883007E-1,-2.157417923E-2,1.015721000E0,1.022675054E0
8.491111083E0,2.195718648E-1,8.190732908E-1,-4.479727328E-2,8.491758683E-1
8.501081083E0,6.792543778E-1,-7.316097620E-1,3.527379620E-1,1.058802826E0
8.511051083E0,7.298282616E-2,-4.291984928E-1,-2.465431702E-1,5.003212707E-1
8.521022083E0,-4.218521972E-1,1.656055726E0,9.498743355E-2,1.711578937E0
8.530992083E0,-2.127020442E-1,5.695261136E-1,-8.861373460E-1,1.074635543E0
8.540962083E0,-3.489043812E-1,-1.077559984E0,-3.635459554E-1,1.189552625E0
8.550932083E0,-2.856803753E-1,-3.086686671E-1,-2.933308357E-1,5.127695409E-1
8.560902083E0,2.573412234E-1,1.513876000E0,-2.430510376E0,2.874965345E0
8.570872083E0,3.761215621E-1,7.042243275E-1,-7.412281394E-1,1.089411992E0
8.580842083E0,1.626587586E-1,8.164411667E-1,-8.142317963E-1,1.164477337E0
8.590812083E0,6.859854001E-1,1.014041680E0,-1.116314160E0,1.656808318E0
8.600782083E0,-4.073024974E-1,-1.954390901E-1,2.513747245E-1,5.169922770E-1
8.610753083E0,9.896083586E-2,2.299493569E0,1.064854569E0,2.536016399E0
8.620723083E0,2.122968687E-1,6.270998454E-1,1.867512971E-1,6.878955034E-1
8.630693083E0,1.795245771E-1,-1.755085047E0,-8.215051478E-1,1.946130341E0
8.640663083E0,2.861541459E-1,-1.063820489E0,-2.538438867E0,2.767177282E0
8.650633083E0,9.361121826E-2,1.166061393E0,1.163387169E0,1.649827851E0
8.660603083E0,-1.380081034E-1,1.727080393E0,2.038169222E0,2.675067607E0
8.670573083E0,-1.259306430E-1,6.449724448E-1,1.205487122E0,1.372970205E0
8.680543083E0,-6.451808980E-1,1.056903525E0,-4.270233285E-1,1.309829140E0
8.690513083E0,-8.480731416E-1,-5.889982188E-1,-2.030997028E0,2.278397657E0
8.700484083E0,-1.091535268E0,-2.906488641E0,1.784706457E0,3.581103545E0
8.710454083E0,-1.460300448E0,-3.548324347E-1,-5.366825956E-1,1.595747995E0
8.720424083E0,-7.841964036E-1,5.493079036E-2,-1.227739871E0,1.457849986E0
8.730394083E0,-1.996713048E-1,-9.952572075E-1,2.049620410E0,2.287214324E0
8.740364083E0,-9.952187620E-2,1.097403972E0,1.553353184E0,1.904496310E0
8.750334083E0,2.926327951E0,2.369206998E0,1.103863099E0,3.923652739E0
8.760304083E0,-2.253213588E-1,9.516103739E-1,-1.331608640E0,1.652123963E0
8.770274083E0,-2.162304003E-1,-3.345814803E-1,3.680114740E-1,5.423401128E-1
8.780244083E0,-1.914224550E-1,2.287924853E0,1.301442854E0,2.639127923E0
8.790215083E0,-1.352529539E0,1.650114370E0,2.502596605E-1,2.148218678E0
8.800185083E0,2.481028784E-1,-6.350605372E-1,5.060706675E-2,6.836797491E-1
8.810155083E0,-1.458013017E0,1.068209701E0,-2.304545563E-1,1.822082113E0
8.820125083E0,-1.002082516E0,1.767125634E0,8.806479800E-1,2.214146165E0
8.830095083E0,-2.847437975E-1,6.931537941E-1,3.983770005E0,4.053635980E0
8.840065083E0,-9.550611082E-1,1.001583602E0,1.918524081E0,2.365596348E0
8.850035083E0,1.482141991E-1,-1.273435861E-2,1.556412447E0,1.563505458E0
8.860005083E0,1.048547561E-1,3.047293687E0,-6.754066175E-1,3.123006153E0
8.869975083E0,7.508712944E-2,1.684765263E0,6.009165984E-1,1.790299647E0
8.879945083E0,-2.360547271E-1,-3.417829111E-1,-2.700589174E-1,4.954484952E-1
8.889916083E0,-1.377449422E-1,7.033142084E-1,-2.418076272E0,2.522046273E0
8.899886083E0,-3.895007224E-1,7.264323449E-1,-5.085785383E-1,9.685385352E-1
8.909856083E0,-6.808948141E-1,2.296123234E0,1.683699900E-1,2.400864033E0
8.919826083E0,2.144945081E-2,-5.898042575E-1,-1.106383249E0,1.253958944E0
8.929796083E0,-3.146157605E-1,-1.565513638E0,-2.781339807E0,3.207127554E0
8.939766083E0,-1.989583465E-1,1.982366905E-1,1.722268719E0,1.745019126E0
8.949736083E0,-7.476317176E-1,-6.595612478E-1,3.722771348E0,3.853959098E0
8.959706083E0,-6.230032861E-1,-3.135990393E-1,4.294826674E0,4.351093382E0
8.969676083E0,-6.177567257E-1,5.434557179E-1,-3.038452989E-1,8.770914747E-1
8.979647083E0,-2.756219218E-1,3.069264892E-1,1.062439084E-1,4.259801423E-1
8.989617083E0,3.111303449E-3,3.517445201E-1,2.847675884E-1,4.525775812E-1
8.999587083E0,2.811404143E-1,-3.023252859E0,2.159960877E0,3.726194946E0
9.009557083E0,-5.692025067E-1,1.056706474E0,-2.744186014E-1,1.231229318E0
9.019527083E0,-9.845099520E-1,2.682734116E0,-1.286665186E0,3.133979816E0
9.029497083E0,-2.048807062E0,-9.192419422E-1,-3.622595680E-1,2.274609443E0
9.039467083E0,-1.368159146E0,-1.716064531E0,-6.752528358E-1,2.296236773E0
9.049437083E0,-7.908366479E-1,5.325436440E-1,-7.197811371E-1,1.194617186E0
9.059407083E0,1.884746908E-1,1.654080829E0,8.120472765E-1,1.852276134E0
9.069377083E0,1.109126908E0,-1.307085418E0,2.892229913E0,3.362086950E0
9.079348083E0,2.165344920E-1,1.349479485E0,-1.707931346E0,2.187466926E0
9.089318083E0,-1.720771247E-1,7.410819590E-2,-8.422674412E-1,8.628539876E-1
9.099288083E0,5.486172013E-2,-1.290496867E0,9.538703227E-1,1.605696286E0
9.109258083E0,9.192544406E-1,3.895909157E-1,7.134521109E-1,1.227120093E0
9.119228083E0,2.217441419E-1,-3.509817508E-1,2.364188917E0,2.400364116E0
9.129198083E0,-4.684105422E-1,-1.733339837E-1,1.408179098E-1,5.189246474E-1
9.139168083E0,1.065387908E-1,-1.602549317E0,1.584635203E0,2.256232159E0
9.149138083E0,-5.492874384E-3,-6.457597724E-1,-9.751752377E-2,6.531045266E-1
9.159108083E0,1.384557078E-1,-2.470091933E-1,7.318772721E-1,7.847470077E-1
9.169079083E0,1.290431159E-1,-2.092927228E0,1.625860997E0,2.653379070E0
9.179049083E0,9.902595922E-2,7.903900668E-1,-1.226790867E0,1.462716114E0
9.189019083E0,3.433554832E-1,-3.792732114E-1,-4.742431033E-1,6.976013745E-1
9.198989083E0,-1.284160385E-1,-3.246087032E0,1.280057248E0,3.491721389E0
9.208959083E0,-1.520255604E-1,1.124013481E0,1.284259057E-1,1.141495199E0
9.218929083E0,-8.888565206E-1,4.501888275E-2,1.306718797E0,1.581014430E0
9.228899000E0,-5.468593455E-1,-3.927545518E-1,-1.777672842E0,1.900902947E0
9.238869000E0,1.298405664E-1,1.540496911E0,-1.743079544E0,2.329874589E0
9.248839000E0,-4.186098430E-2,-2.220493885E0,1.814993865E0,2.868195977E0
9.258809000E0,4.740834012E-1,-7.027511215E-1,4.710306430E-1,9.697855829E-1
9.268780000E0,-2.866835017E-1,7.394155025E-2,1.619755919E0,1.646591637E0
9.278750000E0,-8.916513435E-1,5.951796028E-1,-9.798179269E-3,1.072089960E0
9.288720000E0,-3.435756309E-1,7.299175778E-1,1.014503610E-1,8.130904379E-1
9.298690000E0,-5.789737523E-1,-1.003814608E0,-5.429964191E-1,1.279726331E0
9.308660000E0,-3.774534848E-1,-6.495420438E-1,-2.267667174E-2,7.515917983E-1
9.318630000E0,-2.194202209E-1,5.243905789E-1,6.172262371E-1,8.391060364E-1
9.328600000E0,-5.945963430E-1,5.340466708E-1,7.853255010E-1,1.120485074E0
9.338570000E0,-7.895906062E-1,-4.820736945E-2,4.169082302E-1,8.941978239E-1
9.348540000E0,-3.397263723E-1,2.294368485E-1,6.318594790E-1,7.531943153E-1
9.358510000E0,-7.376896968E-1,-5.153975612E-1,1.732837561E0,1.952574390E0
9.368481000E0,-3.314111931E-1,9.377875561E-1,2.538475120E-1,1.026507398E0
9.378451000E0,-4.140971082E-1,1.283017401E0,4.686987734E-1,1.427336192E0
9.388421000E0,-1.293063794E0,-1.175511663E0,1.451461358E0,2.271691379E0
9.398391000E0,-7.669681674E-1,-2.364517531E-1,4.873361886E-1,9.389601493E-1
9.408361000E0,-1.413681036E0,4.555536479E-1,5.814529717E-1,1.595026882E0
9.418331000E0,-1.216661590E0,1.224561909E-1,-1.733401818E0,2.121306862E0
9.428301000E0,-8.960434064E-1,-5.474025884E-1,-1.437701105E0,1.780316783E0
9.438271000E0,-1.129491518E0,-1.841492569E0,-5.102350545E-1,2.219726511E0
9.448241000E0,-1.158999857E0,-3.925881985E-1,-7.801600707E-1,1.451225654E0
9.458211000E0,-1.498964723E0,-4.620148212E-1,-6.663943040E-1,1.704240096E0
9.468182000E0,-1.083951941E0,-1.569794970E0,-1.705662042E0,2.559001965E0
9.478152000E0,-9.049711911E-2,-1.049685137E0,-8.209537554E-1,1.335662264E0
9.488122000E0,-1.209689735E0,5.010783148E-1,-1.347339989E0,1.878763896E0
9.498092000E0,-4.825721331E-1,-2.082064855E0,-2.457228059E-1,2.151336706E0
9.508062000E0,-4.396068290E-1,-9.777693549E-1,1.360956985E0,1.732481166E0
9.518032000E0,-1.179128458E0,-9.442092606E-1,1.308169491E0,1.998294890E0
9.528002000E0,-8.798205259E-1,-1.197191677E0,2.426553565E-1,1.505401505E0
9.537972000E0,-7.120642743E-1,3.331486201E-1,1.200697668E0,1.435164946E0
9.547942000E0,-1.969147812E0,1.276710302E-2,-3.485355681E-1,1.999795776E0
9.557912000E0,-2.884690952E-2,-1.047749709E0,2.009010912E0,2.265995684E0
9.567883000E0,-1.940137144E0,-3.368832368E-1,6.884570181E-2,1.970371077E0
9.577853000E0,-7.264529563E-1,9.006963283E-2,-1.997708829E0,2.127601232E0
9.587823000E0,-2.888350943E-1,-9.193170789E-1,-5.957125765E-1,1.132891467E0
9.597793000E0,-1.762675903E0,-9.595166865E-1,1.614065409E-2,2.006977611E0
9.607763000E0,-3.434199122E-1,-9.850611252E-1,1.632194701E0,1.937096332E0
9.617733000E0,-7.622010056E-1,7.287735701E-2,1.986661685E0,2.129104537E0
9.627703000E0,-6.087396248E-1,9.627066350E-1,2.868473260E0,3.086341984E0
9.637673000E0,-1.015224919E-1,9.526561484E-1,-1.613807546E0,1.876761932E0
9.647643000E0,-7.254046237E-1,-4.327527228E-1,-4.530311590E-1,9.585009224E-1
9.657613000E0,-2.155657911E-1,-5.007160798E-1,-9.050291151E-1,1.056533436E0
9.667583000E0,3.578691496E-2,-2.282451859E-1,-2.084641138E0,2.097404406E0
9.677554000E0,-5.240702245E-2,-8.007484093E-1,-2.108253365E0,2.255809558E0
9.687524000E0,2.186008432E-1,-1.394187588E0,-1.124467517E0,1.804431367E0
9.697494000E0,5.477008330E-2,-1.346795028E0,-6.340176862E-1,1.489575455E0
9.707464000E0,6.891466241E-2,-2.469461311E0,1.228254426E0,2.758912345E0
9.717434000E0,4.316693068E-1,-1.736655208E-1,-1.416502025E0,1.490964819E0
9.727404000E0,1.767974905E-1,-7.431278998E-1,-2.235091166E0,2.362017983E0
9.737374000E0,3.195727741E-1,-3.255123611E0,-1.269700660E0,3.508574675E0
9.747344000E0,1.209835513E-1,-1.232827241E0,2.741677558E-1,1.268726914E0
9.757314000E0,1.547332233E-2,-5.485004032E-1,1.881277902E0,1.959667997E0
9.767284000E0,-3.889486722E-1,-7.539651293E-1,2.388788738E0,2.534966690E0
9.777255000E0,-7.145294604E-1,2.475610828E0,-1.203607827E0,2.843918620E0
9.787225000E0,5.276463085E-1,-2.371162891E-2,2.359310585E-1,5.784775991E-1
9.797195000E0,5.228993561E-1,-1.473031444E0,1.845771854E0,2.418701947E0
9.807165000E0,3.944665069E-1,4.482601234E-1,1.363238568E0,1.488274288E0
9.817135000E0,6.285138483E-1,9.773676512E-1,2.206139263E0,2.493456964E0
9.827105000E0,5.060198698E-1,-6.050540882E-1,9.857084119E-1,1.262445100E0
9.837075000E0,6.322658604E-1,1.153606824E0,1.751528771E0,2.190530040E0
9.847045000E0,2.167544935E-1,2.414286399E0,2.209031880E0,3.279570578E0
9.857015000E0,-8.238340938E-1,4.162261525E-1,1.748848992E0,1.977478096E0
9.866985000E0,-5.170544794E-1,1.404818119E0,4.299271143E0,4.552427006E0
9.876955000E0,-1.103713264E0,-9.539036518E-1,2.151464288E0,2.599406419E0
9.886926000E0,-4.871757190E-1,-7.900944901E-1,1.772876371E0,2.001169685E0
9.896896000E0,2.021750460E-1,2.490237637E0,2.521887154E0,3.549939867E0
9.906866000E0,3.988921913E-1,3.967467090E0,-8.347420746E-1,4.073905304E0
9.916836000E0,1.576310230E0,9.445621401E-1,-2.243859651E0,2.900320277E0
9.926806000E0,1.440199767E0,5.962847266E-1,-3.593014031E0,3.916564907E0
9.936776000E0,1.439955499E0,-1.496908842E0,-3.348555393E0,3.940435400E0
9.946746000E0,-9.735691537E-1,-1.534202676E0,-2.282631953E0,2.917537212E0
9.956716000E0,-5.669136507E-1,8.585209465E-1,-3.825333849E0,3.961266005E0
9.966686000E0,7.270607744E-1,-2.966769049E0,-1.192220374E0,3.278982369E0
9.976656000E0,1.023504668E0,-2.558032887E0,-1.341483418E0,3.064420307E0
9.986627000E0,1.631110189E0,-1.128104485E0,1.399918152E0,2.427531876E0
9.996597000E0,1.336730801E0,-5.791374743E-2,1.835732769E0,2.271589320E0
1.000656700E1,9.389339758E-1,1.201766539E0,2.604289041E0,3.017973034E0
1.001653700E1,9.500860778E-1,-9.674101353E-2,-1.398960378E0,1.693845483E0
1.002650700E1,1.064205601E0,-1.409484197E0,-4.694601393E0,5.015821120E0
1.003647700E1,6.299824496E-1,-8.125688481E-1,-3.760672415E0,3.898692477E0
1.004644700E1,7.562849390E-1,6.635502183E-1,-3.206736440E0,3.360866614E0
1.005641700E1,5.833038347E-1,9.402293533E-2,-1.002847770E0,1.163953318E0
1.006638700E1,3.146625017E-1,2.761724737E-1,1.404069675E0,1.465160530E0
1.007635700E1,3.909348983E-1,-1.294713879E-1,5.877124161E-1,7.176341818E-1
1.008632800E1,7.413809710E-1,-1.822329489E0,2.933227081E0,3.531904814E0
1.009629800E1,6.063833065E-1,1.286122857E0,1.746397839E0,2.252047542E0
1.010626800E1,1.175457211E0,1.105745317E0,8.707983452E-1,1.833756287E0
1.011623800E1,1.927912955E0,-8.304718530E-1,-2.485288262E0,3.253181459E0
1.012620800E1,6.757257293E-1,-1.120957141E0,3.946126800E0,4.157531346E0
1.013617800E1,3.614623732E-1,-1.372955471E-2,1.483874229E0,1.527326512E0
1.014614800E1,1.610993428E-1,2.610638532E-1,5.350646710E-1,6.167670029E-1
1.015611800E1,7.067517865E-1,-4.899253356E-1,2.256155176E0,2.414489822E0
1.016608800E1,1.965251812E0,-1.080614277E0,7.936934513E-1,2.379052583E0
1.017605800E1,7.799189461E-1,-1.911779317E0,3.006278100E0,3.647037392E0
1.018602800E1,1.833405139E0,5.021208733E-1,4.356969128E0,4.753596508E0
1.019599900E1,1.054521223E0,-2.677427768E0,4.369756404E0,5.232151135E0
1.020596900E1,2.735559178E-1,-1.846348974E-1,2.744228114E0,2.764002682E0
1.021593900E1,5.716692643E-1,1.776287051E0,1.180131841E-1,1.869740236E0
1.022590900E1,2.892221434E-1,-2.201497743E0,-1.541267574E-1,2.225757583E0
1.023587896E1,1.163681284E0,-3.096681901E0,-4.773842275E-1,3.342377691E0
1.024584896E1,9.814013529E-1,1.066885599E0,-4.438690984E0,4.669408008E0
1.025581896E1,7.035575987E-1,1.568489286E-1,-3.975571039E0,4.040391066E0
1.026578896E1,7.624699775E-1,-2.452069060E0,-1.758645417E0,3.112368366E0
1.027575896E1,5.165051700E-1,-3.517413041E-1,-2.404603702E0,2.484475498E0
1.028572896E1,4.280993624E-1,-1.267465854E-1,-3.069951940E-1,5.418300565E-1
1.029569896E1,1.429417647E-2,2.034107162E0,-5.157828927E-2,2.034811192E0
1.030566996E1,1.214291932E0,2.144114631E0,-3.399927860E-1,2.487433927E0
1.031563996E1,5.069120087E-1,-2.244217208E0,2.281809250E0,3.240389501E0
1.032560996E1,-3.782774305E-1,-2.779055007E0,2.906984192E-1,2.819706744E0
1.033557996E1,9.855639126E-1,9.420381895E-1,-1.087065217E0,1.743698071E0
1.034554996E1,3.697475854E-1,1.812232225E0,1.376346856E-1,1.854681164E0
1.035551996E1,8.851483626E-1,1.468105750E0,-1.076391710E0,2.024213731E0
1.036548996E1,2.180001624E0,6.629155031E-1,-1.820565092E0,2.916559840E0
1.037545996E1,-2.988475375E-2,-2.824705097E-1,-9.022645515E-1,9.459196627E-1
1.038542996E1,2.769099538E-1,1.350488715E0,-8.885136545E-1,1.640108352E0
1.039539996E1,1.237868564E0,5.552936983E-1,1.003630128E0,1.687584992E0
1.040536996E1,-2.576552188E-1,7.323120126E-1,1.649110111E0,1.822698893E0
1.041534096E1,8.437354577E-1,4.736633518E-1,4.445222908E-1,1.064822314E0
1.042531096E1,1.546688381E0,-8.838388056E-2,1.171471530E0,1.942267284E0
1.043528096E1,-6.363193696E-1,4.593467367E-1,6.647325253E-1,1.028479992E0
1.044525096E1,-3.896246103E-1,-1.954100295E0,2.137264325E0,2.922022261E0
1.045522096E1,-5.265824077E-1,2.069621688E0,5.574548292E-1,2.207120035E0
1.046519096E1,-1.171770542E0,1.655400253E0,8.547927618E-2,2.029951454E0
1.047516096E1,-1.857927923E-1,-5.354891789E-1,2.020786035E0,2.098771979E0
1.048513096E1,-3.065567990E-1,1.377103486E0,2.141741538E0,2.564653563E0
1.049510096E1,9.890689529E-2,-8.876415423E-1,2.199437184E0,2.373860571E0
1.050507096E1,2.890304279E-1,-1.008955772E0,2.657765921E0,2.857490162E0
1.051504096E1,-9.981985762E-1,1.077150679E0,-7.755220592E-2,1.470601349E0
1.052501196E1,2.884957731E-2,-1.985452480E0,3.275733000E-1,2.012500464E0
1.053498196E1,5.483659172E-1,-1.534069067E0,-6.363413697E-1,1.749000692E0
1.054495196E1,-2.018265885E-1,-1.117894370E0,-1.958737137E0,2.264304079E0
1.055492196E1,4.163756219E-1,-1.243208095E0,-1.674234427E0,2.126498517E0
1.056489196E1,-3.587984549E-1,-4.274381885E-1,-7.190905809E-2,5.626816585E-1
1.057486196E1,3.767985235E-1,-1.136466881E0,-1.206175339E-1,1.203363074E0
1.058483196E1,8.569922651E-1,-1.134450468E0,1.288883035E0,1.919018782E0
1.059480196E1,-9.721376822E-1,2.044841480E-1,-1.273324764E-1,1.001538317E0
1.060477196E1,2.153848929E-1,7.975096366E-1,-5.022150135E-1,9.667637728E-1
1.061474196E1,-5.512467673E-1,-1.673340973E0,-3.684330583E-1,1.799912756E0
1.062471196E1,-8.633048460E-2,-2.961979302E0,-2.800266659E0,4.077041538E0
1.063468296E1,-5.443743154E-2,8.094899967E-1,-1.833316700E0,2.004816104E0
1.064465296E1,-6.561548062E-1,1.129452561E0,1.533195493E0,2.014172444E0
1.065462296E1,8.797634424E-1,1.179249204E0,2.799274387E0,3.162364541E0
1.066459296E1,5.649826808E-1,1.437030137E0,9.790735763E-1,1.828345184E0
1.067456296E1,-6.096445911E-1,-2.433179922E0,9.456953305E-1,2.680740704E0
1.068453296E1,-6.226544997E-1,-1.907699130E0,-1.095599813E0,2.286340646E0
1.069450296E1,-1.173396506E0,-7.388667414E-1,-3.841304934E-1,1.438867491E0
1.070447296E1,-5.261543184E-1,3.345095596E-1,7.680364537E-1,9.892497189E-1
1.071444296E1,-5.864278559E-1,2.407191972E0,-5.445839381E-1,2.536738553E0
1.072441296E1,-7.855603398E-1,9.188066170E-1,2.908166499E0,3.149403600E0
1.073438396E1,4.120963372E-1,-1.312723303E-1,-5.569426131E-1,7.051530969E-1
1.074435396E1,4.913347704E-1,1.829689964E0,-4.725795704E-1,1.952564128E0
1.075432396E1,-5.126822239E-1,-4.556600672E-1,2.614915186E0,2.703377626E0
1.076429396E1,4.677433018E-1,-1.205794685E0,-7.072517234E-1,1.474086029E0
1.077426396E1,1.308372097E0,2.029208657E0,2.718779862E-2,2.414594064E0
1.078423396E1,-7.497639048E-1,3.083149105E-2,1.163428684E0,1.384435913E0
1.079420396E1,-3.930589724E-1,-1.525838234E0,-5.256208330E-1,1.661010214E0
1.080417396E1,-4.605570372E-1,-1.230865792E0,1.196401134E0,1.777222286E0
1.081414396E1,-1.130337537E0,-2.115598637E0,2.567796568E0,3.513829784E0
1.082411396E1,1.010668202E-1,5.062554395E-1,1.158158004E0,1.268005929E0
1.083408396E1,1.649948309E-1,-2.348454645E0,3.285407218E0,4.041826704E0
1.084405496E1,-5.517764885E-1,-1.485676340E0,-7.811195987E-1,1.766872748E0
1.085402496E1,6.270327486E-1,6.372845256E-1,-3.207291341E-1,9.498256745E-1
1.086399496E1,-3.622281392E-1,-4.846491006E-1,6.176899213E-1,8.646587849E-1
1.087396496E1,-5.943924945E-2,-2.458523217E-1,7.487459046E-1,7.903143793E-1
1.088393496E1,2.201136093E-1,-1.040830114E0,-4.815620631E-1,1.167766821E0
1.089390496E1,-6.472054964E-1,-2.301368186E0,1.886899999E0,3.045580748E0
1.090387496E1,-5.435362633E-1,8.060492027E-1,-9.621938342E-1,1.367831847E0
1.091384496E1,4.790694682E-1,-3.715709665E-1,8.496665078E-1,1.043793904E0
1.092381496E1,-7.738663470E-1,-8.697470158E-2,-4.214339751E-1,8.854605113E-1
1.093378496E1,-5.211361283E-1,3.523391819E-1,-1.259542876E-1,6.415529954E-1
1.094375496E1,-2.166325060E-1,-2.486350116E-1,3.392759174E0,3.408748132E0
1.095372496E1,-9.546729261E-1,8.776556674E-1,1.688516836E0,2.129030054E0
1.096369596E1,-2.342776487E-1,7.513479155E-1,2.292240683E0,2.423587641E0
1.097366596E1,-1.018899108E0,7.009066173E-1,1.229968244E0,1.744203933E0
1.098363596E1,-9.332406150E-1,9.891524220E-1,-8.566170931E-3,1.359938947E0
1.099360596E1,-5.154148470E-1,7.569208968E-1,-5.456949091E-1,1.066004054E0
1.100357596E1,-5.284215762E-1,-4.809247166E-1,2.193676507E-1,7.474223113E-1
1.101354596E1,2.395972993E-1,1.651056357E0,1.075529830E0,1.984983218E0
1.102351596E1,4.289722055E-1,4.403011858E-2,1.259091471E0,1.330889604E0
1.103348596E1,1.004150749E-1,1.198059696E0,-8.492414153E-1,1.471951495E0
1.104345596E1,-2.577774622E-1,-4.711686373E-2,2.193098218E0,2.208698488E0
1.105342596E1,-7.622548731E-1,-2.255765167E0,1.242591798E0,2.685804043E0
1.106339596E1,-1.217346737E0,2.571248764E0,-2.149485590E0,3.565605361E0
1.107336696E1,-7.659068978E-1,1.251005942E-1,1.481272218E0,1.672253246E0
1.108333696E1,-5.352925297E-1,-4.575806437E0,1.773565757E0,4.936605932E0
1.109330696E1,4.981867570E-1,9.506865138E-1,-1.364149565E0,1.735770413E0
1.110327696E1,5.719074287E-1,1.691929856E-1,-1.467007935E-1,6.141868577E-1
1.111324696E1,-2.269043828E-1,-1.899350476E0,5.144035345E-1,1.980815192E0
1.112321696E1,6.377945490E-2,-1.056572573E0,-8.485824341E-1,1.356652338E0
1.113318696E1,1.098125007E-1,-2.017712154E0,-2.290149719E0,3.054178589E0
1.114315696E1,1.802343560E-1,-2.041090491E0,5.416474664E-1,2.119414258E0
1.115312696E1,1.006297043E-1,-1.819697365E0,2.041274679E0,2.736462525E0
1.116309696E1,9.646885487E-1,-2.182099605E0,1.228983573E0,2.683762901E0
1.117306696E1,-2.847213954E-2,-1.039751303E0,-1.081301617E0,1.500368828E0
1.118303796E1,-4.426273179E-1,-2.733587936E-1,-4.659119904E-2,5.223166782E-1
1.119300796E1,3.618858578E-1,-2.916973283E0,2.798234167E0,4.058301241E0
1.120297796E1,-1.234023800E-1,-2.850346307E0,3.036024055E0,4.166190620E0
1.121294796E1,-7.590270638E-2,7.531754628E-1,1.123613239E0,1.354821468E0
1.122291796E1,-9.238162190E-1,9.606337970E-1,1.642753603E0,2.115394313E0
1.123288796E1,-1.166737331E0,-1.728673759E-1,-2.999025214E-1,1.217004787E0
1.124285796E1,4.415058950E-1,-3.435429815E0,1.560596715E0,3.799021923E0
1.125282796E1,1.211687436E-1,-5.401947257E-1,-1.384016064E0,1.490634990E0
1.126279796E1,4.509260883E-1,1.503663545E0,-3.252747595E-1,1.603166262E0
1.127276796E1,8.087291278E-1,-1.068910490E0,4.188861094E0,4.398087050E0
1.128273796E1,5.383184638E-1,-1.775072000E0,1.648763956E0,2.481751389E0
1.129270896E1,3.780915256E-1,-7.353092954E-1,2.169680704E0,2.321884433E0
1.130267896E1,-9.472910357E-1,1.465154952E0,1.334004244E0,2.196271082E0
1.131264896E1,-1.029204241E0,8.485295168E-1,8.241182685E-2,1.336433844E0
1.132261896E1,-1.692373879E-1,-2.886916840E0,2.989611197E0,4.159411646E0
1.133258896E1,-4.674178677E-1,-1.343017142E0,-2.022218603E-1,1.436338466E0
1.134255896E1,3.764696907E-2,1.826161462E-1,-9.272064346E-1,9.457683244E-1
1.135252896E1,7.135572877E-2,-1.177950537E0,1.024429843E0,1.562726979E0
1.136249896E1,3.699202610E-1,-2.283395892E0,-3.492536062E-1,2.339383654E0
1.137246896E1,4.979288217E-1,-1.241658875E0,-4.230343580E-1,1.403070897E0
1.138243896E1,-3.468053039E-2,-8.615381098E-1,-7.332461053E-1,1.131857104E0
1.139240896E1,-6.882601131E-1,-1.335650528E0,2.006091982E-1,1.515885341E0
1.140237996E1,4.021309275E-2,-1.900502377E0,2.384002792E0,3.049097521E0
1.141234996E1,-1.769624368E-1,-1.455091602E0,1.096043032E0,1.830278012E0
1.142231996E1,2.162829156E-1,-1.308263339E0,9.591047502E-1,1.636524728E0
1.143228996E1,9.773485015E-1,-1.583541481E0,1.700864401E0,2.521061964E0
1.144225996E1,3.781475493E-1,7.695540985E-1,-4.038420421E-1,9.477855636E-1
1.145222996E1,3.751511801E-1,-2.507180822E-1,-1.078373331E0,1.168968351E0
1.146219996E1,3.605560182E-1,-1.702054310E0,-1.106345826E-1,1.743338615E0
1.147216996E1,3.649497257E-1,2.930367208E-1,-9.244173127E-1,1.036149695E0
1.148213996E1,2.587421066E-1,-1.000971107E0,1.031764591E-1,1.039007226E0
1.149210996E1,1.473854294E-1,2.471889952E-1,-9.166943103E-1,9.608086816E-1
1.150207996E1,-1.276709205E-1,4.929357746E-1,-1.816315920E0,1.886342775E0
1.151204996E1,2.285098821E-1,-9.511972681E-1,-1.681510702E0,1.945371751E0
1.152202096E1,1.970938887E-1,1.371101904E-1,-2.248976550E0,2.261756115E0
1.153199096E1,-4.446887172E-1,1.109085247E-1,-3.535501403E-1,5.788319771E-1
1.154196096E1,-3.926636641E-1,-2.838500141E0,-1.681723541E0,3.322568565E0
1.155193096E1,-9.253918974E-1,-2.027273521E0,-4.449853903E-1,2.272487643E0
1.156190096E1,-1.604352745E0,-4.795482820E-1,1.132070652E0,2.021261548E0
1.157187096E1,-1.001783358E-1,-1.083170095E0,1.650794109E0,1.976971002E0
1.158184096E1,3.384977992E-1,-1.341342500E0,2.198578813E0,2.597600674E0
1.159181096E1,-1.739753210E0,-2.011351553E-1,2.325303179E-1,1.766710766E0
1.160178096E1,-5.444739374E-1,-1.290422607E0,2.402796328E-1,1.421047739E0
1.161175096E1,-6.369643906E-1,-4.546511301E-1,-7.015331465E-1,1.050990029E0
1.162172096E1,-2.313725692E-1,-3.529724354E0,-1.104495183E0,3.705724880E0
1.163169196E1,8.930760907E-1,-3.871139475E0,-5.756472713E-1,4.014308847E0
1.164166196E1,-3.181039901E-1,-3.210530698E-1,1.796071690E-1,4.863372876E-1
1.165163196E1,-4.419962206E-1,-2.768498737E-1,5.707613379E-1,7.731591145E-1
1.166160196E1,-1.104260563E0,-4.140756343E0,2.419678409E0,4.921391885E0
1.167157196E1,-1.262194004E0,-2.517819831E0,7.668623328E-1,2.919011518E0
1.168154196E1,-9.092775558E-1,2.541097596E-1,-9.619435734E-1,1.347847499E0
1.169151196E1,-3.271034397E-1,-4.739992744E-1,4.957251889E-1,7.598785661E-1
1.170148196E1,-3.356551022E-1,-1.650688567E0,6.694021118E-1,1.812604833E0
1.171145196E1,6.151472595E-1,-1.197939244E0,1.411231345E-1,1.354023752E0
1.172142196E1,2.061208568E-1,-2.347586918E-1,-5.955412531E-1,6.725078699E-1
1.173139196E1,6.155946446E-1,9.341690066E-1,4.254784942E-1,1.196937947E0
1.174136296E1,9.941897982E-1,1.191352355E0,1.632033902E-1,1.560246498E0
1.175133296E1,5.498076944E-1,-1.645613184E0,-2.549824566E-1,1.753666817E0
1.176130296E1,2.841153315E-1,-1.166120158E0,1.588811284E-1,1.210702671E0
1.177127296E1,-1.172163036E0,2.370855620E0,-1.064723591E0,2.851062763E0
1.178124296E1,-8.135867022E-1,-1.050297341E0,1.055416578E0,1.696747471E0
1.179121296E1,-5.436427557E-1,-2.322731281E0,-1.857835829E-2,2.385576074E0
1.180118296E1,-2.598321738E-1,-1.567242368E0,1.110393854E0,1.938230097E0
1.181115296E1,-6.230300371E-1,-1.955893636E-1,8.410237384E-1,1.064773476E0
1.182112296E1,-8.700923670E-2,2.347078210E-1,4.091343570E-1,4.796345386E-1
1.183109296E1,4.403717544E-1,-1.481899332E0,2.218673354E0,2.704156868E0
1.184106296E1,7.598980066E-1,-9.934208894E-1,2.715745157E-1,1.279876073E0
1.185103396E1,8.011696281E-1,2.279525328E-1,-6.796125197E-1,1.075038747E0
1.186100396E1,3.750233088E-1,-8.966366065E-1,6.969582850E-1,1.195972632E0
1.187097396E1,1.820549962E-1,-1.542732594E0,3.262319487E-1,1.587323269E0
1.188094396E1,-2.971744298E-1,-4.642136666E-1,-2.316267477E0,2.380945609E0
1.189091396E1,-3.250855656E-1,-7.943749443E-1,6.058598346E-1,1.050608546E0
1.190088396E1,-4.767628512E-1,-2.916243258E-1,9.175117511E-1,1.074325545E0
1.191085396E1,-7.007233071E-1,-2.935009897E-3,-1.064357556E0,1.274315021E0
1.192082396E1,-1.039032314E0,-5.253056681E-1,1.557978331E0,1.944950045E0
1.193079396E1,-1.345705254E0,-1.158619934E-1,-6.129145002E-1,1.483243343E0
1.194076396E1,-1.168703312E0,4.436428696E-2,-2.185614951E0,2.478860290E0
1.195073396E1,-6.211084959E-1,-1.691365015E0,-1.167031739E0,2.146731110E0
1.196070396E1,-3.296461014E-1,-7.996321759E-1,-2.404475064E0,2.555303994E0
1.197067496E1,4.862182375E-1,-5.017948911E-1,-3.024974572E0,3.104621949E0
1.198064496E1,1.818355064E-1,-1.320977817E0,-5.082639581E-1,1.427017448E0
1.199061496E1,-3.151950003E-1,1.911279380E-1,6.552506804E-2,3.743945932E-1
1.200058496E1,-2.936036083E-1,-2.310924876E-1,-6.172613204E-2,3.787042804E-1
1.201055496E1,5.450873468E-1,-8.208932367E-1,1.001212889E-1,9.904595874E-1
1.202052496E1,1.065905167E0,1.955449247E-1,-3.376433748E-1,1.135074752E0
1.203049496E1,1.073800663E0,2.651668444E-1,-5.197361952E-1,1.222083070E0
1.204046496E1,8.567457318E-1,-8.249164134E-2,1.241089064E-1,8.696097634E-1
1.205043496E1,1.279085587E0,-3.961289799E-1,5.801572287E-1,1.459301380E0
1.206040496E1,1.202296077E-1,-4.885901240E-1,3.930445737E-1,6.384821882E-1
1.207037496E1,-3.143309645E-1,-1.018667997E0,5.088720685E-1,1.181287106E0
1.208034596E1,-6.218236104E-1,-4.533837461E-1,-1.908472717E-1,7.928707996E-1
1.209031596E1,1.845655348E-2,9.232814911E-1,-5.421029645E-1,1.070824440E0
1.210028596E1,2.317972963E-1,1.952016932E-1,6.993924809E-1,7.622227561E-1
1.211025596E1,4.147108100E-1,-9.057684955E-1,7.834830433E-1,1.267378121E0
1.212022596E1,2.864425598E-1,-2.785265628E-1,5.136211771E-1,6.507173732E-1
1.213019596E1,2.041177834E-1,2.366145980E-1,-5.880077004E-1,6.658855707E-1
1.214016596E1,3.766081966E-1,-2.379819694E-1,-2.336138070E-1,5.030353490E-1
1.215013596E1,6.836916836E-1,-1.202569654E0,1.531057166E0,2.063430187E0
1.216010596E1,7.760199496E-1,8.549939060E-1,1.109277036E0,1.601161167E0
1.217007596E1,7.064783560E-1,2.582797015E-1,1.367137492E-2,7.523343527E-1
1.218004596E1,6.504562560E-1,-4.504420120E-1,1.285532581E0,1.509498381E0
1.219001696E1,1.219251833E0,-9.517857903E-1,-4.037274367E-1,1.598582831E0
1.219998696E1,5.949690299E-1,1.904970235E-1,-4.778812408E-1,7.865416346E-1
1.220995696E1,2.308568448E-2,-1.335333024E0,1.976351874E0,2.385291169E0
1.221992696E1,-5.755877028E-1,-8.607917127E-1,1.902771682E-1,1.052838533E0
1.222989696E1,-6.405851327E-2,-5.542827147E-1,-6.376090461E-1,8.472768831E-1
1.223986662E1,-3.375036263E-1,-7.288086534E-2,5.493295383E-1,6.488322280E-1
1.224983663E1,6.044889548E-1,5.475864834E-1,1.091511440E-1,8.229045057E-1
1.225980663E1,1.348537499E0,-2.418496102E-2,-1.716251934E0,2.182809886E0
1.226977663E1,9.028194523E-1,7.812964770E-1,-1.487183168E0,1.907149948E0
1.227974663E1,1.063649896E0,2.095196532E0,-3.790967424E0,4.460115875E0
1.228971663E1,1.238470973E0,-1.097726738E0,-1.578124913E0,2.286764654E0
1.229968763E1,5.530659822E-1,-2.345424325E0,2.351779956E0,3.367159962E0
1.230965763E1,8.092849787E-1,2.766902447E-2,1.793624046E0,1.967941811E0
1.231962762E1,1.206948999E0,9.190270570E-1,2.729760348E0,3.122967847E0
1.232959763E1,-7.967777114E-1,2.170140880E0,1.292634024E0,2.648635286E0
1.233956763E1,9.076320762E-1,2.687312779E0,-3.234869149E0,4.302304541E0
1.234953763E1,6.302829234E-1,4.145807460E-1,-3.338801068E0,3.422970396E0
1.235950763E1,9.404413149E-2,-5.831325844E-1,-1.608709359E-1,6.121824627E-1
1.236947763E1,6.513050524E-1,1.336571757E0,-4.251931500E-1,1.546418943E0
1.237944763E1,5.245420948E-1,2.005845230E0,-4.933547276E-1,2.131187083E0
1.238941763E1,-9.351568937E-2,-5.988893688E-2,-2.050692789E0,2.053697345E0
1.239938763E1,4.674009108E-1,-1.376599456E0,-1.177613445E0,1.870899008E0
1.240935763E1,-4.117952055E-1,1.041880566E0,-2.268439007E-1,1.143043552E0
1.241932863E1,-1.977268133E-1,-2.537624350E-1,9.268947780E-1,9.811346470E-1
1.242929863E1,-2.516773179E-2,-5.902027452E-1,1.048064289E0,1.203084141E0
1.243926863E1,-9.664929264E-1,1.206148442E0,-1.066367244E0,1.877775742E0
1.244923863E1,-3.448184200E-1,2.038163960E-2,4.566400605E-1,5.725690342E-1
1.245920863E1,-3.482541709E-1,-3.927171296E-1,1.741832918E-1,5.530348366E-1
1.246917863E1,1.681408522E-1,1.309992068E0,-3.393915169E0,3.641841668E0
1.247914863E1,2.920758040E-1,-6.612268272E-1,3.044311899E-1,7.843516696E-1
1.248911863E1,-6.482190382E-1,-1.602876762E-1,2.732309150E0,2.812719920E0
1.249908863E1,1.325215733E0,7.591241276E-1,2.036367695E0,2.545438974E0
1.250905863E1,1.676120447E0,-6.509845519E-1,4.928554339E0,5.246313802E0
1.251902863E1,-3.737613335E-2,1.220374133E0,8.735471213E-1,1.501264325E0
1.252899963E1,1.318307101E0,2.144339748E0,-3.096297154E0,3.990386277E0
1.253896963E1,4.193111435E-1,-4.440550983E-2,-2.062272030E-1,4.693861349E-1
1.254893963E1,-6.974067664E-1,-1.719113562E-1,3.641376936E-1,8.053111027E-1
1.255890963E1,5.938182979E-1,-1.775463179E-1,-5.685645390E-1,8.410757997E-1
1.256887963E1,8.005422950E-3,-1.449023654E0,4.305258107E-1,1.511650128E0
1.257884963E1,-7.751501032E-1,8.723879108E-1,-2.356275880E-1,1.190562350E0
1.258881963E1,-8.355663858E-2,6.281757331E-1,-4.715919757E-1,7.899274999E-1
1.259878963E1,-2.528535584E-1,-1.772944491E0,2.719032462E0,3.255826257E0
1.260875962E1,-5.329720987E-1,-5.137100548E-1,1.406146021E0,1.589089020E0
1.261872963E1,-4.312511578E-2,1.317227121E0,-8.782705021E-1,1.583763283E0
1.262869963E1,-5.499984598E-1,7.452568710E-3,-1.308436709E0,1.419352130E0
1.263867063E1,2.433215006E-1,-6.304678416E-1,-6.734928238E-1,9.540899516E-1
1.264864063E1,6.717684069E-1,5.734685987E-1,-6.642817050E-1,1.105173837E0
1.265861063E1,-1.266792693E-1,4.022138849E-1,-2.357486254E-1,4.831159911E-1
1.266858063E1,-3.839517148E-1,-1.538563529E0,3.149678725E-1,1.616725522E0
1.267855063E1,-3.987851507E-1,-4.654620472E-1,-5.530822814E-2,6.154214116E-1
1.268852063E1,7.471597742E-1,7.836143133E-1,4.131794608E-1,1.158885839E0
1.269849063E1,8.529403639E-1,1.127678223E0,-1.366026521E-2,1.413984456E0
1.270846063E1,1.020229715E0,-3.619262767E-1,-3.556984073E-1,1.139465076E0
1.271843063E1,1.123567996E0,-1.324824116E0,-1.217953386E0,2.121550006E0
1.272840062E1,2.192269521E-1,6.161754924E-1,-1.287254001E0,1.443868262E0
1.273837063E1,5.626651369E-2,4.538094234E-1,-9.206312406E-1,1.027944938E0
1.274834163E1,8.546896315E-1,-1.530730891E0,4.642695075E-1,1.813609000E0
1.275831163E1,-3.848242655E-1,5.150812268E-1,-3.658778250E-1,7.397735927E-1
1.276828163E1,-9.250002801E-1,1.480975764E0,-5.537892097E-1,1.831828928E0
1.277825163E1,2.874674671E-1,-5.780095464E-1,9.962024099E-1,1.187077008E0
1.278822163E1,-3.642756148E-1,6.141915321E-3,1.618830889E-1,3.986735271E-1
1.279819163E1,6.402823931E-1,1.604399961E-1,-1.611178638E0,1.741148799E0
1.280816162E1,4.464346227E-1,-1.062469197E0,1.900176687E0,2.222344733E0
1.281813163E1,-6.947917454E-1,2.906665519E-1,1.093788931E0,1.328004834E0
1.282810163E1,1.535937106E-1,1.761967513E0,-2.842390001E-2,1.768877741E0
1.283807163E1,4.384578511E-2,1.098789470E0,-1.790817967E0,2.101497024E0
1.284804162E1,-7.864417344E-2,-3.022680125E-1,-5.839672744E-1,6.622451472E-1
1.285801263E1,2.384656072E-1,-1.785479167E0,2.205007242E0,2.847254579E0
1.286798263E1,-1.773592070E-1,8.694397447E-1,-1.717906111E-1,9.038217590E-1
1.287795263E1,2.801637100E-1,5.674222854E-1,1.735435479E0,1.847213051E0
1.288792262E1,1.949102095E-1,-3.262032974E-1,2.064485786E0,2.099166535E0
1.289789263E1,9.678524771E-1,-2.964468169E-1,5.524320710E-1,1.153169686E0
1.290786263E1,8.927656766E-1,7.317620820E-1,4.188723099E-1,1.227990354E0
1.291783263E1,6.615243043E-1,5.271256140E-1,-3.649001706E-1,9.212100480E-1
1.292780262E1,1.344503651E0,3.205335447E-1,-2.288574479E0,2.673575315E0
1.293777263E1,4.927538531E-1,-4.540436044E-1,1.143047045E0,1.324959811E0
1.294774263E1,-4.421601619E-1,-1.242731547E0,1.717389218E0,2.165482171E0
1.295771263E1,-5.840601721E-1,3.121544847E-1,3.166963094E-1,7.340730613E-1
1.296768363E1,-7.164358719E-1,1.927211581E0,3.826622576E-1,2.091376399E0
1.297765363E1,-3.476831172E-1,1.236497245E0,-3.937579340E-1,1.343448659E0
1.298762363E1,5.342108314E-1,-1.547188464E0,-6.573030531E-2,1.638137305E0
1.299759363E1,1.417522949E-1,8.907610318E-1,-3.966762793E-1,9.853430872E-1
1.300756362E1,-7.826337352E-2,5.532962894E-1,-6.906660962E-1,8.884152160E-1
1.301753363E1,-5.643664574E-1,-9.374320453E-1,4.299966377E-1,1.175663832E0
1.302750363E1,-6.938545098E-1,2.289795962E-1,-6.779244286E-1,9.967182486E-1
1.303747363E1,-3.362901098E-1,-6.842046306E-1,-1.031582742E0,1.282727550E0
1.304744363E1,-6.446564028E-1,-1.694884746E0,-4.235769796E-1,1.862158328E0
1.305741363E1,-1.809406266E-2,-7.447657049E-2,-3.691054881E-1,3.769788004E-1
1.306738363E1,7.286073630E-1,3.441995654E-1,-7.698824197E-1,1.114477891E0
1.307735363E1,4.819885444E-1,-1.242841182E0,5.643685770E-1,1.447576959E0
1.308732462E1,9.592040066E-1,1.184591220E0,-1.095856506E0,1.877293309E0
1.309729463E1,9.923979921E-1,8.633057231E-1,-1.318594492E0,1.862482746E0
1.310726463E1,-9.828508046E-2,-1.072500973E0,-2.858727121E-1,1.114289685E0
1.311723463E1,-7.573277168E-2,6.452627590E-1,1.752135712E-1,6.729036160E-1
1.312720462E1,-1.099755283E-1,7.393359804E-1,-1.100491594E0,1.330336069E0
1.313717463E1,3.641954349E-1,1.223672547E0,-3.645436658E0,3.862540776E0
1.314714463E1,3.335783539E-1,-4.916683906E-1,2.319113317E0,2.394013137E0
1.315711463E1,-7.754419523E-1,-3.694463807E-1,-1.118712687E-1,8.662078448E-1
1.316708463E1,1.269514426E0,6.927275321E-1,7.806909978E-2,1.448320785E0
1.317705463E1,2.145714721E-1,1.861843219E0,1.434364100E0,2.360063867E0
1.318702463E1,-2.015996069E-1,1.704812441E0,-1.811427648E0,2.495655823E0
1.319699563E1,1.457169995E0,-5.712972352E-1,-2.472214472E-1,1.584564094E0
1.320696562E1,-6.449989765E-1,1.191192434E0,-4.734724402E-2,1.355435301E0
1.321693563E1,5.608506728E-2,3.020373398E-1,-1.323379269E0,1.358567178E0
1.322690563E1,-4.556366052E-2,-1.189451425E0,2.425770038E-1,1.214789835E0
1.323687583E1,-9.263846084E-1,3.331141216E-1,1.732829960E0,1.992950860E0
1.324684583E1,4.977530763E-1,-1.093086973E0,1.178322712E0,1.682569959E0
1.325681583E1,4.666214404E-1,-1.180386195E0,2.868246388E-1,1.301274572E0
1.326678583E1,1.724630044E-1,-3.431993991E-2,4.253235430E-1,4.602406570E-1
1.327675583E1,-2.860780225E-1,-7.956464213E-1,8.623713380E-1,1.207716104E0
1.328672583E1,6.261319119E-2,-1.389590800E0,1.311077312E0,1.911493322E0
1.329669583E1,4.512962902E-1,-1.702623244E0,3.242889774E0,3.690383224E0
1.330666683E1,2.592148174E-1,-9.311459962E-1,2.910948020E0,3.067220820E0
1.331663683E1,-1.284871553E-1,1.983641598E-1,1.688147292E0,1.704610973E0
1.332660683E1,6.939197794E-2,2.689242652E-1,1.905544431E0,1.925677825E0
1.333657683E1,-1.223393197E0,8.525547400E-1,-2.330948666E0,2.767103572E0
1.334654683E1,1.054599795E-1,-1.072247788E-1,-2.791513377E-1,3.170874167E-1
1.335651683E1,-8.474042932E-1,4.697682291E-2,-4.605693895E-1,9.656215721E-1
1.336648683E1,-4.355026683E-1,-7.884268641E-1,-1.455692403E0,1.711817709E0
1.337645683E1,-6.501247188E-1,3.488615504E-1,-1.628119192E0,1.787495072E0
1.338642683E1,-1.489147394E0,1.190298979E0,-2.629812137E0,3.248119994E0
1.339639683E1,-1.343254686E0,3.058000231E-1,-1.345993960E0,1.926018314E0
1.340636683E1,-1.195568636E0,-7.508304369E-1,4.900773633E-1,1.494425151E0
1.341633783E1,-2.195374027E-1,-1.577730811E-1,-3.389847261E-1,4.335892766E-1
1.342630783E1,5.889431819E-1,-1.166238856E-1,7.312615603E-1,9.461493919E-1
1.343627783E1,-1.305938340E-1,1.636362304E0,-3.691177672E-1,1.682552901E0
1.344624783E1,3.197208548E-1,2.184940183E0,1.455359697E0,2.644665739E0
1.345621783E1,1.279362014E0,-7.265466580E-1,1.899294927E0,2.402490048E0
1.346618783E1,3.795925059E-1,9.057307810E-2,9.177719522E-1,9.972959988E-1
1.347615783E1,6.337127540E-1,3.284158253E0,-1.117623936E0,3.526523862E0
1.348612783E1,2.748312686E-1,2.277826127E0,-5.067238600E0,5.562457291E0
1.349609783E1,-7.221574455E-1,1.310594039E0,-3.381525503E0,3.697821364E0
1.350606783E1,4.154614829E-2,-1.277666321E0,-1.967774593E0,2.346549416E0
1.351603783E1,-5.578543402E-2,-2.634277948E0,7.841431940E-1,2.749074912E0
1.352600883E1,1.748219174E-1,2.147860357E0,2.438611693E0,3.254334618E0
1.353597883E1,-2.847854589E-1,6.271287891E-1,1.542402518E0,1.689200641E0
1.354594883E1,-1.784314109E0,-2.500279646E0,1.638090448E0,3.481165820E0
1.355591883E1,-1.242617818E0,2.761517161E-1,-4.242032164E-1,1.341755262E0
1.356588883E1,-1.198145504E0,9.967093635E-1,-9.871953589E-1,1.844867714E0
1.357585883E1,-2.857358507E-1,-5.690717849E-1,4.903188533E-1,8.036791964E-1
1.358582883E1,3.236391471E-1,-1.113279455E0,1.755226550E0,2.103557388E0
1.359579883E1,-4.243349250E-1,-1.079181124E0,5.923948663E-1,1.302161167E0
1.360576883E1,-7.544244280E-1,5.094123513E-1,8.047318250E-1,1.215010482E0
1.361573883E1,-8.497676647E-1,5.397199318E-1,1.067086451E0,1.466995631E0
1.362570883E1,-7.678196682E-1,-1.404552070E0,1.504482740E-1,1.607777424E0
1.363567883E1,-3.906324145E-1,-1.171349030E0,-1.232163874E0,1.744385292E0
1.364564983E1,-5.788051697E-1,-9.061628902E-1,-1.580038707E0,1.911195679E0
1.365561983E1,-3.551425929E-1,1.961656067E-1,-1.992093748E-1,4.519862626E-1
1.366558983E1,-3.523062182E-1,-1.359972021E0,2.856177735E0,3.182985207E0
1.367555983E1,-3.828646808E-1,-1.222376220E0,2.887442797E0,3.158815426E0
1.368552983E1,3.438835233E-2,3.400459957E-1,-4.791582727E-1,5.885630708E-1
1.369549983E1,-7.226694424E-2,6.445587543E-1,-7.777451706E-1,1.012702350E0
1.370546983E1,-4.111367725E-1,1.441945307E0,-2.101550117E0,2.581618215E0
1.371543983E1,3.952707183E-1,2.211764577E0,-4.051927489E0,4.633169311E0
1.372540983E1,3.453978791E-1,-6.658133832E-1,-1.188470555E0,1.405371629E0
1.373537983E1,1.705839286E-1,-1.290790982E0,-3.515755355E-1,1.348645836E0
1.374534983E1,4.285087040E-1,1.965163519E0,-2.629583511E0,3.310618795E0
1.375532083E1,4.009450025E-1,2.018303600E0,-1.357680205E0,2.465279265E0
1.376529083E1,-4.930949651E-2,-9.186738852E-1,-6.710931265E-1,1.138753318E0
1.377526083E1,1.910420936E-1,-6.658841345E-1,-1.310494929E0,1.482327805E0
1.378523083E1,-2.100980232E-1,-8.207923722E-1,2.344144662E0,2.492560028E0
1.379520083E1,-7.832571946E-2,-2.763335645E0,8.321863151E0,8.769011638E0
1.380517083E1,-2.009356556E-1,1.366311865E0,4.855171198E0,5.047758969E0
1.381514083E1,-5.690440106E-1,4.060920507E0,-1.922670926E0,4.528967867E0
1.382511083E1,-2.771953710E-1,2.208030545E0,-4.837279302E0,5.324613339E0
1.383508083E1,4.899938577E-1,2.285408796E0,-4.488840213E0,5.060916301E0
1.384505083E1,9.480758782E-1,2.999209401E-1,-1.772831347E0,2.032666088E0
1.385502083E1,8.708701929E-1,-3.009360752E0,2.618167992E0,4.082826308E0
1.386499183E1,-2.668538027E-1,7.011656490E-1,1.703321986E0,1.861222719E0
1.387496183E1,-3.881653646E-1,7.313176936E-1,6.364156294E-1,1.044280984E0
1.388493183E1,1.326092669E0,3.401576775E-1,-1.645027000E0,2.140173555E0
1.389490183E1,1.254410483E0,-1.105711403E-1,-2.518039101E0,2.815367215E0
1.390487183E1,1.741738485E0,-2.851780922E0,1.164405754E0,3.538664739E0
1.391484183E1,9.300039618E-1,-5.846069598E-1,2.468893254E0,2.702241026E0
1.392481183E1,4.885650540E-1,5.781188893E-1,1.784274933E0,1.938183247E0
1.393478183E1,5.476010283E-1,-1.053389056E0,9.915626442E-1,1.546832850E0
1.394475183E1,-3.668946558E-1,-1.766282758E0,-1.413564384E-2,1.804041653E0
1.395472183E1,3.819876350E-2,-1.251001264E0,2.563091898E-1,1.277559278E0
1.396469183E1,2.880869796E-1,1.091655282E0,5.569584006E-1,1.258931302E0
1.397466283E1,3.528672586E-1,6.876521489E-1,1.692439148E0,1.860572775E0
1.398463283E1,5.069169058E-1,6.846007794E-2,-6.205024320E-1,8.041609290E-1
1.399460283E1,9.962578853E-1,5.731344303E-1,-1.424496923E0,1.830356340E0
1.400457283E1,3.406076208E-1,3.557326135E-1,-1.873364865E0,1.937022240E0
1.401454283E1,6.581815973E-1,-2.686319044E-1,1.899696046E-1,7.358359639E-1
1.402451283E1,-2.744741499E-1,-8.373347300E-1,7.068213683E-1,1.129629123E0
1.403448283E1,-2.933018920E-1,-4.852887860E-1,6.871630293E-1,8.909120240E-1
1.404445283E1,4.209854206E-1,1.660492301E-2,-2.942962110E-2,4.223393782E-1
1.405442283E1,6.270890281E-1,-1.935919547E-1,1.349839089E0,1.500927733E0
1.406439283E1,7.850858382E-1,7.033659562E-1,2.144144744E-1,1.075665844E0
1.407436283E1,4.947519198E-1,7.035244158E-1,-2.479791294E0,2.624707780E0
1.408433283E1,-5.335511193E-2,1.576543826E-1,-2.143819054E0,2.150270171E0
1.409430383E1,-1.963053551E-1,8.229286525E-1,-1.971571190E0,2.145423109E0
1.410427383E1,8.991117328E-2,8.773539510E-1,-8.010860860E-1,1.191458305E0
1.411424383E1,-4.429294362E-1,-9.982539055E-1,1.275975891E0,1.679527261E0
1.412421383E1,2.622673564E-2,-2.772629210E0,1.416168149E0,3.113469576E0
1.413418383E1,2.064268123E-1,-8.129886782E-1,-8.846281797E-1,1.219069168E0
1.414415383E1,6.353842536E-1,-3.622513819E-1,-1.618941402E0,1.776488243E0
1.415412383E1,-1.580903656E-1,-8.063330850E-1,-7.038527369E-2,8.246936973E-1
1.416409383E1,-6.899701314E-1,-6.057072222E-2,1.052077818E0,1.259601258E0
1.417406383E1,1.693776114E-1,-1.934986916E-1,1.810292704E0,1.828466623E0
1.418403383E1,5.127615633E-1,7.571319813E-1,2.702759660E0,2.853258320E0
1.419400383E1,9.818869641E-1,2.631206405E0,7.131954181E-1,2.897584660E0
1.420397483E1,1.397501059E0,-1.593779956E0,2.550857769E0,3.316627672E0
1.421394483E1,-2.512281056E-1,-1.481233041E0,2.715873796E-1,1.526737236E0
1.422391483E1,-2.014609183E-1,2.174014952E0,-5.141484790E0,5.585856547E0
1.423388546E1,-6.880849160E-1,-7.835824460E-2,-1.743710459E0,1.876200157E0
1.424385546E1,-2.280756605E0,-2.753132254E-1,-9.989763290E-1,2.505115121E0
1.425382546E1,-5.893641814E-1,-5.030067265E-3,-1.270155573E0,1.400239486E0
1.426379546E1,-6.067643988E-1,-9.361497509E-1,-1.109008648E0,1.573035147E0
1.427376546E1,-3.023008300E-1,-7.317468792E-1,-2.497429420E0,2.619922326E0
1.428373546E1,1.240763082E-1,2.378416362E-1,-3.115572501E0,3.127100187E0
1.429370546E1,5.577678014E-1,-5.068781680E-1,-3.703790701E0,3.779695220E0
1.430367546E1,1.815290026E-1,-2.123092428E0,-2.316186785E0,3.147252049E0
1.431364646E1,-2.778153221E-1,-3.209539303E0,3.012216532E0,4.410416344E0
1.432361646E1,-6.903705195E-1,-8.553798223E-1,2.467074185E0,2.700877844E0
1.433358646E1,-1.341814370E0,-1.566586018E-2,2.614250357E0,2.938539799E0
1.434355646E1,2.160289272E-1,-4.229489887E-1,-2.234011770E0,2.283935843E0
1.435352646E1,1.628534051E0,-1.599555251E0,-2.207823261E0,3.175717826E0
1.436349646E1,1.237977760E0,-8.154488942E-1,-2.639400401E0,3.027206685E0
1.437346646E1,1.353971316E0,-9.923663440E-1,-7.126428562E-1,1.823702039E0
1.438343646E1,1.031932771E0,-1.859903405E0,2.089667405E0,2.981750456E0
1.439340646E1,1.070580966E0,-1.501044285E0,9.690245515E-1,2.082855284E0
1.440337646E1,7.538943779E-1,1.895832206E0,-4.386329752E-1,2.086848191E0
1.441334646E1,7.438272268E-1,1.146518537E0,2.861340827E-1,1.396300975E0
1.442331746E1,3.849454125E-1,-7.010896352E-1,1.467333040E0,1.671160046E0
1.443328746E1,-2.766690120E-1,1.379363143E0,1.870378107E-1,1.419215122E0
1.444325746E1,-1.079941993E-1,1.944677507E0,5.951705396E-2,1.948582980E0
1.445322746E1,-9.189932162E-1,-3.127032459E-2,-4.326465958E-1,1.016223126E0
1.446319746E1,-1.029969276E0,1.242792650E0,-1.199711242E0,2.011138321E0
1.447316746E1,-3.963677656E-1,1.717320220E0,-1.428270716E0,2.268535515E0
1.448313746E1,-1.106205493E-2,1.096994667E0,-1.845588251E0,2.147024840E0
1.449310746E1,1.904650100E-1,5.324278691E-1,1.548071394E0,1.648114497E0
1.450307746E1,9.521854475E-2,5.169207609E-1,8.057129878E-1,9.620015920E-1
1.451304746E1,-4.170256130E-2,4.330015218E-1,1.192061915E0,1.268952730E0
1.452301746E1,-9.665491328E-2,6.403154299E-1,2.475909328E0,2.559193823E0
1.453298846E1,4.936310817E-2,-5.103920522E-1,2.763739103E-1,5.825112031E-1
1.454295846E1,-4.272321107E-1,7.957554719E-1,-1.827812131E0,2.038786706E0
1.455292846E1,8.932656866E-1,1.024705540E0,-9.405521196E-1,1.653052727E0
1.456289846E1,2.465873532E-1,1.124878284E0,-3.196966912E0,3.398051488E0
1.457286846E1,5.282275218E-1,-1.799324789E0,-2.414184365E0,3.056939672E0
1.458283846E1,7.583730528E-1,-2.028546167E0,-4.094912125E0,4.632324962E0
1.459280846E1,-2.732874575E-1,-6.287338498E-1,-3.691815019E0,3.754928817E0
1.460277846E1,-7.617496736E-2,-1.422052202E0,-8.539554405E-1,1.660504437E0
1.461274846E1,6.063372597E-1,-8.411827826E-1,-2.693098891E0,2.885830033E0
1.462271846E1,1.025882657E-1,1.509015502E0,-4.894756263E0,5.123113410E0
1.463268946E1,1.754284929E-1,1.633943018E0,-2.295598154E0,2.823174778E0
1.464265946E1,4.910883834E-1,8.113888800E-1,4.586819082E-1,1.053522097E0
1.465262946E1,-2.264290042E-1,-1.936323590E0,4.680586202E0,5.070355642E0
1.466259946E1,-1.315699974E0,-2.120121166E0,7.192526658E0,7.613042749E0
1.467256946E1,-1.149696937E0,2.375403000E0,1.767361861E0,3.176147101E0
1.468253946E1,-9.237437135E-1,1.902222628E0,-9.313141036E-1,2.310649115E0
1.469250946E1,-3.913194623E-1,4.403196046E-1,-2.891312485E0,2.950711806E0
1.470247946E1,3.192123663E-1,2.217679328E-1,-9.730480206E-1,1.047807235E0
1.471244946E1,-7.695457663E-1,2.494028680E0,-8.148925316E-1,2.734306051E0
1.472241946E1,-2.232155206E-1,2.051069934E0,-1.411559374E0,2.499842577E0
1.473238946E1,2.583444959E-1,-2.531143296E0,4.110316615E0,4.834059468E0
1.474236046E1,2.706179478E-1,-3.712514162E-1,3.803389249E0,3.831035299E0
1.475233046E1,1.221289076E0,3.021536117E0,2.807596729E0,4.301607479E0
1.476230046E1,6.469768703E-1,1.537290298E0,3.671930392E0,4.032978222E0
1.477227046E1,4.672612720E-1,1.279705245E0,1.247305824E0,1.847092426E0
1.478224046E1,5.944679967E-1,1.250593128E0,-1.004044695E0,1.710403789E0
1.479221046E1,-9.214934126E-1,1.666726018E0,-2.486613826E0,3.132151664E0
1.480218046E1,-9.226951616E-1,2.052519751E0,-4.294651258E-1,2.290991922E0
1.481215046E1,-1.106351674E0,-1.138317524E0,2.426331956E0,2.899459876E0
1.482212046E1,-6.678088917E-1,-1.590404651E0,1.502023401E0,2.287231944E0
1.483209046E1,1.730522576E-1,-4.641212806E-1,4.635025867E0,4.661418286E0
1.484206046E1,-4.275012653E-2,2.345119101E0,1.227056331E0,2.647088667E0
1.485203146E1,8.182565079E-1,1.496205422E0,-1.206740765E0,2.089114083E0
1.486200146E1,1.330777458E0,-2.826081239E0,-1.717245961E0,3.564637079E0
1.487197146E1,4.480382216E-1,-2.204114080E0,-4.509217760E0,5.039037798E0
1.488194146E1,8.013980350E-1,7.098592892E-1,-4.344782946E0,4.474737743E0
1.489191146E1,8.677671486E-1,3.380108723E-1,-3.373821797E0,3.499992099E0
1.490188146E1,2.391875922E-1,-1.217164596E0,-2.074668712E0,2.417219606E0
1.491185146E1,-9.764711268E-2,-1.447053142E0,-9.605571985E-2,1.453521399E0
1.492182146E1,-2.465994131E-1,-6.727382407E-1,2.067852028E0,2.188469790E0
1.493179146E1,-5.137660418E-1,7.645132139E-1,2.187477874E0,2.373498568E0
1.494176146E1,1.833323936E-1,3.404494244E0,3.458359087E-1,3.426921986E0
1.495173246E1,4.889174949E-2,6.449267195E0,-4.793722808E-1,6.467243272E0
1.496170246E1,4.991481123E-1,5.019281491E0,2.055679294E0,5.446847977E0
1.497167246E1,7.614706884E-1,9.062941602E-1,3.582665629E0,3.773155141E0
1.498164246E1,5.985230773E-1,-2.685595159E0,-9.867351830E-2,2.753250387E0
1.499161246E1,6.220400304E-1,-1.133417265E0,-3.769851959E0,3.985392363E0
1.500158246E1,4.765408032E-1,-1.004968556E0,-6.936060762E-1,1.310779281E0
1.501155246E1,-1.522968347E-1,2.857395710E0,-2.566758102E0,3.843976031E0
1.502152246E1,6.060962448E-1,2.985291858E0,2.168846891E0,3.739413988E0
1.503149246E1,-8.339417370E-1,-9.207242113E-1,7.518784919E0,7.620716407E0
1.504146246E1,-3.349564696E-1,-7.472879013E-1,4.918770193E0,4.986475233E0
1.505143246E1,7.623897976E-1,4.056672505E-1,3.377992616E0,3.486637095E0
1.506140346E1,-3.752077520E-1,2.710506637E0,-7.313767505E-1,2.832408698E0
1.507137346E1,3.984299689E-1,1.291215490E0,4.068486219E0,4.287022743E0
1.508134346E1,-5.618593175E-2,4.779321116E-1,2.447942680E0,2.494794446E0
1.509131346E1,-1.613601432E0,-1.059546466E0,1.733553261E-1,1.938143536E0
1.510128346E1,-8.410130672E-1,-9.850459224E-1,6.430627441E-1,1.446080268E0
1.511125346E1,-1.171091095E0,3.398004127E-1,1.377530918E0,1.839703808E0
1.512122346E1,-1.146770990E0,-1.035108613E0,-3.178780317E-1,1.577206388E0
1.513119346E1,3.699780023E-1,-3.754503018E0,-1.827623266E0,4.192061955E0
1.514116346E1,-7.407571462E-1,-2.703215159E0,-2.369890537E0,3.670486957E0
1.515113346E1,-6.552084343E-1,-1.531166801E0,-1.990924305E0,2.595678996E0
1.516110446E1,-3.175816510E-1,-2.268583141E0,9.134146070E-1,2.466100934E0
1.517107446E1,-3.453273471E-1,-1.337463749E0,1.547331136E-1,1.389964961E0
1.518104446E1,2.809868153E-1,1.073043010E-1,-1.438679345E0,1.469784358E0
1.519101446E1,1.834400189E-1,1.319675935E0,-2.091035069E0,2.479439951E0
1.520098446E1,-4.137010324E-1,2.910699805E0,-5.634669363E-2,2.940492620E0
1.521095446E1,-3.659266127E-1,6.039445791E-1,1.179307968E0,1.374561248E0
1.522092446E1,-6.003226310E-1,3.043162921E-1,4.189822376E-2,6.743523768E-1
1.523089446E1,-8.995249848E-1,2.972797528E-1,-8.574778032E-1,1.277806180E0
1.524086425E1,-8.153484683E-1,5.777195245E-1,-9.651934558E-1,1.389298881E0
1.525083425E1,1.300063716E-1,1.652733046E-1,-8.066497117E-1,8.336070293E-1
1.526080525E1,1.822867652E-1,-1.765286100E0,-3.719507432E-1,1.813232151E0
1.527077525E1,1.994310208E-1,1.684783097E0,-3.872585199E0,4.227905266E0
1.528074525E1,5.614997503E-1,1.705272910E0,-3.837047576E0,4.236292219E0
1.529071525E1,1.642008521E-1,-4.031808097E0,-2.185045432E0,4.588775653E0
1.530068525E1,-3.168489218E-2,-1.275482679E0,-1.533233500E0,1.994659109E0
1.531065525E1,7.244466305E-2,1.081071529E0,1.457414993E0,1.816045798E0
1.532062525E1,-6.818199898E-1,-2.204144778E0,7.407169758E0,7.758176108E0
1.533059525E1,-8.559160119E-1,7.976274580E-2,6.221332204E0,6.280440169E0
1.534056525E1,-1.316045106E0,1.053618559E-1,5.138135505E0,5.305045929E0
1.535053525E1,-1.255726545E0,1.351268441E0,6.773899931E-1,1.965103752E0
1.536050625E1,4.056725129E-2,1.946996512E0,1.254799615E0,2.316670714E0
1.537047625E1,-3.256241307E-3,-1.679336415E0,3.206319534E0,3.619484266E0
1.538044625E1,3.582283148E-1,-1.218935133E0,1.075961355E0,1.664879342E0
1.539041625E1,1.145800279E-1,1.264369461E0,6.477393472E-1,1.425245585E0
1.540038625E1,-1.657890290E-2,-4.204688922E-1,8.743856120E-1,9.703706239E-1
1.541035625E1,-6.583783561E-1,-2.479945076E0,1.099330922E0,2.791436568E0
1.542032625E1,-5.072830146E-1,5.896437514E-1,-2.103215988E0,2.242439142E0
1.543029625E1,-3.219126836E-1,-8.140210041E-1,-4.016433721E0,4.110717432E0
1.544026625E1,-4.055460669E-2,-1.322419741E0,-2.097499750E0,2.479908032E0
1.545023625E1,-2.918991815E-1,-4.436139259E-1,-1.236477950E0,1.345687990E0
1.546020725E1,-4.120782108E-1,-2.023098901E0,1.547395456E0,2.580149281E0
1.547017725E1,-8.289210252E-1,6.628315955E-2,-6.410559797E-1,1.049979187E0
1.548014725E1,-9.783765882E-1,1.889622171E0,-2.331225239E0,3.156343424E0
1.549011725E1,-8.258179810E-1,7.975748330E-1,-9.722481215E-1,1.504449189E0
1.550008725E1,-9.295809889E-1,-1.629861077E0,2.623750913E-1,1.894573470E0
1.551005725E1,-7.094864561E-1,-1.743773609E0,1.719639811E0,2.549760481E0
1.552002725E1,-9.773145877E-1,8.905204189E-1,3.371334976E-1,1.364488701E0
1.552999725E1,-1.056153473E0,7.405276430E-1,-6.015264630E-2,1.291301549E0
1.553996725E1,6.664802581E-3,-8.207227904E-1,-1.503668223E0,1.713081563E0
1.554993725E1,-6.918884566E-1,-1.286811951E0,1.509248806E0,2.100577681E0
1.555990825E1,-2.364564309E-1,-1.077739201E0,-6.930207700E-1,1.302962477E0
1.556987825E1,-7.747665989E-1,-1.171505151E0,-8.409564954E-1,1.637038616E0
1.557984825E1,-5.361886521E-1,-1.215431482E-1,2.078081147E0,2.149579555E0
1.558981825E1,-6.518845115E-1,8.254353538E-1,-7.283882385E-1,1.279392968E0
1.559978825E1,2.985791868E-1,1.741392915E0,1.818536693E0,2.535483094E0
1.560975825E1,-3.696681364E-1,4.829986070E0,-1.562690603E0,5.089933388E0
1.561972825E1,-1.470759947E0,3.503156652E0,-5.842448418E0,6.969178206E0
1.562969825E1,-5.948349825E-1,6.939785439E-1,-2.188553177E0,2.371750384E0
1.563966825E1,-2.033661787E-1,-4.669314817E0,1.492531031E-1,4.676123945E0
1.564963825E1,-4.565305714E-1,-3.535344113E0,3.044529415E0,4.687881986E0
1.565960925E1,-3.073715354E-1,2.769896806E0,2.958111076E0,4.064139111E0
1.566957925E1,4.164087318E-2,3.195169478E0,1.396434966E0,3.487244266E0
1.567954925E1,4.425825136E-1,-9.875616869E-1,3.862291176E0,4.011041073E0
1.568951925E1,1.127946684E0,-1.841583493E0,1.988439238E0,2.935572191E0
1.569948925E1,-5.446655799E-1,-1.525909862E0,3.217784754E0,3.602665711E0
1.570945925E1,-5.195878952E-1,1.426635250E0,2.037179874E0,2.540740356E0
1.571942925E1,3.821609319E-1,-4.494099784E-1,1.378188729E-3,5.899306789E-1
1.572939925E1,-1.562883999E-2,-1.630510118E0,-2.057145191E0,2.625005494E0
1.573936925E1,8.744885230E-1,-1.995601200E0,-2.567154543E0,3.367111043E0
1.574933925E1,3.850630512E-1,-7.988328615E-1,-1.868964835E0,2.068680025E0
1.575931025E1,3.676706179E-1,-1.197076779E0,6.982902807E-1,1.433800479E0
1.576928025E1,5.343799621E-2,-2.526459384E0,2.346378883E0,3.448383172E0
1.577925025E1,-1.296022924E0,-3.064731253E0,3.434472626E0,4.782034639E0
1.578922025E1,-7.022117159E-1,1.487645683E0,1.585454398E0,2.284700553E0
1.579919025E1,4.962162088E-1,2.956598109E0,9.055869395E-1,3.131739231E0
1.580916025E1,-3.224587770E-1,1.637795456E0,-1.424864713E0,2.194673796E0
1.581913025E1,4.708740472E-1,-1.278093168E0,-1.461033250E0,1.997464060E0
1.582910025E1,-8.069841725E-1,-1.126649990E0,-3.766316732E0,4.013191421E0
1.583907025E1,-7.314721332E-1,-1.889267537E-1,-3.599043680E0,3.677480144E0
1.584904025E1,1.195352874E-1,-2.044859314E0,-8.040599799E-1,2.200511475E0
1.585901125E1,2.268979143E-1,-8.420312136E-1,4.634356946E-1,9.875585407E-1
1.586898125E1,9.989239233E-1,2.329625441E0,-1.474084235E0,2.932222371E0
1.587895125E1,1.376287507E0,2.525279124E0,-2.056147656E0,3.535384723E0
1.588892125E1,1.585944394E0,-7.688036084E-1,7.739854109E-1,1.924923902E0
1.589889125E1,7.429002969E-1,-2.587691134E0,1.929791665E0,3.312422396E0
1.590886125E1,-1.034756099E0,-1.180303749E0,2.051945263E0,2.583469854E0
1.591883125E1,-3.689596000E-1,1.340959215E0,4.532287949E-1,1.462777886E0
1.592880125E1,3.741113625E-1,1.334995347E0,-3.308173352E-1,1.425346273E0
1.593877125E1,1.364553753E0,2.408648221E0,2.178345108E-1,2.776876856E0
1.594874225E1,1.467971995E0,-9.641555750E-1,4.134355688E-1,1.804291196E0
1.595871225E1,8.306582330E-1,-1.233395005E0,4.912649328E-1,1.566077129E0
1.596868225E1,-9.564126190E-2,1.398071309E0,7.606256926E-1,1.594459808E0
1.597865225E1,-4.684873600E-1,1.346955827E-1,7.299424285E-1,8.777466920E-1
1.598862225E1,-9.486014698E-2,-1.648956037E0,1.207324902E0,2.045895373E0
1.599859225E1,-2.765876991E-1,-2.017456923E0,2.951382101E-2,2.036542230E0
1.600856225E1,9.409960695E-2,-5.763141462E-1,-9.986553168E-1,1.156851405E0
1.601853225E1,4.974489115E-1,3.561349019E-1,2.124437873E0,2.210774471E0
1.602850225E1,3.244009662E-2,-1.194574756E0,2.721338603E0,2.972161672E0
1.603847225E1,5.550941986E-1,-2.345821059E0,3.097017531E0,3.924604897E0
1.604844325E1,-1.035567108E-1,1.907165864E-1,1.795163033E0,1.808233150E0
1.605841325E1,-9.149452619E-2,1.779872856E0,-5.914341688E-1,1.877794720E0
1.606838325E1,1.620649374E0,1.377199088E0,1.581496418E-1,2.132649298E0
1.607835325E1,5.149459369E-1,-5.282398009E-1,-2.369539704E0,2.481718158E0
1.608832325E1,1.144983497E0,-3.549839360E0,-5.716553771E-1,3.773478046E0
1.609829325E1,1.037568318E-1,-2.784499642E-1,-1.326748434E0,1.359618061E0
1.610826325E1,-9.620814215E-1,-2.132608187E-1,2.125778639E-1,1.008102270E0
1.611823325E1,4.933810401E-1,-2.503684479E0,2.862872797E0,3.835088197E0
1.612820325E1,3.642347574E-2,-3.590175793E-1,1.912659908E0,1.946403919E0
1.613817325E1,6.619903274E-1,1.178064558E0,2.555964142E0,2.891196982E0
1.614814425E1,-2.371820703E-2,1.730106912E0,7.870989615E-1,1.900883283E0
1.615811425E1,2.837261993E-1,9.860551518E-1,1.166158165E0,1.553296554E0
1.616808425E1,5.174485452E-1,-6.760591668E-1,1.398041781E0,1.636865851E0
1.617805425E1,-3.779343452E-1,1.635346350E-1,9.563840407E-1,1.041272481E0
1.618802425E1,6.403535099E-1,1.686366815E0,1.866281548E0,2.595552440E0
1.619799425E1,-4.235828999E-1,2.347040496E0,1.653223627E0,2.901925210E0
1.620796425E1,5.326981567E-1,1.935028139E0,1.461141424E0,2.482546170E0
1.621793425E1,7.290963364E-1,1.982450812E0,-1.630638757E0,2.668459377E0
1.622790425E1,-7.668534889E-1,-1.559952351E-1,-1.460242707E-1,7.960665013E-1
1.623787483E1,2.630403583E-1,-1.288523139E0,7.131983417E-1,1.496039433E0
1.624784483E1,-3.733548059E-1,8.030615678E-1,-2.562974954E-1,9.219490761E-1
1.625781483E1,-1.763099972E-1,3.648186019E0,1.939527864E0,4.135470321E0
1.626778483E1,8.631104261E-2,1.996058160E-1,1.082643553E0,1.104268600E0
1.627775483E1,4.235948867E-1,-2.063520411E-1,-1.645266151E0,1.711407170E0
