"Time (s)","Linear Acceleration x (m/s^2)","Linear Acceleration y (m/s^2)","Linear Acceleration z (m/s^2)","Absolute acceleration (m/s^2)"
4.605541646E-3,-5.555852916E-1,-8.791560629E-1,-1.850677083E0,2.122874482E0
1.457654167E-2,-2.974752508E-1,6.375049657E-1,-1.139043456E0,1.338777092E0
2.454654162E-2,-6.823224849E-1,1.663983089E0,-4.089788210E-1,1.844360965E0
3.451629163E-2,-9.313965493E-1,7.739427263E-1,3.246181172E-1,1.253739924E0
4.448629165E-2,-7.727406849E-1,-5.523329607E-1,-2.788782728E-1,9.899358346E-1
5.445629166E-2,-6.000486889E-1,-1.491653949E-1,-1.278523523E0,1.420187010E0
6.442729163E-2,-3.505023887E-1,7.125741515E-1,-4.957620263E-1,9.361590851E-1
7.439729164E-2,-3.183867395E-1,6.147326919E-1,-9.903335595E-1,1.208315752E0
8.436729165E-2,-1.417650217E-1,-2.535314700E-1,-1.457707939E0,1.486367371E0
9.433729167E-2,9.639284107E-1,-4.142284513E-1,8.357401943E-1,1.341344424E0
1.043072916E-1,1.807999864E0,1.325139573E0,1.361214262E0,2.622548887E0
1.142782916E-1,1.478701489E0,2.291547788E0,3.864027214E-1,2.754461185E0
1.242482917E-1,1.224630467E0,1.237086645E-1,-6.715731829E-1,1.402153399E0
1.342182916E-1,9.144820163E-1,-2.329031364E0,-9.476272506E-1,2.675567577E0
1.441882916E-1,4.788854270E-1,-2.872342363E-1,-1.150316888E0,1.278696094E0
1.541582916E-1,2.879525119E-1,3.670889003E0,-2.697180247E-1,3.692030679E0
1.641292917E-1,-1.471022633E0,1.635622631E0,2.029055752E0,2.992697149E0
1.740992916E-1,-2.057176766E0,-8.017424360E-1,2.917351305E-2,2.208080224E0
1.840692916E-1,-1.499561431E0,-1.468321804E0,-2.314068924E0,3.124030792E0
1.940392916E-1,-3.125224207E-1,3.028723222E-1,-1.793993005E0,1.846026221E0
2.040102917E-1,-4.804741155E-1,1.750965976E0,1.640477282E-1,1.823087733E0
2.139802916E-1,-6.487378324E-1,9.122208980E-1,1.591899199E0,1.946060328E0
2.239502916E-1,-2.106097642E-1,-2.244295853E-1,8.630461067E-1,9.162825404E-1
2.339202916E-1,6.441834361E-1,4.765571389E-1,-1.294105768E0,1.522100110E0
2.438902917E-1,1.268344983E0,1.033348894E0,-6.797692251E-1,1.771608063E0
2.538612916E-1,1.197700239E0,1.145337399E0,-1.913571489E-1,1.668202979E0
2.638312916E-1,6.953174101E-1,4.528417093E-1,-3.230814689E-1,8.904569333E-1
2.738012917E-1,2.056915103E0,-9.138525635E-2,-2.644110918E-1,2.075852652E0
2.837712917E-1,2.193685571E0,4.291502532E-1,6.115310490E-2,2.236105102E0
2.937412916E-1,1.907465972E0,3.878697878E-1,1.934703326E-1,1.956093090E0
3.037122916E-1,3.478797152E0,-2.253847280E-1,4.575972497E-1,3.515995327E0
3.136822917E-1,3.132631752E0,-5.521019956E-1,-4.888330758E-2,3.181287143E0
3.236522916E-1,2.629088836E0,8.163379633E-1,-3.375229222E-1,2.773524383E0
3.336222916E-1,2.133524154E0,2.612770135E0,-7.987986553E-1,3.466492807E0
3.435922916E-1,1.485887133E0,1.029088028E0,-2.382038713E-2,1.807608960E0
3.535632917E-1,1.437103520E0,-1.144989198E0,4.090735459E-1,1.882447331E0
3.635332916E-1,9.072988580E-1,-7.407536379E-1,-4.077415502E-1,1.240225924E0
3.735032916E-1,1.348909382E0,6.181907353E-1,-2.088654667E-1,1.498446225E0
3.834732916E-1,7.602542482E-1,2.118503826E0,-7.734112144E-1,2.379960060E0
3.934442917E-1,3.425737470E-2,1.526835184E0,-2.164545679E0,2.649086115E0
4.034142916E-1,2.059852452E0,-5.325910065E-1,9.036825013E-1,2.311555184E0
4.133842916E-1,1.846845403E0,-8.927178025E-2,1.891508775E0,2.645111120E0
4.233542916E-1,1.129186001E0,6.395623085E-1,1.190569121E-1,1.303179005E0
4.333242917E-1,1.023057794E0,-8.678262055E-2,-2.177814766E0,2.407707546E0
4.432952916E-1,-1.279408792E-1,-1.973730567E-1,-1.653449330E0,1.670095709E0
4.532652916E-1,-9.026850394E-1,1.776779972E0,1.013621265E0,2.235892533E0
4.632352917E-1,7.883170827E-1,3.122502328E0,1.743354363E0,3.662068958E0
4.732052917E-1,5.460244728E-1,1.894326840E0,8.304274142E-1,2.139211676E0
4.831752916E-1,1.343779327E0,-3.667025748E-1,-6.678835899E-1,1.544759576E0
4.931462916E-1,1.749375826E0,-2.338929238E0,-2.297344133E0,3.716005359E0
5.031162917E-1,1.415302907E0,-2.422700250E0,-1.599512858E0,3.229705901E0
5.130862916E-1,2.147090132E0,-1.208701336E-1,-2.981927955E-1,2.171065307E0
5.230562916E-1,1.992583745E0,8.683621028E-1,5.657146060E-1,2.245991036E0
5.330272916E-1,1.062755418E0,5.463878042E-1,1.203856918E0,1.696248859E0
5.429972917E-1,1.664985301E0,-1.169196670E0,1.205438005E0,2.364799715E0
5.529672916E-1,9.925946778E-1,-2.273690684E0,-8.694833064E-1,2.628861871E0
5.629372916E-1,3.343422196E-1,-2.078398066E0,-2.069417912E0,2.951950836E0
5.729072916E-1,3.056927998E-1,-1.674311610E0,-1.013969175E0,1.981136276E0
5.828782917E-1,3.040449082E-1,-9.593623200E-1,1.294758902E0,1.639884137E0
5.928482916E-1,1.722243284E-1,7.679133698E-1,1.671958691E0,1.847917213E0
6.028182916E-1,1.828143303E-1,1.171158411E0,6.731887686E-1,1.363164048E0
6.127882916E-1,-1.577431141E-1,6.590338290E-2,2.630182850E-1,3.136953366E-1
6.227592916E-1,6.777664807E-2,-1.418325479E0,6.469043648E-1,1.560360887E0
6.327292916E-1,-1.138660464E-1,-1.543523137E0,1.764180391E0,2.346862076E0
6.426992916E-1,2.034509085E-1,4.713168642E-1,1.804815617E0,1.876403813E0
6.526692917E-1,-3.905833710E-1,1.957915311E0,1.319185646E0,2.392956017E0
6.626392917E-1,-6.920281320E-1,2.314352514E0,8.141914505E-1,2.549124989E0
6.726102916E-1,-9.864951548E-1,1.606407018E0,-1.283136976E0,2.280385208E0
6.825802916E-1,-1.753032529E-1,-9.444165444E-1,-5.962049121E-1,1.130537101E0
6.925502917E-1,-1.121641923E0,-8.226149493E-1,3.530402631E-1,1.435065638E0
7.025202916E-1,-7.725380789E-1,3.682362995E0,-1.081679932E0,3.914925770E0
7.124902916E-1,-2.539022748E-1,4.788884530E0,-1.072634289E0,4.914104773E0
7.224612916E-1,-1.002564180E0,5.811734748E-1,-4.992411196E-2,1.159909462E0
7.324312917E-1,5.555655207E-1,-2.536827959E0,8.644330662E-1,2.737041043E0
7.424012916E-1,-1.249768525E-1,-1.459310660E0,6.856257963E-1,1.617185688E0
7.523712916E-1,3.753690255E-1,1.076803354E0,-3.976036477E-1,1.207682089E0
7.623422917E-1,1.005046470E0,2.746498003E0,6.386504352E-2,2.925311681E0
7.723122917E-1,-4.033597930E-1,4.204077888E-1,2.407830781E-1,6.304112325E-1
7.822822916E-1,-6.726538215E-1,-2.903885168E0,4.877548492E-1,3.020416697E0
7.922522916E-1,-5.384549963E-1,-2.417306486E0,1.813851319E0,3.069749344E0
8.022222916E-1,-6.264457612E-1,3.037561288E-1,6.017048031E-1,9.201906040E-1
8.121932917E-1,-1.282044716E0,1.671392096E0,-5.983999568E-1,2.189811111E0
8.221632916E-1,-1.933014943E0,7.114757520E-1,-8.201871854E-1,2.217081761E0
8.321332916E-1,-2.164907841E-1,-7.837131312E-1,6.485029936E-1,1.040014742E0
8.421032917E-1,2.462513576E-1,-4.584933355E-1,5.549767792E-2,5.233888250E-1
8.520742916E-1,-1.115115992E0,-2.627478513E-1,-1.516215178E0,1.900375904E0
8.620442916E-1,-6.757315034E-1,5.098260418E-1,-1.502242087E0,1.724316371E0
8.720142916E-1,-4.464919620E-1,1.678734152E0,-1.317091758E0,2.179961955E0
8.819842917E-1,-2.419421972E-1,2.305662089E0,-1.169327356E0,2.596524631E0
8.919542916E-1,-1.694650638E-1,1.454037057E0,1.847761077E-1,1.475494622E0
9.019252916E-1,5.585070357E-1,-7.117078865E-1,1.114313242E0,1.435323039E0
9.118952916E-1,8.829864825E-2,-1.354061948E0,-1.946239883E-1,1.370824171E0
9.218652917E-1,-7.946797304E-2,-9.317830503E-3,-1.987103734E0,1.988713964E0
9.318352916E-1,-2.959779433E-1,1.692066388E0,-2.031390545E0,2.660308094E0
9.418062916E-1,-6.564121567E-1,1.540189055E0,-7.119423598E-1,1.819318875E0
9.517762917E-1,-5.159074384E-1,8.053346729E-1,-3.468229187E-1,1.017354686E0
9.617462917E-1,1.496751259E-1,1.211001923E0,-8.964693761E-1,1.514128675E0
9.717162916E-1,-7.414444864E-1,5.677845204E-1,-2.280647408E0,2.464441476E0
9.816862916E-1,-8.496715511E-1,-4.313146001E-1,-7.405124402E-1,1.206786105E0
9.916572917E-1,-1.098883025E0,-1.462490376E0,7.918720436E-1,1.993359811E0
1.001627292E0,-9.449444018E-1,-4.989206922E-1,4.938499868E-1,1.177170161E0
1.011597292E0,-2.542921562E-1,9.128401181E-1,-1.638103312E-1,9.616524354E-1
1.021567292E0,-5.483401895E-1,1.481608433E0,-9.347996289E-1,1.835671773E0
1.031538750E0,-5.669277571E-1,-1.978896582E-1,-8.597979784E-2,6.065970032E-1
1.041508750E0,-1.066812162E-2,-1.988322294E0,8.719110703E-1,2.171121431E0
1.051478750E0,-8.770779625E-1,-6.699283612E-1,-1.743581235E-2,1.103799696E0
1.061448750E0,-7.954555828E-1,1.575101610E0,-3.635710984E-1,1.801632207E0
1.071418750E0,-1.269817458E0,2.126128303E0,8.557867885E-1,2.620158194E0
1.081389750E0,-1.672849953E0,6.793988040E-1,4.956965375E-1,1.872358074E0
1.091359750E0,-7.654965694E-1,-7.571843138E-1,-2.899476367E-1,1.115070722E0
1.101329750E0,-1.101728499E0,1.670540741E-1,-1.249514317E0,1.674215870E0
1.111299750E0,-7.540616083E-1,1.570599546E0,-1.477444630E0,2.284345526E0
1.121269750E0,-1.321454950E0,8.558815134E-1,-6.418687427E-1,1.700226994E0
1.131240750E0,-4.303098292E-1,1.021775208E0,-2.814966559E-1,1.143866903E0
1.141210750E0,-6.521440730E-2,7.351704240E-1,-6.815608120E-1,1.004616151E0
1.151180750E0,-6.124657995E-1,1.127236174E0,-1.124751692E0,1.706119021E0
1.161150750E0,4.025989789E-2,2.423520322E0,3.006813705E-2,2.424041193E0
1.171121750E0,-1.210762114E0,2.203546315E0,-8.204064560E-1,2.644735906E0
1.181091750E0,-3.230028604E-1,6.265861675E-1,-1.178630276E0,1.373357346E0
1.191061750E0,-4.926362510E-1,-7.781959909E-1,-1.873435031E0,2.087591505E0
1.201031750E0,-7.334529506E-1,5.055017334E-1,-1.631978939E0,1.859258048E0
1.211001750E0,-1.126995999E0,2.072944076E0,1.056598300E0,2.585269249E0
1.220972750E0,-1.884309683E0,2.329813136E0,1.173225694E0,3.217935792E0
1.230942750E0,-1.335744814E0,5.540733844E-1,-1.198807847E-1,1.451062689E0
1.240912750E0,-2.531426667E-1,-1.792195571E0,6.994129461E-1,1.940418677E0
1.250882750E0,-8.742287239E-2,-1.272898794E0,1.731455864E0,2.150779744E0
1.260853750E0,-7.015394323E-2,-2.434488237E-2,1.344417551E0,1.346466784E0
1.270823750E0,-6.256719553E-1,-8.622479618E-2,2.304359622E0,2.389345806E0
1.280793750E0,1.201042763E-1,6.301982850E-2,3.117590960E0,3.120540006E0
1.290763750E0,-2.898534600E-1,9.822959769E-1,1.047140429E0,1.464726422E0
1.300733750E0,-1.112824834E0,6.129659557E-1,-9.491872877E-1,1.585894978E0
1.310704750E0,-1.037373167E0,3.752743006E-3,-2.072949046E-1,1.057888627E0
1.320674750E0,-1.115860781E0,-3.359804267E-1,-1.536671662E-1,1.175432571E0
1.330644750E0,-6.673915467E-1,-3.103023791E-1,-6.897907680E-1,1.008717179E0
1.340614750E0,-7.192912866E-1,2.496094501E-1,-1.604744362E0,1.776200805E0
1.350585750E0,-2.862124536E-1,-4.877560186E-1,-1.245022486E0,1.367444512E0
1.360555750E0,8.494139812E-1,-5.312300670E-1,1.188860564E0,1.554702202E0
1.370525750E0,7.221655768E-2,1.814406804E0,1.133588004E-1,1.819378328E0
1.380495750E0,-3.388965062E-1,7.762208015E-1,4.068083346E-2,8.479531265E-1
1.390465750E0,1.575462091E-1,-6.665752754E-1,-1.670318547E0,1.805299824E0
1.400436750E0,2.216128719E-1,-4.316858983E-1,-3.503033568E0,3.536482597E0
1.410406750E0,-7.906175600E-3,9.451301971E-1,-4.851306188E0,4.942520139E0
1.420376750E0,-1.250039397E0,9.426901540E-1,-1.279974802E0,2.022275628E0
1.430346750E0,-1.404990173E0,-5.671515593E-1,3.662614024E0,3.963634666E0
1.440317750E0,-1.912487196E-1,-7.670155299E-1,2.635011481E0,2.751031516E0
1.450287750E0,8.537352198E-1,-3.292423877E-1,1.902929556E-1,9.345992640E-1
1.460257750E0,7.026785430E-1,1.050504332E0,9.269836557E-1,1.567359303E0
1.470227750E0,-4.132757206E-1,2.695771361E0,3.954512876E-1,2.755786960E0
1.480197750E0,-9.748950098E-1,2.787124750E0,-2.165912173E0,3.661920288E0
1.490168750E0,-6.274769908E-1,3.330854702E-1,-3.990155164E0,4.052901619E0
1.500138750E0,8.258241937E-1,-1.238425365E0,-3.217168458E0,3.544835097E0
1.510108750E0,1.789894838E0,1.966817112E0,-8.067596394E-1,2.779020366E0
1.520078750E0,1.242249151E0,2.423580841E0,-1.408687806E-1,2.727044382E0
1.530049750E0,8.084807673E-1,5.719182095E-1,-1.447525012E0,1.753870078E0
1.540019750E0,1.650154862E0,-2.726220151E0,7.195653749E-1,3.266965214E0
1.549989750E0,2.925297379E0,-8.286220863E-1,1.622135151E0,3.446055973E0
1.559959750E0,2.555351354E0,2.071526418E0,-8.797896087E-1,3.405153741E0
1.569929750E0,7.139551176E-1,1.053853617E0,-1.491017772E0,1.960477838E0
1.579900750E0,1.327249395E0,-2.373966924E0,1.159058475E-1,2.722268186E0
1.589870750E0,3.573613554E0,-2.133039712E0,2.618300139E0,4.916916500E0
1.599840750E0,1.245759235E0,4.959526455E-1,6.535000241E-1,1.491625751E0
1.609810750E0,1.201576870E0,9.379077163E-1,-8.074770927E-2,1.526426562E0
1.619781750E0,6.635752152E-1,-1.974933632E0,-4.662423581E-1,2.134965305E0
1.629751750E0,9.853007148E-1,-3.216180570E0,7.367380625E-1,3.443460169E0
1.639721750E0,2.378127218E0,-4.123023784E-1,2.774824255E0,3.677653050E0
1.649691750E0,1.539578459E0,2.177558365E0,-4.206065941E-1,2.699809655E0
1.659661750E0,2.877320682E0,-1.115710435E0,1.236779666E0,3.324666604E0
1.669632750E0,9.041933287E-1,-4.472821766E0,5.211415150E0,6.926943626E0
1.679602750E0,8.321771935E-1,3.154169387E-1,2.244123945E0,2.414145606E0
1.689572750E0,2.060545786E0,4.169369985E0,7.722534657E-1,4.714432142E0
1.699542750E0,2.282105412E-1,1.605435795E0,9.286805177E-1,1.868676443E0
1.709513750E0,2.123079418E-1,-1.976379941E0,-2.339675635E-1,2.001472746E0
1.719483750E0,4.010527010E-1,-1.077083143E0,-4.180554539E-1,1.222997027E0
1.729453750E0,1.218788149E0,3.370740606E0,-1.147426025E0,3.763498807E0
1.739423750E0,1.121459198E0,2.477981581E0,-8.929756647E-1,2.862772954E0
1.749394750E0,1.024392933E0,-5.219052199E-1,-3.209521469E0,3.409221905E0
1.759364750E0,1.545961426E0,-1.816273528E0,-3.327007819E0,4.093632529E0
1.769334750E0,1.677412097E0,-7.442950040E-2,1.020077761E0,1.964639847E0
1.779304750E0,2.590354541E0,2.376059057E0,5.494687021E-1,3.557739331E0
1.789274750E0,2.546984281E0,2.579323769E-1,-1.721751240E0,3.085139441E0
1.799245750E0,1.596413396E0,-4.017914236E0,2.856812158E0,5.182040741E0
1.809215750E0,1.122394241E-1,-1.735392210E0,6.805802924E0,7.024467044E0
1.819185750E0,3.300158282E0,4.433630511E0,9.717043304E-1,5.611803052E0
1.829155750E0,3.709913613E0,2.227868393E0,8.012860608E-1,4.401013059E0
1.839126750E0,4.121263772E-3,-2.936132562E0,3.021373857E0,4.213026393E0
1.849096750E0,3.697717052E-1,-2.657437600E0,-6.183459789E-1,2.753372016E0
1.859066750E0,6.022962490E-1,3.379370512E0,-3.244549214E0,4.723346847E0
1.869036750E0,1.234768224E0,4.187232059E0,-2.322806418E-2,4.365558891E0
1.879007750E0,1.496275588E0,9.510037252E-1,-1.015715738E0,2.043263855E0
1.888977750E0,-1.587156522E-1,-3.114507723E-1,-4.834092570E0,4.846714683E0
1.898947750E0,-4.273335964E-1,1.272509954E0,-3.216285528E0,3.485166880E0
1.908917750E0,2.334680505E0,6.410694283E-1,1.853037604E0,3.048844278E0
1.918888750E0,3.304711216E0,-1.060772043E0,9.767224109E-1,3.605598455E0
1.928858750E0,3.202677595E0,-2.422679785E0,-1.292342833E0,4.218610093E0
1.938828750E0,1.595439980E0,-1.817302930E0,-1.297386641E0,2.744308796E0
1.948798750E0,1.186599884E0,7.933686385E-1,-1.376069698E0,1.982680231E0
1.958768750E0,2.113585733E0,3.602393550E-1,2.498211193E-1,2.158570739E0
1.968739750E0,3.869153760E-1,-2.148613186E0,2.094834589E0,3.025652671E0
1.978709750E0,-4.398625716E-1,-1.613704636E0,1.419684665E0,2.193861044E0
1.988679750E0,-1.875021527E-1,1.125385530E0,-2.631135947E-1,1.170845170E0
1.998649750E0,8.352108020E-1,2.825139838E0,-1.596662341E0,3.350868964E0
2.008620750E0,1.977434778E0,1.970939983E0,2.691520143E-1,2.804869966E0
2.018590750E0,2.010245552E0,-2.204594429E0,1.609747825E0,3.390075491E0
2.028560750E0,1.515948253E0,-3.292971761E0,8.675046086E-1,3.727509406E0
2.038530750E0,1.568841873E0,-1.034050852E-2,3.627027869E-1,1.610256210E0
2.048501750E0,1.127733041E0,1.851380503E0,1.353523419E0,2.555663755E0
2.058471750E0,7.272601645E-1,1.759866608E0,1.770177296E0,2.599916438E0
2.068441750E0,1.021087940E0,7.667755017E-1,3.903110003E-1,1.335255754E0
2.078411750E0,-9.501430151E-1,-1.470761847E0,-1.041740525E0,2.037433553E0
2.088381750E0,-1.647371734E0,2.089063972E-2,-1.764145893E-1,1.656922495E0
2.098352750E0,-8.278850448E-1,2.377661779E0,-4.319513619E-1,2.554457117E0
2.108322750E0,7.101955041E-3,2.611901823E0,-1.878347277E0,3.217183561E0
2.118292750E0,7.537670548E-1,-6.680180758E-2,-1.793650943E-1,7.776882997E-1
2.128262750E0,6.457036391E-2,-5.707452580E-1,-1.441909931E0,1.552103003E0
2.138233750E0,-3.588227208E-1,-1.218831638E-1,-2.415589451E0,2.445134280E0
2.148203750E0,7.119227716E-1,-1.049410026E0,7.690246332E-1,1.483069223E0
2.158173750E0,-6.989035805E-1,-1.045768672E0,1.169815598E0,1.717721416E0
2.168143750E0,-1.179012099E-1,-1.150576212E0,3.102345514E-1,1.197485612E0
2.178114750E0,-1.145283532E-1,-5.339560390E-2,1.675165889E0,1.679925174E0
2.188084750E0,-1.171198172E0,-1.526560365E0,2.014768081E0,2.785925721E0
2.198054750E0,7.696219993E-1,-6.899848956E-1,8.076045620E-1,1.311724936E0
2.208024750E0,-6.965745614E-1,2.725029951E0,-1.915073639E0,3.402721175E0
2.217995750E0,-9.198397469E-1,2.059058693E0,-1.667555737E0,2.804740629E0
2.227965750E0,-1.035094580E0,-1.538615277E0,1.567627991E0,2.428212363E0
2.237935750E0,-1.415796266E0,-9.895906708E-1,2.216324528E0,2.809957860E0
2.247905750E0,-5.292069304E-1,5.540891719E-1,3.295028812E-1,8.340545152E-1
2.257876750E0,2.289765995E-1,-3.421606413E-1,1.331431469E0,1.393633361E0
2.267846750E0,-4.039365843E-1,-8.564443079E-1,1.392569371E0,1.684016351E0
2.277816750E0,-9.399001551E-1,2.417409689E0,-2.418420088E0,3.546270947E0
2.287786750E0,-1.024548834E0,1.626476416E0,-2.418523584E0,3.089398351E0
2.297756750E0,-1.269241361E0,-3.563743454E-1,-2.021915132E0,2.413735095E0
2.307727750E0,-6.059042003E-1,-1.353138673E0,-1.371343979E0,2.019576311E0
2.317697750E0,4.638971861E-1,-7.299228403E-1,1.400051469E-1,8.761217913E-1
2.327667750E0,-1.717310865E0,2.305223256E0,-1.762366585E0,3.371816550E0
2.337637750E0,-8.457846875E-1,-4.910725594E-1,-1.479571263E0,1.773593842E0
2.347608750E0,-9.140725650E-1,-2.312905620E0,-2.922672272E-2,2.487150028E0
2.357578750E0,-2.800045050E0,-3.368727118E-1,1.964068043E-1,2.827067586E0
2.367548750E0,-1.180639233E0,1.977974184E0,-7.694485563E-1,2.428650232E0
2.377518750E0,-1.661942849E0,1.177792954E0,1.262673476E0,2.396579768E0
2.387489750E0,-1.060026669E0,-2.804751474E-1,4.116919291E-1,1.171244249E0
2.397459750E0,-9.524796356E-1,4.199654469E-1,-2.091649026E0,2.336361291E0
2.407429750E0,-1.438471622E0,7.130761349E-1,-1.099128023E0,1.945703110E0
2.417399750E0,-1.903592338E0,9.407845464E-1,1.282399642E0,2.480582229E0
2.427370750E0,-1.617952784E0,3.933249477E-1,-5.750210345E-1,1.761568879E0
2.437340750E0,-4.299071388E-1,2.020350417E-1,-1.231544654E0,1.319977477E0
2.447310750E0,-1.443771392E0,3.635152575E-1,-1.005574912E-1,1.492223504E0
2.457280750E0,-9.808225516E-1,-6.713802248E-2,-3.072454548E-1,1.030009787E0
2.467250750E0,-5.033694001E-1,-6.228457037E-1,-1.277667491E0,1.507896462E0
2.477221750E0,-1.679254847E0,1.883566502E-1,1.178019242E0,2.059879706E0
2.487191750E0,-2.330776319E0,2.224734578E0,-4.691794145E-1,3.256085305E0
2.497161750E0,-6.955268866E-1,4.123906714E-1,6.340270418E-1,1.027528104E0
2.507131750E0,-9.572147839E-1,-2.217321770E0,1.844764963E0,3.039067908E0
2.517102750E0,-9.129439062E-1,-2.354770807E0,3.845735954E0,4.600880042E0
2.527072750E0,-1.527447680E0,3.010514115E0,-2.282940102E-1,3.383549883E0
2.537042750E0,-1.906280449E0,1.787946107E0,-8.556406081E-2,2.614952704E0
2.547012750E0,-8.073780555E-1,-2.196874934E0,2.337648990E0,3.307978477E0
2.556983750E0,-7.107992291E-1,-1.420621096E0,1.982011394E0,2.540033269E0
2.566953750E0,-1.075429478E0,4.804458296E-1,-8.265255672E-1,1.438930599E0
2.576923750E0,-1.181937826E0,2.738805406E0,-1.221362312E0,3.223314750E0
2.586893750E0,-2.329615354E0,-2.099165037E-1,-8.915173692E-1,2.503193132E0
2.596863750E0,-1.946452721E0,-2.279801901E0,-1.844749176E0,3.519840114E0
2.606834750E0,-2.689156698E0,-2.219737255E0,-1.771946663E0,3.911341484E0
2.616804750E0,-2.691222519E0,-8.783339444E-1,-5.484928018E-1,2.883573047E0
2.626774750E0,-1.734170142E0,7.292881250E-1,1.814707351E0,2.613880261E0
2.636744750E0,-6.661918442E-1,7.498206228E-2,2.343455275E0,2.437461079E0
2.646715750E0,-5.668606238E-1,-1.506710529E-1,3.064935029E-1,6.617937747E-1
2.656685750E0,-2.405616148E-1,1.421922979E-1,1.739587587E-1,3.291659001E-1
2.666655750E0,-4.594049530E-1,-3.388394228E-1,1.527565209E0,1.630742325E0
2.676625750E0,-8.319248861E-1,-2.250996763E-1,1.563547804E0,1.785343277E0
2.686596750E0,-4.887040716E-2,1.651636108E0,-1.377546120E0,2.151260901E0
2.696566750E0,-4.862104168E-1,1.368247878E0,-1.060040556E0,1.797828914E0
2.706536750E0,-5.668883980E-1,-1.571774544E0,2.094598362E0,2.679399181E0
2.716506750E0,-3.880473239E-1,-5.786302283E-1,-1.188759407E0,1.377876118E0
2.726476750E0,-6.137358879E-1,8.404343390E-1,-3.046730892E0,3.219560645E0
2.736447750E0,3.254062488E-1,1.709782282E0,-2.913700889E0,3.393950139E0
2.746417750E0,1.103876693E0,-6.068392432E-1,-6.819402963E-1,1.432424584E0
2.756387750E0,-5.746899359E-3,4.618861824E-2,-9.003899342E-1,9.015921744E-1
2.766357750E0,-6.329868221E-1,6.687434229E-1,-2.207601652E0,2.391943798E0
2.776328750E0,6.974301553E-1,-1.401143436E0,-1.400173675E0,2.100023350E0
2.786298750E0,4.525226706E-1,-2.080169773E0,1.337780961E0,2.514267478E0
2.796268750E0,1.125091561E0,5.831779003E-1,-1.344549698E-1,1.274364792E0
2.806238750E0,1.218264092E-1,4.573300320E-1,-2.483119529E-1,5.344635237E-1
2.816208750E0,1.149891796E0,-6.127984330E-1,2.472360653E0,2.794698599E0
2.826179750E0,1.897940127E0,-1.934571764E-1,1.707103965E0,2.560040303E0
2.836149750E0,4.632159854E-1,-1.950192600E-2,-3.710233748E-1,5.938078131E-1
2.846119750E0,-8.190586728E-1,-1.640873138E0,3.296467227E-1,1.863327327E0
2.856089750E0,4.232976655E-2,1.535687284E0,3.613164121E-1,1.578187819E0
2.866060750E0,1.319632336E-1,1.343179110E0,-1.540589297E-1,1.358410310E0
2.876030750E0,-3.863859289E-2,-4.081792143E-1,-1.674112220E0,1.723587810E0
2.886000750E0,-2.142105710E-1,-1.756786880E0,-5.296606743E-1,1.847356690E0
2.895970750E0,-3.646401522E-1,-1.600473556E0,2.019683250E0,2.602613778E0
2.905941750E0,1.330202385E0,6.259084752E-1,9.059219849E-1,1.726816275E0
2.915911750E0,1.424214539E-2,5.024375001E-1,3.354518968E0,3.391967540E0
2.925881750E0,4.579192121E-4,6.000003397E-1,4.515111169E0,4.554802903E0
2.935851750E0,1.623229311E0,2.393080595E0,3.332129395E-1,2.910796969E0
2.945821750E0,5.897911012E-1,1.625580915E0,-2.488462130E0,3.030315269E0
2.955792750E0,6.471669048E-1,-6.560853705E-1,-2.618845099E-1,9.580482830E-1
2.965762750E0,-5.031690964E-1,-8.222974455E-1,-1.866683836E0,2.100919030E0
2.975732750E0,-4.554808135E-1,2.054741986E0,-4.435736386E0,4.909703115E0
2.985702750E0,5.250491946E-1,4.967914286E-1,-1.439051812E0,1.610387686E0
2.995673750E0,-2.322590619E-1,-2.180261533E0,1.260730446E0,2.529214479E0
3.005643750E0,-1.341292159E-1,-1.213971139E0,-4.609646612E-1,1.305452026E0
3.015613750E0,3.020202367E-1,8.474015889E-1,-1.609074810E0,1.843482417E0
3.025583750E0,4.149814995E-1,7.757998019E-1,-4.278700054E-2,8.808550988E-1
3.035553000E0,4.908782856E-1,-1.513958738E0,1.662121920E0,2.301234849E0
3.045524000E0,-1.076884411E0,-1.345864152E0,1.811249893E0,2.500331283E0
3.055494000E0,-3.084428549E-1,2.311304652E0,2.225461972E-1,2.342390446E0
3.065464000E0,1.241094326E0,3.046140323E0,-1.166095600E0,3.489851708E0
3.075434000E0,3.746677981E-1,-9.199365914E-2,-1.276050736E0,1.333095748E0
3.085405000E0,9.302187739E-1,-1.720373636E-1,-5.106639478E0,5.193521982E0
3.095375000E0,1.076446382E0,1.968680619E0,-5.945051265E0,6.354374457E0
3.105345000E0,-3.865623138E-1,-8.309562948E-1,-1.791670491E0,2.012461661E0
3.115315000E0,-4.801658942E-1,-3.160931107E0,4.972893190E-1,3.235636168E0
3.125285000E0,-1.422097372E0,-6.409609625E-1,2.664476185E0,3.087494977E0
3.135256000E0,2.374066217E-1,2.387346230E0,-1.933201177E0,3.081079472E0
3.145226000E0,1.951733196E0,5.794728121E-1,2.948576022E0,3.583176212E0
3.155196000E0,-5.373147527E-1,-6.254927382E-1,5.196906454E0,5.261918376E0
3.165166000E0,1.676816704E0,3.071986771E-1,-1.226190358E0,2.099911446E0
3.175137000E0,1.421333726E0,8.451010019E-1,3.489454579E-1,1.690014259E0
3.185107000E0,1.361900579E-2,1.406736590E0,2.622777936E0,2.976248883E0
3.195077000E0,-4.025437409E-1,2.236059465E0,-1.992640463E0,3.022022404E0
3.205047000E0,-6.526287889E-1,-3.786788419E-1,-3.598428553E0,3.676684655E0
3.215017000E0,-4.732977912E-1,-4.036263383E0,-1.900907589E0,4.486522323E0
3.224988000E0,6.638387784E-1,-1.627412848E0,-6.130255973E-1,1.861438928E0
3.234958000E0,9.255314266E-1,1.163996741E0,4.075380671E-1,1.541941669E0
3.244928000E0,8.416724870E-1,6.431922600E-1,6.507056397E-1,1.243192136E0
3.254898000E0,8.362007356E-1,-1.238855135E0,-1.155117452E-1,1.499111964E0
3.264869000E0,7.880322502E-1,-8.148387372E-1,2.955213196E0,3.165160664E0
3.274839000E0,1.145582251E0,2.377573194E0,1.819074052E0,3.205346065E0
3.284809000E0,7.643718575E-1,2.965204334E0,-1.225668787E0,3.298327614E0
3.294779000E0,1.747469634E-1,3.283498102E-1,-6.468897468E-1,7.462013425E-1
3.304750000E0,3.792800087E-1,-1.363819197E-1,-1.065076178E0,1.138789102E0
3.314720000E0,3.829442395E-1,7.630294830E-1,-9.293599641E-1,1.261970770E0
3.324690000E0,-4.347762980E-1,1.497775984E0,-3.341742218E-1,1.595003366E0
3.334660000E0,-2.679367801E-1,-9.441905496E-1,6.043606085E-1,1.152622079E0
3.344630000E0,5.707589624E-2,-2.536079223E0,6.280669749E-1,2.613316592E0
3.354601000E0,2.094581003E-1,-4.847303769E-1,3.567234242E-1,6.372502142E-1
3.364571000E0,9.575380253E-2,1.178933161E0,5.463778639E-1,1.302912491E0
3.374541000E0,6.443593277E-2,2.248421064E-1,1.049822547E0,1.075561873E0
3.384511000E0,1.110413296E0,-5.169994059E-1,-6.274565256E-1,1.376229546E0
3.394482000E0,8.258081869E-1,2.646955588E-1,-2.764356569E0,2.897186591E0
3.404452000E0,9.472523709E-1,5.762635678E-1,-2.397478285E0,2.641452041E0
3.414422000E0,7.098011825E-1,-6.859131870E-1,-1.223882462E0,1.572317684E0
3.424392000E0,3.512213770E-1,-1.658790761E-1,-2.686051826E0,2.713990924E0
3.434362000E0,8.659184783E-1,1.440835505E0,-2.769761150E0,3.239968919E0
3.444333000E0,-1.777959757E-1,-1.732204600E0,-6.869127685E-1,1.871895654E0
3.454303000E0,1.071148512E-1,-4.372953369E0,2.346576519E0,4.963931519E0
3.464273000E0,8.162430192E-1,-8.905917549E-1,-6.875939691E-1,1.390033024E0
3.474243000E0,4.107443147E-1,2.671834322E0,-5.247624618E-1,2.753685744E0
3.484214000E0,1.169087474E0,1.915383249E0,1.091745329E0,2.495469169E0
3.494184000E0,1.195092380E0,4.017791444E-1,2.312304819E-1,1.281850153E0
3.504154000E0,7.058704649E-1,-4.417299530E-1,-3.121948889E0,3.231090115E0
3.514124000E0,1.247521367E-1,1.803737390E-1,-2.277912081E0,2.288445155E0
3.524095000E0,-4.723423927E-1,5.970132896E-1,-1.191311717E-1,7.705351647E-1
3.534065000E0,-9.065771654E-1,-9.555288854E-1,5.941285658E-1,1.444958948E0
3.544035000E0,-7.597738995E-1,-2.164262966E0,1.082866332E0,2.536511395E0
3.554005000E0,-9.532727373E-1,8.828623205E-1,1.863326365E-1,1.312590812E0
3.563976000E0,-2.741029979E-1,2.026976775E0,-1.084319365E-1,2.048298021E0
3.573946000E0,-2.333278964E-1,-2.110023901E0,2.696339418E0,3.431747227E0
3.583916000E0,-4.787813466E-2,-1.910436797E0,2.273100407E0,2.969687952E0
3.593886000E0,6.593394191E-1,1.917417203E0,-4.776666480E-1,2.083118486E0
3.603856000E0,4.593677866E-1,2.864050134E0,-7.040813631E-1,2.984884001E0
3.613827000E0,2.333581009E-1,7.251357248E-1,1.027797840E0,1.279314747E0
3.623797000E0,-2.735373346E-1,-1.808025446E0,-4.837857592E-1,1.891514564E0
3.633767000E0,-6.552678566E-2,-4.268172142E-1,4.692794019E-1,6.377223934E-1
3.643737000E0,-2.230142851E-1,3.444742383E0,-9.226070148E-1,3.573120368E0
3.653708000E0,1.931979255E-1,1.482754487E0,8.592600346E-1,1.724590999E0
3.663678000E0,8.913542318E-1,-2.047175689E0,1.478505900E0,2.677950777E0
3.673648000E0,5.216566401E-1,-4.553747231E-1,-3.202870846E-1,7.629387951E-1
3.683618000E0,9.131883929E-1,3.096971338E0,-1.145280097E0,3.425902948E0
3.693589000E0,5.599430387E-1,8.445361608E-1,1.544017519E0,1.846826368E0
3.703559000E0,-2.870641920E-1,-9.515732440E-1,-1.396799832E0,1.714335807E0
3.713529000E0,3.230089635E-1,4.062882248E-1,-2.634765898E0,2.685404299E0
3.723499000E0,-9.925506044E-1,1.454507173E0,-1.099556040E0,2.075998868E0
3.733469000E0,-5.614882751E-1,1.492264983E-1,-8.837218612E-1,1.057592530E0
3.743440000E0,4.596297419E-1,8.206333280E-2,-1.551498447E0,1.620228787E0
3.753410000E0,-1.801515814E-1,1.086535167E0,-1.410506290E0,1.789564544E0
3.763380000E0,-6.478515772E-2,-2.415924204E0,3.307470517E0,4.096370113E0
3.773350000E0,2.721728686E-1,-3.187866890E-1,1.456666549E0,1.515777180E0
3.783321000E0,7.590888982E-1,1.608598262E0,1.005574912E-1,1.781548802E0
3.793291000E0,2.050242115E-1,-7.367617437E-1,1.998101177E0,2.139453460E0
3.803261000E0,3.522440550E-1,8.356407917E-1,-1.891550875E-1,9.263644283E-1
3.813231000E0,9.066449931E-1,2.893011393E0,-1.363882931E0,3.324409228E0
3.823202000E0,-1.110201517E-1,1.533068316E0,-2.050543685E0,2.562684791E0
3.833172000E0,-7.784283447E-1,-1.730329983E0,-3.990736377E-1,1.938879136E0
3.843142000E0,-7.828590723E-1,-8.875661132E-1,9.552865183E-1,1.520925463E0
3.853112000E0,-5.057309077E-1,2.254383470E0,1.653473303E0,2.841123465E0
3.863083000E0,-2.966445259E-1,1.931325682E0,1.485456485E0,2.454505619E0
3.873053000E0,-5.262423921E-1,-3.244234049E-1,1.272240690E0,1.414488591E0
3.883023000E0,-3.080722876E-1,8.530687103E-1,1.956630970E0,2.156626882E0
3.892993000E0,-3.166217209E-1,1.822465145E0,1.479045013E0,2.368375534E0
3.902963000E0,3.200392357E-1,2.927832440E-1,5.553317052E-1,7.046562589E-1
3.912934000E0,-2.846511740E-1,2.720654187E0,-1.774365656E0,3.260576479E0
3.922904000E0,9.330185487E-2,1.252111650E0,1.976031446E-1,1.271037302E0
3.932874000E0,-1.177907779E0,-1.052521329E0,8.752545083E-1,1.805917589E0
3.942844000E0,-1.061592042E0,3.230507711E-1,1.900713462E-1,1.125818183E0
3.952815000E0,-9.510561126E-2,1.401556542E0,-3.987397617E-1,1.460273678E0
3.962785000E0,-9.852030663E-1,1.321307015E-1,4.834776109E-1,1.105366095E0
3.972755000E0,-6.764731497E-2,1.735871682E-1,1.563947754E0,1.575005156E0
3.982725000E0,-6.140039827E-1,1.556621777E0,2.394120229E0,2.920938877E0
3.992696000E0,-5.598839453E-1,-5.154393688E-1,-2.146109408E-1,7.906994568E-1
4.002666000E0,-3.829412063E-1,1.124195622E0,-1.087311970E0,1.610188524E0
4.012636000E0,-3.986041429E-1,-2.119422716E-1,-2.892032862E-1,5.361374170E-1
4.022606000E0,-4.973655887E-1,3.128058645E-1,-2.952420566E0,3.010316800E0
4.032577750E0,8.933203398E-2,1.122352872E0,-7.210394579E0,7.297769945E0
4.042547750E0,-7.956111918E-1,-2.064508882E0,-5.546356527E0,5.971370430E0
4.052517750E0,-6.788611525E-1,-4.020703942E0,-9.552888572E-1,4.188017366E0
4.062487750E0,-5.665918346E-1,-2.226344024E0,4.544119205E0,5.091822206E0
4.072457750E0,1.715042986E-1,-1.683960101E0,1.096638162E1,1.109624536E1
4.082428750E0,8.906875762E-1,1.152183612E0,6.367527214E0,6.531941078E0
4.092398750E0,-1.701311165E-1,2.867341532E0,1.283943892E0,3.146284154E0
4.102368750E0,4.622432280E-2,5.897937325E-1,1.927869685E0,2.016599826E0
4.112338750E0,-1.701653629E0,9.860226998E-1,3.735435247E-2,1.967043768E0
4.122309750E0,-1.933883254E0,6.946620834E-1,-4.628269994E0,5.063925650E0
4.132279750E0,-2.121355221E0,-5.689332059E-1,-3.663598110E0,4.271508408E0
4.142249750E0,-2.189217713E0,-3.194762512E0,-1.102755636E-1,3.874447367E0
4.152219750E0,-6.900724576E-1,1.660783200E0,3.057563444E0,3.547265855E0
4.162190750E0,-1.919238537E-1,3.497344812E0,4.288207626E-1,3.528759378E0
4.172160750E0,-5.660738444E-1,2.076492459E-2,-2.195243561E-1,6.075045039E-1
4.182130750E0,-6.319717455E-1,3.819629306E-1,3.178967428E-1,8.039541694E-1
4.192100750E0,-1.262840998E0,1.250381167E0,-7.724739057E-1,1.937765823E0
4.202071750E0,-2.402712859E0,5.731513873E-1,-1.052422219E0,2.684981215E0
4.212041750E0,-1.839698790E0,-1.183837514E0,-1.762572992E0,2.809381862E0
4.222011750E0,-6.585043636E-1,-2.807727706E0,1.979521649E0,3.497923503E0
4.231981750E0,-1.710494327E0,-2.022374139E0,4.033676575E0,4.825591644E0
4.241951750E0,-9.617909610E-1,2.327513427E0,3.660966278E0,4.443538533E0
4.251922750E0,-7.497754531E-1,2.632398360E0,7.599982864E-1,2.840648122E0
4.261892750E0,-1.292069329E0,-3.382342359E0,-1.183587545E-1,3.622663631E0
4.271862750E0,4.772236118E-1,-2.585790497E0,-3.922896981E-1,2.658560903E0
4.281832750E0,-1.290242074E0,1.587451222E0,-3.038503860E0,3.662953958E0
4.291803750E0,-2.175004740E0,4.748766491E-1,-2.867901403E0,3.630566334E0
4.301773750E0,-1.004159447E0,-2.227461135E0,-4.375928140E0,5.011852591E0
4.311743750E0,-1.289980265E0,-4.500314789E0,-3.270690946E0,5.710893236E0
4.321713750E0,-2.202015368E-1,-4.463598661E0,1.583884420E0,4.741401858E0
4.331684750E0,-9.184723024E-1,-1.657749080E0,6.088891600E0,6.377015313E0
4.341654750E0,-8.797061397E-1,1.053063074E0,4.446660154E0,4.653558988E0
4.351624750E0,-3.772045396E-1,-8.182909334E-1,3.581904906E-1,9.696307255E-1
4.361594750E0,-3.484356173E-1,-2.170875582E0,5.298746824E-2,2.199298944E0
4.371565750E0,-5.922743041E-1,6.662873000E-1,1.330315236E0,1.601395093E0
4.381535750E0,-1.809300723E0,3.210205301E0,-4.284822088E-1,3.709795706E0
4.391505750E0,-1.268450232E0,1.456177137E0,-6.243136472E-1,2.029577635E0
4.401475750E0,-1.211533070E0,3.039539402E0,-1.302046287E-1,3.274685542E0
4.411445750E0,-1.945575639E0,2.836260365E0,2.180361813E0,4.072298498E0
4.421416750E0,-1.489229401E0,6.700809735E-1,1.416585640E0,2.161834313E0
4.431386750E0,-1.486198351E0,7.666255206E-2,-2.432204314E0,2.851364675E0
4.441356750E0,-1.879856078E-1,-2.454740361E0,-2.223267512E0,3.317228852E0
4.451326750E0,3.946647640E-2,-1.714793931E0,8.079746908E-1,1.896021869E0
4.461297750E0,-1.212480538E0,2.722615928E0,2.278175790E0,3.751377277E0
4.471267750E0,-8.911527953E-1,2.059671189E0,2.683960862E0,3.498577514E0
4.481237750E0,7.232777721E-1,1.151828978E0,3.980784416E-1,1.417147549E0
4.491207750E0,2.536094572E-2,2.459148869E-1,6.506921911E-1,6.960730111E-1
4.501178750E0,-1.387726415E0,-1.195451253E0,2.279805994E-1,1.845769069E0
4.511148750E0,-8.546309401E-1,-1.608742396E0,6.717100078E-1,1.941556199E0
4.521118750E0,-3.530653330E-1,-5.621513128E-1,4.409223940E0,4.458915225E0
4.531088750E0,6.124987267E-1,-3.203178994E0,4.171878440E0,5.295288479E0
4.541058750E0,6.180423622E-1,5.576971963E-1,-4.938020396E-1,9.679064927E-1
4.551029750E0,-1.739632903E0,9.032831365E-1,-2.468536574E-1,1.975646676E0
4.560999750E0,8.605148470E-1,-8.415166587E-1,-1.341109196E0,1.802001655E0
4.570969750E0,-6.373699681E-1,6.333496419E-1,-4.199053960E0,4.294115322E0
4.580939750E0,-2.418007311E-1,-5.540581816E-1,-3.755846123E0,3.804185611E0
4.590910750E0,1.676346149E0,-4.240100244E0,-5.238181365E-1,4.589441353E0
4.600880750E0,-6.814190901E-1,-3.507610476E0,1.048337354E0,3.723798388E0
4.610850750E0,8.954195085E-1,-2.566252318E-1,1.640600073E-1,9.458056311E-1
4.620820750E0,1.230546973E0,1.897244016E0,-3.537315209E0,4.198378210E0
4.630791750E0,7.612462284E-1,4.338303646E-1,-3.062504926E0,3.185379259E0
4.640761750E0,2.255245642E0,-2.895602295E0,9.691350639E-1,3.796033235E0
4.650731750E0,4.238167886E-1,-1.849111199E0,2.431885056E0,3.084298595E0
4.660701750E0,-2.079875804E-1,2.277464477E0,2.939433900E0,3.724295226E0
4.670672750E0,2.100071721E-1,3.351473446E0,9.176538384E-1,3.481173055E0
4.680642750E0,1.022798324E0,-5.232904252E-1,-1.556265097E0,1.934401803E0
4.690612750E0,5.713653187E-1,-6.571846470E-1,-2.430441964E-1,9.041130842E-1
4.700582750E0,5.495034199E-2,9.077913398E-1,-2.342511535E-1,9.391369759E-1
4.710552750E0,-3.980106870E-1,1.700753889E0,-5.890654618E-1,1.843359546E0
4.720523750E0,-1.450314134E0,3.564576682E-1,2.206612303E0,2.664509526E0
4.730493750E0,4.585900704E-1,-2.039964902E0,2.091147920E0,2.957137345E0
4.740463750E0,7.769901489E-1,3.397156280E-1,7.998324430E-1,1.165698218E0
4.750433750E0,-3.093125917E-1,1.179843865E0,2.064959410E0,2.398283385E0
4.760404750E0,4.140831114E-1,-1.466686046E0,2.744398268E0,3.139164639E0
4.770374750E0,9.326613752E-1,7.573173380E-1,-8.231289196E-1,1.456340623E0
4.780344750E0,-8.702793865E-2,3.972300106E-1,-1.628157198E-2,4.069774355E-1
4.790314750E0,-5.491723213E-1,-2.153057362E0,1.563464189E0,2.716922250E0
4.800285750E0,-1.551304904E0,-7.781807882E-1,2.108108938E0,2.730610837E0
4.810255750E0,-7.353657210E-1,-1.140598816E0,4.157019496E-1,1.419343691E0
4.820225750E0,4.665218367E-2,-1.938719779E0,-2.563671942E0,3.214533346E0
4.830195750E0,-8.272713795E-3,-4.594674817E-1,8.054761755E-1,9.273460378E-1
4.840166750E0,1.949054732E0,-4.862988925E-1,1.758146650E0,2.669528161E0
4.850136750E0,9.091674089E-1,1.419683495E-1,-1.906068342E0,2.116562523E0
4.860106750E0,7.282875203E-1,-1.593214822E0,6.568113023E-1,1.870865380E0
4.870076750E0,5.077436290E-1,-3.404718777E0,-1.290948272E-1,3.444790126E0
4.880046750E0,-1.401244118E-1,-1.959652518E0,-2.303109487E0,3.027240683E0
4.890017750E0,7.195229825E-1,2.117873788E0,1.092556922E0,2.489333914E0
4.899987750E0,4.210192613E-1,-1.344913394E0,2.221252561E0,2.630591606E0
4.909957750E0,-4.922499693E-1,-3.457640756E0,1.917668633E0,3.984349711E0
4.919927750E0,-1.272913631E-1,3.498242944E-2,2.238182589E0,2.242072293E0
4.929898750E0,5.543258014E-1,3.786814439E0,-2.336623389E-1,3.834297690E0
4.939868750E0,1.348507824E0,2.452010588E0,-2.876172289E0,4.012878806E0
4.949838750E0,1.532312709E0,1.797292004E0,-3.053469808E0,3.860300332E0
4.959808750E0,3.920930124E-1,5.736308590E-1,-2.575848768E0,2.667917947E0
4.969779750E0,-3.916495742E-1,-1.272164384E0,-2.501365766E0,2.833482363E0
4.979749750E0,-3.826583107E-1,1.361120707E-1,-7.764435804E-1,8.762525390E-1
4.989719750E0,6.502129387E-1,2.021227500E0,-1.447695751E0,2.569817204E0
4.999689750E0,1.363746984E0,-1.124182758E0,-1.478039292E0,2.303951574E0
5.009660750E0,1.017786383E0,-2.082428260E0,-2.792326725E0,3.628978523E0
5.019630750E0,1.808303042E0,-9.056772789E-1,-2.464838210E0,3.188359865E0
5.029600750E0,1.011559829E0,-1.667941654E-1,2.419860842E0,2.628079161E0
5.039570917E0,-9.518514253E-2,2.471518654E-1,4.479957708E0,4.487779554E0
5.049540917E0,7.999254137E-1,-2.710218076E0,6.074378226E0,6.699495020E0
5.059511917E0,2.050197384E0,-1.026514376E0,4.509774415E0,5.059160637E0
5.069481917E0,1.040416350E0,3.068923414E0,3.003024709E0,4.418021561E0
5.079451917E0,3.028176142E-1,-2.706167418E-1,2.598465798E0,2.630010729E0
5.089421917E0,2.924437400E-1,-3.090650791E0,1.646730879E0,3.514166791E0
5.099392917E0,-3.296644470E-1,-1.479663356E0,-1.510594250E0,2.140088149E0
5.109362917E0,-1.129405052E-1,-2.058837083E0,1.033398303E0,2.306399303E0
5.119332917E0,2.410766814E-2,-9.554467320E-1,1.859157885E0,2.090437198E0
5.129302917E0,1.275161813E0,9.193144476E-1,7.017103171E-1,1.721503433E0
5.139273917E0,9.916710370E-1,-1.374964575E0,1.946853840E0,2.581507099E0
5.149243917E0,8.177244113E-1,-6.248337570E-1,-1.685459912E-2,1.029259206E0
5.159213917E0,1.465685295E0,1.247983223E0,-4.560717112E-1,1.978306578E0
5.169183917E0,-3.059292465E-1,9.425200000E-1,-2.286042634E0,2.491571307E0
5.179154917E0,-1.248609899E0,1.008380114E0,-2.134548878E0,2.670609677E0
5.189124917E0,-8.139596084E-1,-1.758051632E0,-1.683594650E0,2.566664515E0
5.199094917E0,-2.763640431E-1,-7.109638283E-1,-1.261632671E0,1.474301071E0
5.209064917E0,3.057272252E-1,9.142449117E-1,-6.868724227E-3,9.640332329E-1
5.219034917E0,-1.120693797E-1,-9.150114816E-1,5.300746572E-1,1.063383609E0
5.229005917E0,7.484643611E-1,-7.169595632E-1,-2.186566293E-2,1.036681254E0
5.238975917E0,1.563967781E0,2.121721549E0,1.235411417E0,2.911003078E0
5.248945917E0,2.522944038E0,9.867202726E-1,2.513286484E0,3.695331172E0
5.258915917E0,2.758375452E0,-1.166593490E0,1.137429625E-1,2.997084077E0
5.268886917E0,3.651008178E0,-6.246077621E-1,-1.474406417E0,3.986711659E0
5.278856917E0,-3.259505880E-1,2.261355105E0,-9.780105525E-1,2.485251564E0
5.288826917E0,-1.559993721E0,1.991623632E0,2.331014739E0,3.440025409E0
5.298796917E0,-2.061636584E0,-1.461326196E0,4.492395905E0,5.154361321E0
5.308767917E0,-2.558652984E0,-3.894506118E0,-1.614216852E0,4.931488522E0
5.318737917E0,-1.904879603E0,-1.298309039E0,-2.586429305E0,3.464648498E0
5.328707917E0,-5.747412818E-1,1.147435088E0,6.611704016E-1,1.443634691E0
5.338677917E0,1.562314627E0,-1.937312061E0,2.459382758E0,3.498938205E0
5.348647917E0,6.812304443E-1,5.785928062E-1,3.075662915E0,3.202896645E0
5.358618917E0,-1.399675054E-1,4.133321023E0,-1.940872723E0,4.568470260E0
5.368588917E0,4.165658757E-1,2.324515267E0,-8.480392277E-2,2.363067934E0
5.378558917E0,5.358889457E-1,-1.395193894E0,1.170692680E0,1.898490010E0
5.388528917E0,4.924634292E-1,1.743513700E0,1.073703745E0,2.105991449E0
5.398499917E0,1.092676644E0,1.721411517E-1,3.413784007E0,3.588522826E0
5.408469917E0,-8.880707279E-1,-3.868453556E-1,4.019492984E-2,9.695022327E-1
5.418439917E0,-1.217564254E-1,1.631951164E0,-3.701574606E0,4.047189617E0
5.428409917E0,-2.870697834E-2,-2.582402328E-1,-1.640141652E0,1.660595299E0
5.438380917E0,3.611544808E-1,-2.736928742E0,6.009353095E-1,2.825302594E0
5.448350917E0,9.832023684E-1,-1.557476056E0,2.229008893E0,2.891521953E0
5.458320917E0,2.119457068E-1,-1.675126420E0,2.569789883E0,3.074864152E0
5.468290917E0,-8.319685210E-2,-8.051519474E-1,1.270949625E0,1.506819274E0
5.478261917E0,6.932987320E-1,-1.203877383E-1,-4.202978611E-2,7.049275439E-1
5.488231917E0,3.406790299E-1,-1.643668692E0,-2.395732892E-1,1.695613261E0
5.498201917E0,-8.634919569E-2,-2.149159316E0,2.112868572E0,3.015054817E0
5.508171917E0,3.772729520E-2,-1.285673206E0,3.298276940E0,3.540199107E0
5.518141917E0,5.751007028E-1,-7.567027956E-1,2.933767363E0,3.083882436E0
5.528112917E0,7.324462062E-1,2.520538786E-1,1.851598604E0,2.007093918E0
5.538082917E0,4.243049214E-1,1.425243613E0,-3.063601863E-1,1.518291996E0
5.548052917E0,3.480635516E-2,-3.713239217E-1,-1.632540856E0,1.674599231E0
5.558022917E0,-3.890097025E-1,-7.226869109E-1,-2.497693714E0,2.629083264E0
5.567993917E0,-2.213710165E-1,2.638789952E-1,-1.835211782E0,1.867254545E0
5.577963917E0,-5.504442369E-1,7.543393511E-1,-1.735057164E0,1.970390844E0
5.587933917E0,-1.044981491E-2,4.424938917E-2,-1.119799685E0,1.120722330E0
5.597903917E0,-1.537084987E-1,-2.029831678E-1,-1.365529507E-1,2.889207112E-1
5.607874917E0,-6.413212971E-1,-1.351437718E-2,4.912713647E-1,8.079747510E-1
5.617844917E0,5.733680997E-1,1.184750849E0,4.796207875E-1,1.400864608E0
5.627814917E0,1.916059479E-4,1.592798208E0,1.944964020E0,2.513939381E0
5.637784917E0,5.560020154E-1,3.428500280E-1,2.953791153E-1,7.168913478E-1
5.647754917E0,4.442107804E-1,-7.428288147E-1,-4.203025389E-1,9.621705096E-1
5.657725917E0,-1.033724577E0,1.783877907E0,-4.460887599E-1,2.109455397E0
5.667695917E0,-1.387319303E0,-2.148430753E-1,3.064917487E-1,1.436923654E0
5.677665917E0,-4.407782456E-1,-5.707633844E-1,5.962008190E-1,9.356878322E-1
5.687635917E0,-3.753392047E-1,-5.472482219E-1,4.018189055E-1,7.757696615E-1
5.697606917E0,-2.821407633E-1,-2.542340130E-2,7.528050417E-1,8.043414638E-1
5.707576917E0,-1.051139340E-2,-7.370143434E-1,2.341970083E0,2.455223920E0
5.717546917E0,4.797147084E-2,-1.934799805E-1,2.224278495E0,2.233192914E0
5.727516917E0,1.547094617E0,-1.322621177E0,9.659214342E-1,2.252960885E0
5.737487917E0,3.329811705E-1,-6.924021345E-1,-7.855535424E-1,1.098813698E0
5.747457917E0,-7.943984793E-1,-5.896607083E-1,-2.431810212E-1,1.018776572E0
5.757427917E0,-4.787771439E-1,-2.088765180E0,2.848506188E-1,2.161783385E0
5.767397917E0,-1.064864071E0,-1.886308846E-1,-1.441235747E0,1.801853928E0
5.777368917E0,-1.887109914E-1,-1.687362011E0,1.878102279E-1,1.708237418E0
5.787338917E0,-6.814383128E-1,-3.516249153E0,2.001231192E0,4.102839573E0
5.797308917E0,6.440342590E-1,-1.259091764E0,-1.399754430E0,1.989825284E0
5.807278917E0,-3.523962653E-1,1.223003918E0,-6.786173236E-1,1.442374148E0
5.817248917E0,-1.180096100E0,-2.878110934E0,1.712705598E0,3.550987161E0
5.827219917E0,-1.373567821E0,-3.073550608E0,1.837933077E0,3.835544276E0
5.837189917E0,-8.736729826E-1,9.336018267E-1,-3.687575787E-1,1.330751293E0
5.847159917E0,-9.941149539E-1,8.559709758E-1,-3.252741748E-1,1.351574690E0
5.857129917E0,-2.961766756E-1,-1.430671290E0,2.125240695E0,2.578989914E0
5.867100917E0,-1.817283561E-2,-1.007768202E0,9.058670211E-1,1.355183405E0
5.877070917E0,6.053340602E-1,-6.844417351E-1,6.651359832E-1,1.130175070E0
5.887040917E0,1.904409085E-1,-8.493606985E-1,1.327308598E0,1.587271070E0
5.897010917E0,5.821030359E-1,-3.018838504E-1,1.794153219E0,1.910226054E0
5.906981917E0,9.523915619E-1,1.536531329E-1,-3.509013516E-1,1.026543097E0
5.916951917E0,4.023921153E-1,-3.199567169E-1,5.053011739E-1,7.208474121E-1
5.926921917E0,-1.748518478E-2,2.108044034E-1,1.511867774E-1,2.600032112E-1
5.936891917E0,2.883570113E-1,6.291720986E-1,-8.553728056E-1,1.100304473E0
5.946861917E0,1.259977946E-1,2.361801499E-1,-1.933758416E0,1.952198279E0
5.956832917E0,5.974638907E-1,-7.648655087E-2,-3.798438996E0,3.845900688E0
5.966802917E0,-5.418176204E-2,-5.374018031E-1,-3.028180016E0,3.075973109E0
5.976772917E0,-4.273934207E-1,-1.920641065E0,-2.057185537E0,2.846671665E0
5.986742917E0,-1.709658979E-1,-3.219462613E0,-1.277252923E0,3.467786597E0
5.996713917E0,-6.543429002E-1,-1.682234588E0,6.481872439E-1,1.917869793E0
6.006683917E0,-2.795403055E-1,-1.211696573E0,1.883248998E0,2.256762760E0
6.016653917E0,-1.415909117E-1,-1.122979108E0,8.707387036E-1,1.428046202E0
6.026623917E0,-6.113236190E-1,-3.298272262E0,2.126011358E0,3.971428053E0
6.036594250E0,-8.766344512E-1,-1.423761928E0,4.605085784E-1,1.734258960E0
6.046564250E0,6.653127884E-1,1.711696368E-1,-1.809920236E0,1.935911003E0
6.056534250E0,-1.129683709E-1,-7.217691904E-1,8.952268428E-1,1.155484192E0
6.066504250E0,-1.620729407E-1,-1.046999511E0,1.320172656E0,1.692728996E0
6.076475250E0,3.424201480E-1,-1.086434011E0,-8.636279047E-2,1.142387390E0
6.086445250E0,8.995572176E-2,-2.220704385E0,-3.280013162E-1,2.246598509E0
6.096415250E0,-2.295986153E-1,-1.199247558E0,4.226724154E-1,1.292115398E0
6.106385250E0,-5.423985047E-1,-3.093995690E-2,8.908408463E-1,1.043432237E0
6.116355250E0,-4.719205161E-1,9.258776549E-1,-3.143585926E-1,1.085716229E0
6.126326250E0,3.168530148E-1,-4.339628041E-2,-7.787660944E-1,8.418762973E-1
6.136296250E0,4.380970414E-1,-1.557388347E0,-2.226356596E-1,1.633081173E0
6.146266250E0,3.447350972E-1,-3.852379560E-2,-3.677553660E-1,5.055396911E-1
6.156236250E0,4.801315783E-1,2.060074354E0,-2.033020164E0,2.933871788E0
6.166207250E0,-4.071254364E-1,5.388150752E-2,-9.517314112E-1,1.036555361E0
6.176177250E0,-9.825205100E-1,4.619361761E-1,-5.272744256E-1,1.206958948E0
6.186147250E0,-7.667524052E-1,1.089518417E0,-2.240789863E0,2.606932842E0
6.196117250E0,-9.058841973E-1,-4.174473435E-2,6.071000290E-1,1.091301630E0
6.206088250E0,-8.147495672E-1,-1.151479899E0,1.188596855E0,1.844582690E0
6.216058250E0,-2.812279947E-1,8.648470491E-2,1.992181456E-1,3.553261301E-1
6.226028250E0,-1.906478268E-1,3.610573804E-1,1.145561932E0,1.216150141E0
6.235998250E0,-7.274011555E-1,1.120511291E0,6.100002480E-1,1.468590582E0
6.245969250E0,-8.447429330E-1,-1.775790623E-1,-3.723185331E-1,9.400776757E-1
6.255939250E0,-9.514973033E-1,-1.491366266E0,-1.202807928E0,2.139221206E0
6.265909250E0,-1.840133384E-1,-2.121981457E0,7.540966916E-1,2.259497297E0
6.275879250E0,-2.251533427E-1,-8.438046741E-1,3.259671868E0,3.374634950E0
6.285849250E0,-9.276942386E-1,1.333083308E-1,-3.452254593E-1,9.987834245E-1
6.295820250E0,2.945928658E-1,-2.740589976E-1,-1.383388658E0,1.440714222E0
6.305790250E0,6.054662438E-1,-2.789330027E0,-1.071513378E0,3.048785380E0
6.315760250E0,-1.193305837E0,-1.688892520E0,7.221615386E-1,2.190400432E0
6.325730250E0,-6.311187829E-1,-3.609261104E-1,1.046830527E0,1.274532356E0
6.335701250E0,-5.361739244E-1,-2.247143447E-1,-7.935478556E-1,9.837160226E-1
6.345671250E0,3.504841527E-1,-8.210706997E-1,1.346402096E0,1.615485945E0
6.355641250E0,-6.052014015E-1,9.588071269E-1,1.292040532E0,1.718996387E0
6.365611250E0,-1.079137489E0,1.448436886E0,-3.664157689E-1,1.843032189E0
6.375582250E0,-3.073147808E-1,-2.227792087E-1,-1.917061107E0,1.954276398E0
6.385552250E0,-1.857128316E-1,8.162704280E-1,-1.922508958E0,2.096861312E0
6.395522250E0,-3.793528066E-1,1.947604915E0,-3.207814082E0,3.771888737E0
6.405492250E0,-7.870907023E-1,1.817408473E0,-4.046507705E0,4.505187003E0
6.415462250E0,-1.151546484E0,-6.095365638E-1,-3.598762429E-1,1.351704494E0
6.425433250E0,2.266577400E-1,-1.871267468E0,2.964909049E0,3.513360406E0
6.435403250E0,6.734971362E-1,6.004581767E-1,4.090434912E0,4.188771441E0
6.445373250E0,-3.256663768E-1,3.391555232E0,1.144972533E0,3.594393911E0
6.455343250E0,-7.185042148E-2,1.773057050E0,8.492601264E-1,1.967266262E0
6.465314250E0,9.051967109E-1,-1.961384171E-1,-1.249115537E0,1.555037295E0
6.475284250E0,8.823596793E-1,7.843379062E-1,-3.085859290E0,3.303978225E0
6.485254250E0,4.914538161E-2,2.140024211E0,-1.448174053E0,2.584439394E0
6.495224250E0,-8.218344922E-1,2.510192138E-1,-1.125386699E0,1.415951200E0
6.505195250E0,-3.617883189E-1,-1.644543728E0,-9.688812947E-1,1.942716095E0
6.515165250E0,-3.596744043E-1,-1.001262590E-1,-2.346841398E0,2.376353402E0
6.525135250E0,3.804010753E-2,3.902896580E-1,-2.812192640E0,2.839401436E0
6.535105250E0,-6.117436684E-1,-1.370930873E0,2.197835632E0,2.661609145E0
6.545076250E0,-1.034396751E-1,-1.811889286E0,2.258220413E0,2.897102342E0
6.555046250E0,8.423975417E-1,-1.582324676E0,4.202627778E-1,1.841196839E0
6.565016250E0,1.119031068E0,-5.177396634E-1,1.956740313E0,2.312815933E0
6.574986250E0,1.053120888E0,8.223123559E-1,1.382061340E0,1.922330555E0
6.584957250E0,1.288365410E0,5.926957056E-1,-1.209957903E0,1.864181257E0
6.594927250E0,1.037481998E0,-1.900213525E0,-1.388259389E0,2.571856230E0
6.604897250E0,8.665042962E-1,-1.961419255E0,-1.410045530E0,2.566363884E0
6.614867250E0,-5.693033347E-1,-1.704582354E0,4.491538703E-2,1.797699830E0
6.624837250E0,-1.401897910E-1,2.828005850E-3,6.910847569E-1,7.051661622E-1
6.634808250E0,2.484045948E-1,-7.790379900E-1,1.045566943E0,1.327333894E0
6.644778250E0,1.975766312E-1,-2.767130488E0,1.807077904E0,3.310827422E0
6.654748250E0,7.045473131E-1,-4.690183237E-1,1.123194578E0,1.406389407E0
6.664718250E0,8.024509723E-1,1.536065598E0,5.689808607E-2,1.733973033E0
6.674689250E0,5.468452757E-1,-9.058173198E-1,1.513130187E0,1.846376922E0
6.684659250E0,1.467383984E-1,-1.596834249E0,9.531095999E-1,1.865430161E0
6.694629250E0,-3.667408010E-1,1.352112194E0,-8.432678998E-2,1.403501766E0
6.704599250E0,-7.569401926E-1,1.368863297E0,9.109739792E-1,1.810143302E0
6.714570250E0,-4.827814268E-1,-1.080197663E0,1.388615484E0,1.824323946E0
6.724540250E0,-4.110560627E-2,1.444691452E0,-2.373125802E0,2.778587615E0
6.734510250E0,-5.414862294E-1,1.631238096E0,-3.714222718E0,4.092626964E0
6.744480250E0,9.520509616E-2,-8.694382828E-1,-7.119686723E-1,1.127779379E0
6.754451250E0,6.822999731E-1,-1.296529439E0,1.209622858E0,1.899923498E0
6.764421250E0,1.131882298E0,2.614562306E0,-1.974222903E0,3.466215466E0
6.774391250E0,1.542059433E0,2.229805284E0,-2.792976936E0,3.892389891E0
6.784361250E0,8.798080274E-1,2.616395116E-2,7.374151701E-1,1.148271680E0
6.794331250E0,3.676004148E-1,1.776521525E-1,7.474501616E-1,8.516877927E-1
6.804302250E0,2.337414407E-1,8.985615098E-1,-1.322174742E0,1.615609451E0
6.814272250E0,5.129899701E-1,-5.677257559E-1,1.322811504E0,1.528169336E0
6.824242250E0,5.457185903E-1,-2.076727809E0,2.091842569E0,2.997734562E0
6.834212250E0,3.699483642E-1,-2.051835335E0,1.624454157E0,2.643055304E0
6.844183250E0,3.580299114E-1,6.308215982E-1,5.090977710E-1,8.861725829E-1
6.854153250E0,-5.293792771E-1,1.445563272E-1,5.698059028E-1,7.910864160E-1
6.864123250E0,-2.435601035E-1,-7.875720012E-1,1.978808289E0,2.143658888E0
6.874093250E0,-1.598095932E-1,-2.004184913E0,2.089623551E0,2.899797037E0
6.884064250E0,-8.098344343E-2,-1.677501267E0,1.174416187E0,2.049346774E0
6.894034250E0,-2.661731137E-1,2.623857332E0,-3.024780445E0,4.013075151E0
6.904004250E0,-6.204899336E-1,2.732821073E0,-1.140321658E0,3.025500332E0
6.913974250E0,1.278961333E0,-1.422530797E0,1.962384045E-2,1.913039742E0
6.923944250E0,1.726089875E0,-2.018836573E0,-6.296457231E-2,2.656887634E0
6.933915250E0,4.674344957E-1,5.369881126E-1,3.193427593E-1,7.802762580E-1
6.943885250E0,8.455260944E-1,1.053808594E0,-6.321600258E-1,1.491661231E0
6.953855250E0,5.336837049E-1,-7.124425891E-1,5.793011963E-2,8.920474418E-1
6.963825250E0,-8.416778225E-2,2.561349428E-1,-9.373168552E-1,9.753215939E-1
6.973796250E0,3.559156314E-1,6.509284186E-1,-2.792814383E0,2.889670556E0
6.983766250E0,5.010788264E-1,1.190234660E0,-1.855277672E0,2.260485297E0
6.993736250E0,6.082349005E-1,1.452462694E0,-1.177518720E0,1.966252249E0
7.003706250E0,1.068759339E0,2.597859442E-1,2.667154795E-1,1.131756338E0
7.013677250E0,6.779913792E-1,2.324022639E-1,1.351420176E-1,7.293466168E-1
7.023647250E0,1.015986025E0,-3.824155051E-1,1.256671894E-1,1.092822705E0
7.033617250E0,1.453190672E0,5.926875195E-1,2.529157582E0,2.976521409E0
7.043586792E0,9.480842835E-1,9.621482259E-1,1.248159517E0,1.839156110E0
7.053556792E0,4.271949443E-1,-1.005419961E-1,9.006366867E-1,1.001873572E0
7.063527792E0,3.609742403E-1,-5.313092968E-1,-1.877657890E-1,6.692144369E-1
7.073497792E0,-1.350918923E0,8.211575308E-1,-3.032565427E0,3.419902733E0
7.083467792E0,-6.078944098E-1,-6.838619837E-1,-5.862628913E-1,1.086695451E0
7.093437792E0,-7.607637600E-1,-2.656134548E0,4.950738090E-1,2.806939670E0
7.103408792E0,3.934357524E-2,7.555698976E-1,-7.479360652E-1,1.063880700E0
7.113378792E0,8.487768540E-1,1.687079883E0,-7.900173068E-3,1.888577002E0
7.123348792E0,-9.160920471E-2,-1.200962546E0,1.366951550E0,1.821883593E0
7.133318792E0,1.623698696E-4,-9.908677027E-1,-6.110685343E-1,1.164140706E0
7.143289792E0,-4.334164914E-1,-4.914739707E-1,1.326940808E0,1.479921763E0
7.153259792E0,-2.049702344E-1,8.086222699E-1,1.908692572E0,2.083024269E0
7.163229792E0,1.611513391E0,2.118187199E0,1.501917567E0,3.056051177E0
7.173199792E0,1.803400298E0,-9.124097630E-1,1.417384370E0,2.468546670E0
7.183170792E0,2.694963422E-2,-1.292908258E0,-4.353304678E-1,1.364496487E0
7.193140792E0,2.798221961E-1,8.660661936E-1,-2.556446537E0,2.713630412E0
7.203110792E0,-3.934178818E-1,1.704311627E0,-4.710744971E-1,1.811454370E0
7.213080792E0,-5.784078514E-1,4.188895592E-1,1.051060402E0,1.270728954E0
7.223050792E0,9.102737021E-2,-1.447381756E-1,-5.521057963E-2,1.796756235E-1
7.233021792E0,-1.983581664E-1,-8.055203220E-1,5.925018704E-1,1.019444661E0
7.242991792E0,-2.727773611E-2,-8.070008370E-1,1.319219559E0,1.546717386E0
7.252961792E0,1.537723065E-1,1.744571461E0,-5.398266435E-2,1.752167125E0
7.262931792E0,3.109108185E-1,2.231479926E0,-3.710356539E-1,2.283382503E0
7.272902792E0,1.048114502E-1,-6.238768601E-1,4.290107971E-1,7.643677392E-1
7.282872792E0,3.534994888E-1,-6.858491600E-2,-6.672374725E-2,3.662210230E-1
7.292842792E0,-2.116736286E-1,1.456382375E0,-1.667545797E0,2.224087303E0
7.302812792E0,-8.477019165E-2,1.014369124E0,-1.453321357E0,1.774337531E0
7.312783792E0,2.719992794E-1,-1.276726674E0,-1.578690923E0,2.048482277E0
7.322753792E0,4.153810471E-1,-4.809843582E-1,-7.549147171E-1,9.868047412E-1
7.332723792E0,-1.915033658E-1,-5.886947483E-2,-1.117882383E0,1.135693698E0
7.342693792E0,4.350204558E-1,-1.320725802E0,1.238614522E0,1.862182960E0
7.352663792E0,6.059612472E-1,-8.160260144E-1,2.441454025E0,2.644576572E0
7.362634792E0,-4.825688805E-2,-2.103176227E-1,2.244286498E0,2.254636138E0
7.372604792E0,6.552443947E-1,-5.188807476E-1,1.290263563E0,1.537323163E0
7.382574792E0,-1.835895249E-1,7.340237850E-1,3.659871680E-1,8.405014204E-1
7.392544792E0,-2.448863251E-1,-1.162750992E-1,-4.034760064E-1,4.860885708E-1
7.402515792E0,6.899102705E-1,-5.574483973E-1,-1.913673815E0,2.109235020E0
7.412485792E0,-2.154076970E-1,-2.718766121E0,3.592272019E-1,2.750842394E0
7.422455792E0,-8.369253518E-1,-3.552294606E-1,-3.881598097E-1,9.885848735E-1
7.432425792E0,-4.949017182E-1,2.898134431E-1,8.548863173E-2,5.798515746E-1
7.442396792E0,-1.557174193E-1,-5.308874202E-1,1.934175323E0,2.011746392E0
7.452366792E0,5.829884871E-1,-1.398928218E0,3.050387156E-1,1.545938018E0
7.462336792E0,9.092692235E-1,1.938629732E-1,-6.296246731E-1,1.122844870E0
7.472306792E0,6.180939639E-1,5.491202080E-1,3.845304430E-2,8.276785533E-1
7.482276792E0,3.798843185E-1,1.297263265E-2,3.423661709E-2,3.816445081E-1
7.492247792E0,1.091047902E0,7.957899705E-1,-9.787391156E-1,1.667812177E0
7.502217792E0,1.425333733E-1,5.014718324E-2,-2.403829531E0,2.408573627E0
7.512187792E0,-4.549137798E-1,-1.247241797E0,-1.500781453E0,2.003722440E0
7.522157792E0,1.483188277E-1,1.739888719E-1,-2.219771461E0,2.231514271E0
7.532128792E0,-7.520598140E-1,-5.366717783E-1,1.524710598E0,1.782793586E0
7.542098792E0,-8.466853049E-1,-1.640534585E0,4.340558333E0,4.716850259E0
7.552068792E0,7.346101145E-1,1.555247389E0,9.446375692E-1,1.962342121E0
7.562038792E0,4.559042981E-1,-1.073602296E0,2.574512680E0,2.826408703E0
7.572009792E0,1.102275433E-1,5.535161448E-1,1.690920042E0,1.782621895E0
7.581979792E0,1.476334098E0,3.458047722E0,-6.050184202E-1,3.808372842E0
7.591949792E0,2.367812802E-1,6.396216577E-1,-1.689211485E0,1.821707079E0
7.601919792E0,5.712897800E-2,-4.343841252E0,3.614140606E-1,4.359224778E0
7.611889792E0,-4.093592190E-1,-2.083752069E0,1.002877591E0,2.348480598E0
7.621860792E0,-4.277149080E-1,1.599788262E0,9.193547934E-1,1.894063294E0
7.631830792E0,2.949961593E-1,4.304573983E-1,1.358994659E0,1.455741320E0
7.641800792E0,-5.604442913E-1,-1.076837268E0,1.342030717E0,1.809619504E0
7.651770792E0,-6.067246377E-2,-1.641375706E0,5.508503991E-1,1.732406280E0
7.661741792E0,-7.695841386E-1,1.086962891E0,-1.501973700E0,2.007404560E0
7.671711792E0,-1.601009855E-1,3.155302577E0,-2.197422234E0,3.848406313E0
7.681681792E0,-1.457060177E-1,6.304084924E-1,-1.950040573E0,2.054581064E0
7.691651792E0,-1.098478471E0,-2.087966157E0,-1.680554683E0,2.896639720E0
7.701621792E0,-1.198239644E0,8.077068883E-1,-2.490017490E0,2.878950462E0
7.711592792E0,-2.054287840E-1,1.373903305E0,-2.031249627E0,2.460850732E0
7.721562792E0,-4.364964757E-2,-6.869548684E-1,-5.295834911E-1,8.684877414E-1
7.731532792E0,-1.308882267E0,-1.191836505E0,2.075712440E0,2.728044937E0
7.741502792E0,-1.402146380E0,-1.614113648E0,2.829884561E0,3.546776560E0
7.751473792E0,-6.424609195E-1,-3.357789901E-1,2.244675922E-1,7.588736807E-1
7.761443792E0,-7.108451846E-2,8.021137342E-1,7.663056779E-1,1.111604176E0
7.771413792E0,8.199280807E-1,2.393809158E-1,5.912692773E-1,1.038838120E0
7.781383792E0,8.073679691E-1,-3.683234230E-1,1.928902888E-1,9.081364682E-1
7.791354792E0,-3.843087604E-1,7.821601108E-1,6.398689950E-1,1.081156785E0
7.801324792E0,-8.849334774E-1,9.809888318E-1,-9.704027402E-1,1.639246115E0
7.811294792E0,-6.330560385E-1,5.417495003E-1,-3.206129499E0,3.312630199E0
7.821264792E0,-5.783174023E-1,-9.655334714E-1,2.321631128E-1,1.149176058E0
7.831235792E0,-1.558018970E0,-2.328505407E0,2.642045681E0,3.850943511E0
7.841205792E0,-9.538356780E-1,-2.164025277E-2,5.202940196E-1,1.086727504E0
7.851175792E0,1.956392294E-1,2.055049549E0,-1.581291765E0,2.600382088E0
7.861145792E0,-1.221938702E0,5.051289734E-1,-8.291082823E-1,1.560676140E0
7.871115792E0,7.768542194E-2,-6.935090125E-2,1.224740249E-1,1.607621195E-1
7.881086792E0,-6.972759350E-1,1.479613070E0,-1.118468859E0,1.981519910E0
7.891056792E0,-4.897886204E-1,2.756465167E-2,1.780075462E0,1.846434769E0
7.901026792E0,-3.946560298E-1,-9.205180970E-1,1.334331104E0,1.668396369E0
7.910996792E0,-1.598711936E0,2.809143025E0,-2.668949890E-1,3.243207876E0
7.920967792E0,-4.851713300E-1,1.491628514E0,8.419546151E-1,1.780234371E0
7.930937792E0,5.619381087E-1,-9.337515154E-1,-1.071475956E0,1.528308560E0
7.940907792E0,6.352361729E-1,-5.953918567E-1,-7.743356591E-1,1.165166156E0
7.950877792E0,6.277930328E-1,8.889726609E-2,7.328976113E-1,9.691056313E-1
7.960848792E0,-1.983403141E-1,1.118078265E-1,-8.517685819E-1,8.816743091E-1
7.970818792E0,-1.008348758E0,1.254941702E0,-2.031695185E0,2.592186571E0
7.980788792E0,-8.536969936E-1,-2.521719924E-1,-2.192350359E0,2.366176107E0
7.990758792E0,-6.812419195E-1,-3.077574662E0,1.915116323E0,3.688255263E0
8.000728792E0,-3.624234727E-1,-1.049206835E0,1.512363617E0,1.876014250E0
8.010699792E0,-1.261518687E-1,5.495736596E-1,1.745394457E0,1.834215721E0
8.020669792E0,1.491889299E-1,-1.001544718E0,1.230997939E0,1.593958935E0
8.030639792E0,2.916662613E-1,-3.880098286E-1,-8.675174725E-1,9.940862137E-1
8.040609875E0,6.141270757E-2,1.107592453E0,-5.299717462E-1,1.229391156E0
8.050580875E0,-1.136616131E-1,-1.022070200E0,9.714213252E-2,1.032948716E0
8.060550875E0,-1.615793992E-1,-1.557632469E0,-1.230635996E0,1.991680638E0
8.070520875E0,-8.268722340E-1,3.772383803E-1,6.086951494E-4,9.088601968E-1
8.080490875E0,-3.833899435E-1,1.013593491E0,3.298882127E-1,1.132777934E0
8.090460875E0,-8.881902304E-2,-2.122808254E-1,8.703422624E-1,9.002486442E-1
8.100431875E0,4.332138123E-1,4.262479877E-1,5.274726462E-1,8.047291139E-1
8.110401875E0,7.174774072E-1,9.864311278E-2,-2.279665661E-1,7.592582228E-1
8.120371875E0,1.342650997E-1,-8.688453752E-1,5.202589363E-1,1.021561924E0
8.130341875E0,-1.348699485E-1,8.750516099E-1,3.685605276E-1,9.590318480E-1
8.140312875E0,-2.380973971E-1,8.242702961E-1,-2.129564711E0,2.295900205E0
8.150282875E0,-3.082707275E-1,-7.892019126E-1,-5.999798745E-1,1.038193792E0
8.160252875E0,-5.426755166E-1,1.522264123E-2,1.385268538E0,1.487849914E0
8.170222875E0,-1.284241369E0,1.362848851E0,-1.104223287E-1,1.875853400E0
8.180193875E0,-6.465394255E-1,-1.827994857E0,2.240324425E0,2.962875622E0
8.190163875E0,1.038585642E-1,-1.135132254E0,1.218531091E0,1.668571201E0
8.200133875E0,2.134982888E-1,1.016858576E0,-2.003853668E0,2.257213416E0
8.210103875E0,7.909332000E-1,2.672753504E-1,3.051691085E-1,8.888979833E-1
8.220073875E0,9.972282308E-1,-1.306535195E0,1.327743630E0,2.112913038E0
8.230044875E0,4.260929634E-1,-1.028826073E0,-6.187079215E-1,1.273906509E0
8.240014875E0,4.900681173E-1,-8.612799552E-1,1.880014318E-1,1.008620077E0
8.249984875E0,-2.591498220E-1,2.611188170E-1,-7.797262073E-3,3.679707382E-1
8.259954875E0,4.985406963E-1,-1.908928800E-1,-8.048364902E-1,9.657870849E-1
8.269925875E0,5.335253184E-1,-2.319973442E0,7.955405867E-1,2.509942402E0
8.279895875E0,3.923557717E-1,-5.338642377E-1,-9.428085601E-1,1.152320293E0
8.289865875E0,7.118183988E-1,1.073730642E0,-3.443062186E0,3.676174661E0
8.299835875E0,3.054446220E-1,-3.048180124E0,2.072756673E0,3.698786113E0
8.309806875E0,5.185461406E-1,-6.740737447E-1,3.146742253E0,3.259639907E0
8.319776875E0,4.451002150E-1,3.100316238E0,-1.135495951E0,3.331580110E0
8.329746875E0,-4.220610159E-1,-3.929287988E-1,2.956524142E0,3.012235639E0
8.339716875E0,6.721263295E-1,6.619542208E-1,8.885633558E-1,1.295948313E0
8.349686875E0,3.635570651E-1,2.766020979E0,-3.104011971E0,4.173480096E0
8.359657875E0,-4.076865864E-1,-9.236565900E-1,-6.915677369E-1,1.223771132E0
8.369627875E0,5.159249800E-1,-1.623084446E0,-7.681241620E-1,1.868313794E0
8.379597875E0,3.044557482E-1,5.460156289E-1,-1.128962272E0,1.290496874E0
8.389567875E0,7.504474443E-1,3.377699670E-1,5.633406365E-1,9.973026572E-1
8.399538875E0,7.062781620E-1,-2.342495162E0,6.385843617E-1,2.528616700E0
8.409508875E0,3.664622542E-1,5.157159421E-1,-1.489892768E0,1.618653136E0
8.419478875E0,1.071656708E0,3.058904795E0,-7.087298995E-1,3.317777074E0
8.429448875E0,7.257591111E-1,1.452176473E-1,9.847570699E-1,1.231893234E0
8.439418875E0,1.116135966E0,-1.919259368E0,1.826032823E-1,2.227702847E0
8.449389875E0,1.178062950E0,2.019314583E0,-2.326840997E-1,2.349384087E0
8.459359875E0,6.193449757E-1,2.078088748E-1,5.244554830E-1,8.377507272E-1
8.469329875E0,1.062907373E0,-1.342428328E0,7.375712907E-1,1.864375849E0
8.479299875E0,3.043336145E-1,9.771249917E-1,-3.862770063E-1,1.093893104E0
8.489270875E0,7.705368693E-1,-6.767339355E-1,1.500676203E0,1.817615183E0
8.499240875E0,1.131588841E0,-1.734518636E0,1.562576582E0,2.594358067E0
8.509210875E0,1.573876472E0,1.138993170E0,-9.683538759E-1,2.170737621E0
8.519180875E0,1.812236318E0,1.498241130E0,7.086217260E-1,2.455824038E0
8.529151875E0,1.062516998E0,-1.168519563E0,3.635512179E-1,1.620663391E0
8.539121875E0,1.157904820E0,1.527672797E-1,-2.093137727E0,2.396936995E0
8.549091875E0,5.595160093E-1,5.101201567E-1,-2.352258258E0,2.471113039E0
8.559061875E0,-8.796437938E-2,-7.500898871E-1,-5.123199377E0,5.178565866E0
8.569031875E0,-5.516941158E-1,-2.740419238E0,2.291480545E0,3.614574260E0
8.579002875E0,-7.180088460E-1,-2.323214554E0,4.707975730E0,5.298858182E0
8.588972875E0,1.835416435E0,-9.574719152E-1,4.941467330E0,5.357574575E0
8.598942875E0,2.469527969E0,1.191568117E0,3.429261003E0,4.390698577E0
8.608912875E0,4.175628260E-1,2.459490931E0,-2.299645597E0,3.392907930E0
8.618883875E0,1.834517718E0,-1.698118841E0,-1.784406495E0,3.071346512E0
8.628853875E0,-4.025139932E-1,-3.358076414E-1,-1.590240344E0,1.674409937E0
8.638823875E0,-1.918628965E-1,4.227273500E0,-3.540735830E0,5.517559499E0
8.648793875E0,4.575371696E-1,-8.704282165E-2,-1.928834476E0,1.984267913E0
8.658764875E0,4.920383367E-1,-6.960800332E-1,-3.044822946E0,3.161894354E0
8.668734875E0,1.182948152E0,5.686124861E-3,-1.290600362E0,1.750727837E0
8.678704875E0,4.162926280E-1,-2.075099359E0,2.937986130E-1,2.136739228E0
8.688674875E0,2.749580436E-1,-2.049594097E0,1.278370911E-1,2.071902558E0
8.698644875E0,1.542857432E0,4.746489000E-1,2.061714790E0,2.618466824E0
8.708615875E0,3.385958131E-1,1.407926499E0,-3.220950437E-1,1.483458583E0
8.718585875E0,7.439599586E-1,7.735576871E-1,-2.269912505E-1,1.096992681E0
8.728555875E0,1.026502170E0,-8.648336005E-1,1.283380221E0,1.857069910E0
8.738525875E0,4.663605084E-1,-7.547550881E-1,1.373881670E0,1.635450461E0
8.748496875E0,9.435642397E-1,1.974039592E0,-1.067642521E0,2.434544380E0
8.758466875E0,2.951757053E-1,1.283549497E0,-1.432588300E0,1.946005459E0
8.768436875E0,-7.023304144E-1,-3.236847262E0,3.036100069E0,4.493144983E0
8.778406875E0,-7.204281315E-1,-7.647032484E-1,5.980064392E-1,1.208883556E0
8.788376875E0,-2.605395041E-2,7.623631927E-1,7.291822904E-1,1.055264544E0
8.798347875E0,-1.718338805E-1,7.180886605E-1,7.461298603E-1,1.049708519E0
8.808317875E0,1.041301399E-2,7.804231954E-1,-1.148183239E0,1.388342013E0
8.818287875E0,-6.222086495E-1,4.095071170E-1,-6.074485230E-1,9.611625204E-1
8.828257875E0,-1.693342836E0,-1.293410534E0,5.202197599E-1,2.193387646E0
8.838228875E0,-7.875959017E-1,-2.015736087E0,6.614288485E-1,2.262959876E0
8.848198875E0,-7.454751183E-1,-3.058473855E-2,-1.241983688E-1,7.563688340E-1
8.858168875E0,-4.610543064E-1,1.085485007E0,-2.682240611E-1,1.209459764E0
8.868138875E0,8.824394938E-2,-1.311484278E0,-6.658025658E-1,1.473455484E0
8.878109875E0,-3.879006319E-1,-1.665978451E0,-4.131648427E-1,1.759731879E0
8.888079875E0,-1.346251968E-2,-9.021066767E-1,7.494434774E-1,1.172878178E0
8.898049875E0,3.889097882E-1,3.801804069E-1,-8.884218532E-1,1.041672383E0
8.908019875E0,-2.491113770E-1,-1.860069466E0,2.137216378E0,2.844223750E0
8.917989875E0,-6.269754459E-1,-2.455103765E0,8.879955912E-1,2.684989549E0
8.927960875E0,4.552704234E-1,1.544829405E0,-1.276046058E0,2.054765824E0
8.937930875E0,1.352352807E0,4.328275672E-1,-3.002141780E-1,1.451318838E0
8.947900875E0,-1.028547307E0,-5.745336691E-1,-7.488002837E-1,1.395958582E0
8.957870875E0,-1.031887382E-2,-3.606898829E-1,-2.140222431E0,2.170427545E0
8.967841875E0,-5.379631358E-1,-3.348519140E-1,-1.967421421E0,2.066948763E0
8.977811875E0,-7.004783088E-1,3.764893520E-1,1.731968665E-1,8.138865080E-1
8.987781875E0,-3.469077764E-1,4.860234886E-2,1.180206685E0,1.231095046E0
8.997751875E0,1.803991378E-1,-1.971555403E-1,3.689511216E-1,4.555645795E-1
9.007721875E0,3.725543586E-1,-1.298017555E-1,8.936112571E-1,9.768246130E-1
9.017692875E0,1.756565270E0,1.514176839E0,-1.625471572E0,2.832032994E0
9.027662875E0,1.220191261E0,1.750423355E0,-2.256035308E0,3.105244587E0
9.037633750E0,5.476066197E-1,1.278189062E0,-2.746722536E0,3.078656359E0
9.047603750E0,-4.921099650E-1,1.323188065E0,-2.948809910E0,3.269323900E0
9.057574750E0,-6.619590448E-1,-8.030030957E-1,-6.921904653E-1,1.249852547E0
9.067544750E0,-6.126733026E-1,-1.293967482E0,2.985483062E-1,1.462481285E0
9.077514750E0,-2.460492998E-1,1.920319176E-1,9.550888824E-1,1.004794152E0
9.087484750E0,3.860737059E-1,4.746617639E-1,3.158297521E-1,6.885529237E-1
9.097454750E0,3.467405460E-1,-1.842271418E0,1.510562090E0,2.407486410E0
9.107425750E0,2.773093369E-1,5.096199274E-2,5.152642447E-1,5.873626094E-1
9.117395750E0,1.088317691E0,1.250731122E0,-1.243962970E0,2.072729507E0
9.127365750E0,3.265071333E-1,-2.959862025E0,-4.247785825E-1,3.007960598E0
9.137335750E0,-6.074575862E-1,-1.221276066E0,-1.319832932E0,1.898019736E0
9.147306750E0,3.721390966E-1,7.131562418E-1,-1.229116890E0,1.468947808E0
9.157276750E0,7.178909881E-2,-3.658708084E-1,-3.472269613E-1,5.094915954E-1
9.167246750E0,-4.818830021E-1,-2.007046832E0,2.539059842E0,3.272196983E0
9.177216750E0,-1.532195034E0,-1.535870594E-1,2.287727802E0,2.757699966E0
9.187187750E0,-1.350817620E0,6.368535858E-1,-8.336235023E-1,1.710327126E0
9.197157750E0,-1.644869710E0,-1.054629250E0,1.081127370E0,2.233086566E0
9.207127750E0,4.332111628E-2,7.597582582E-1,1.273172736E0,1.483266040E0
9.217097750E0,4.122676606E-1,2.217021516E0,-1.758422053E0,2.859579889E0
9.227067750E0,-2.207055302E-1,-1.803340072E0,3.065047295E0,3.563041014E0
9.237038750E0,-4.322431380E-1,1.901976168E0,-1.066356134E0,2.222940143E0
9.247008750E0,-6.625899594E-1,5.357745815E0,-4.398725849E0,6.963709842E0
9.256978750E0,-8.672556634E-1,-1.912323108E-1,2.711622870E-1,9.285640357E-1
9.266948750E0,-2.882344391E-1,-1.204933975E0,3.567918366E-1,1.289280959E0
9.276919750E0,-5.041780700E-1,1.753088808E0,-2.852915574E0,3.386243223E0
9.286889750E0,-6.655824181E-1,2.046587459E0,-3.054995931E0,3.736913208E0
9.296859750E0,-3.984538968E-2,-1.353668430E-1,-2.604077956E0,2.607898357E0
9.306829750E0,-6.291286100E-1,-9.252020091E-1,-5.605386508E-1,1.251401272E0
9.316800750E0,-6.560024862E-1,1.090708325E0,-9.396744525E-1,1.582078376E0
9.326770750E0,-6.468005767E-1,-4.159530875E-1,2.527228001E0,2.641637622E0
9.336740750E0,-1.624651793E0,-9.157967627E-2,8.325417674E-1,1.827841918E0
9.346710750E0,-1.564138044E-1,1.961308450E0,-1.242443864E0,2.326985790E0
9.356680750E0,-5.922947693E-1,-1.685581534E0,4.913935715E-1,1.852961371E0
9.366651750E0,-8.973723324E-1,-2.486131723E0,2.573985261E-1,2.655632137E0
9.376621750E0,-4.075911306E-1,8.117733344E-1,-5.543148744E-1,1.064129436E0
9.386591750E0,-1.047477704E-1,5.575460458E-1,-2.678073301E0,2.737500008E0
9.396561750E0,2.421907587E-2,-6.863993829E-1,-3.004439151E0,3.081945049E0
9.406532750E0,1.928227352E-1,-1.562631253E0,3.897059305E0,4.203102219E0
9.416502750E0,-5.808661488E-2,-7.025382829E-1,2.893021041E0,2.977667684E0
9.426472750E0,6.620870988E-1,1.728000745E0,9.593099874E-1,2.084375578E0
9.436442750E0,6.062355182E-1,2.237155234E0,2.145280273E0,3.158260992E0
9.446413750E0,1.382382352E0,2.031945446E-1,1.930310898E0,2.382932889E0
9.456383750E0,5.294002357E-2,1.525131013E0,-1.632319831E0,2.234568254E0
9.466353750E0,-2.186753770E-1,1.377922389E0,-3.931778902E0,4.171974876E0
9.476323750E0,-1.767766635E0,-9.704635513E-1,-1.320567927E0,2.410538950E0
9.486293750E0,-1.362279625E0,4.259661520E-1,-1.897034394E0,2.374024522E0
9.496264750E0,-1.469342728E0,1.876364194E0,-9.468992722E-1,2.564435391E0
9.506234750E0,-1.518350143E0,5.373529789E-1,1.250316555E0,2.038976917E0
9.516204750E0,2.506687829E-1,1.561318553E0,-2.102844105E0,2.631065145E0
9.526174750E0,2.995409990E-1,-6.167675230E-1,7.924205124E-2,6.902219137E-1
9.536145750E0,1.700771211E-1,-1.029747301E0,5.022091663E-1,1.158239949E0
9.546115750E0,4.826837418E-1,2.563573124E0,1.789557892E-1,2.614749688E0
9.556085750E0,-7.893100861E-1,-2.387955510E0,-1.824752283E-1,2.521634220E0
9.566055750E0,-4.325463526E-1,-1.033071736E0,-1.394373822E-1,1.128617004E0
9.576026750E0,-5.985363066E-1,9.288354689E-1,1.502219868E-1,1.115144692E0
9.585996750E0,-5.563564663E-1,-1.573606185E0,9.940102887E-1,1.942633624E0
9.595966750E0,4.307058684E-1,-3.974989825E-1,2.065238907E0,2.146794059E0
9.605936750E0,6.083913135E-1,4.478072566E-1,1.101013166E-1,7.634092148E-1
9.615906750E0,1.736962553E-1,4.033564308E-1,2.284345772E0,2.326177639E0
9.625877750E0,4.096422242E-1,1.448264978E0,9.628890681E-1,1.786738245E0
9.635847750E0,5.721181843E-1,8.969450471E-1,8.347403204E-1,1.352265150E0
9.645817750E0,1.378173654E-1,4.678181827E-2,1.400234486E0,1.407777959E0
9.655787750E0,-1.211760527E-1,3.695451987E-1,-5.033359247E-1,6.360773088E-1
9.665758750E0,-1.012411623E0,1.423360517E0,6.988329023E-1,1.881302708E0
9.675728750E0,-1.172019852E0,2.166560045E-1,9.969409132E-1,1.553853771E0
9.685698750E0,-4.602296662E-1,-4.725661218E-1,-1.167427595E0,1.340901665E0
9.695668750E0,-1.782988911E-1,1.924688215E0,2.117855662E-1,1.944496939E0
9.705638750E0,-1.627528075E-1,2.307832283E0,6.203410488E-1,2.395287319E0
9.715609750E0,-8.137406301E-1,2.761499619E-1,6.508524048E-1,1.077980272E0
9.725579750E0,8.635462264E-2,6.686241397E-1,1.022823613E0,1.225023879E0
9.735549750E0,6.060100349E-1,2.193452851E0,-1.542213653E0,2.748982817E0
9.745519750E0,4.260563453E-1,-2.272121291E0,2.423796018E0,3.349454628E0
9.755490750E0,5.353611249E-1,1.687559062E-1,2.037124325E0,2.113046522E0
9.765460750E0,2.287302855E-2,6.857272455E-1,9.205388546E-1,1.148101395E0
9.775430750E0,-3.690431421E-1,2.384535474E-1,5.939993423E-1,7.388424417E-1
9.785400750E0,-7.353807410E-2,6.897179702E-1,1.026320833E-1,7.011790579E-1
9.795371750E0,-1.072865035E0,1.070095428E0,-3.096463215E-1,1.546617100E0
9.805341750E0,-7.543831321E-1,1.009061314E0,-1.413478430E0,1.893467696E0
9.815311750E0,-2.676511254E-1,-1.044390776E0,-4.383072853E-3,1.078150467E0
9.825281750E0,-7.108166977E-1,9.748223582E-1,-1.202024986E0,1.703056979E0
9.835251750E0,-5.686152636E-1,1.514537320E0,-3.740714698E0,4.075548192E0
9.845222750E0,2.773540498E-1,-1.712479018E0,-1.756580765E0,2.468822724E0
9.855192750E0,6.265116886E-1,-2.419732203E0,-2.475377816E-1,2.511751537E0
9.865162750E0,1.879255277E-1,-2.323566556E-2,2.464975035E0,2.472237412E0
9.875132750E0,-2.368414883E-1,6.820291740E-1,3.191652378E0,3.272293169E0
9.885103750E0,-1.839923067E-1,2.792822569E0,2.335826998E0,3.645517636E0
9.895073750E0,2.454865235E-1,1.638922507E0,1.018894869E-1,1.660334932E0
9.905043750E0,5.029898792E-1,-7.832716665E-1,-7.343518138E-1,1.185658428E0
9.915013750E0,2.614452013E-1,-1.237414381E0,-1.293169044E0,1.808821197E0
9.924984750E0,2.648242341E-1,-8.496483815E-1,1.740692711E-1,9.068265315E-1
9.934954750E0,-2.667010807E-1,1.225000742E0,-5.487600195E-1,1.368537118E0
9.944924750E0,1.689565754E-1,-7.627692819E-1,4.688262427E-1,9.111319046E-1
9.954894750E0,4.648670199E-1,-5.463573986E-1,3.849947119E-1,8.141429121E-1
9.964864750E0,3.586306398E-1,6.205778611E-1,7.723528683E-1,1.053689599E0
9.974835750E0,5.675125883E-1,-1.109882807E0,3.083926785E-1,1.284140346E0
9.984805750E0,9.684707471E-1,8.289773047E-2,-1.620608443E-1,9.854295200E-1
9.994775750E0,6.875918495E-1,-1.398606622E0,1.810138922E0,2.388615907E0
1.000474575E1,-2.644212696E-1,-1.624683075E0,8.186031747E-1,1.838375604E0
1.001471675E1,-2.238898142E-1,1.450986564E-2,4.663797677E-2,2.291555934E-1
1.002468675E1,-4.707136508E-3,1.597088018E-1,1.228997022E-1,2.015772688E-1
1.003465675E1,-2.626553191E-1,-3.268652022E-2,-1.938644350E-1,3.280848128E-1
1.004462625E1,-2.325121550E-2,-2.205218619E0,8.044470656E-1,2.347480534E0
1.005459625E1,-1.523698701E-1,-1.619311531E0,5.602041900E-2,1.627428861E0
1.006456725E1,-6.633627785E-2,2.028910741E-1,-6.248703021E-1,6.603243022E-1
1.007453725E1,5.602776457E-1,-1.519878459E-1,-1.702468877E0,1.798725000E0
1.008450725E1,3.226726389E-1,-1.740871928E0,3.966675085E-1,1.814413904E0
1.009447725E1,-5.379239229E-2,-2.048501545E0,-5.629196370E-1,2.125118989E0
1.010444825E1,-4.696384940E-2,1.669982332E-1,-2.317450368E-1,2.894819081E-1
1.011441825E1,2.257663502E-1,6.342369568E-1,1.145463699E0,1.328651214E0
1.012438825E1,7.688248777E-1,-1.944935369E0,2.458314471E0,3.227564921E0
1.013435825E1,3.912366511E-2,-3.912848541E-1,1.457365876E0,1.509486600E0
1.014432925E1,-6.784124153E-2,1.235813121E0,-8.380814195E-2,1.240508085E0
1.015429925E1,-4.516499371E-1,2.001200494E0,1.145804007E0,2.349820824E0
1.016426925E1,-2.339440650E-1,2.521867566E0,1.021828417E0,2.731058249E0
1.017423925E1,2.087852137E-1,-1.049089014E0,1.434072323E0,1.789061892E0
1.018420925E1,-9.222530938E-2,-6.687179875E-1,1.448041322E0,1.597658575E0
1.019418025E1,-8.028658323E-1,2.281417487E0,1.614995116E0,2.908207097E0
1.020415025E1,-2.011475623E-1,1.544658374E0,1.282465131E0,2.017708266E0
1.021412025E1,-6.086520628E-1,-1.038004447E0,9.471466094E-1,1.531338390E0
1.022409025E1,-8.429738579E-1,4.828627762E-1,-1.157801324E-1,9.783488257E-1
1.023406125E1,-6.056399792E-1,2.484395100E0,-5.028617156E-1,2.606125227E0
1.024403125E1,-1.426095113E0,1.789225770E0,6.200019103E-1,2.370543924E0
1.025400125E1,-2.899713545E-1,-2.989657974E-1,-3.582039392E-1,5.493396004E-1
1.026397125E1,-4.327652212E-2,-1.515681912E0,-7.055607086E-1,1.672417541E0
1.027394125E1,-7.030083990E-1,8.604350325E-1,-3.482772966E0,3.655718368E0
1.028391225E1,2.989693423E-1,8.019500121E-1,-2.787819107E0,2.916237621E0
1.029388225E1,-2.447351015E-1,-1.284325715E0,-5.760407889E-1,1.428709489E0
1.030385225E1,-9.246159719E-1,-3.351947071E0,-2.219461559E0,4.125102844E0
1.031382225E1,-1.086346704E-1,-3.150230410E0,1.000981924E0,3.307222088E0
1.032379325E1,-8.452305908E-1,4.698144221E-1,1.995167629E0,2.217168061E0
1.033376325E1,-2.370050093E-1,5.645665053E-1,1.864190583E0,1.962170544E0
1.034373325E1,4.739927328E-1,-7.509698930E-1,8.824629557E-1,1.251944791E0
1.035370325E1,7.377464879E-2,-9.934626970E-1,3.911021286E-1,1.070220400E0
1.036367325E1,8.522305850E-1,-3.783543214E-1,-1.234410959E0,1.547003354E0
1.037364425E1,3.825090605E-1,2.003463659E-1,-2.160842637E0,2.203563648E0
1.038361425E1,-8.162685642E-2,-1.120116896E0,-1.456854830E0,1.839497431E0
1.039358425E1,2.062147229E-1,-1.935913700E0,-2.854014266E-1,1.967673840E0
1.040355425E1,3.109037653E-2,-7.987091929E-2,1.883423830E0,1.885372986E0
1.041352525E1,-4.111228488E-2,1.761415536E0,1.021805028E0,2.036752421E0
1.042349525E1,4.322144866E-1,2.138153687E0,1.841551334E-1,2.189160493E0
1.043346525E1,2.358863639E-1,5.331862530E-1,-2.215555034E0,2.290985392E0
1.044343525E1,8.087881481E-2,-7.063205543E-1,-8.373680592E-1,1.098460457E0
1.045340625E1,9.580437181E-2,-1.688678804E-1,-3.953279114E-1,4.404304669E-1
1.046337625E1,2.286973584E-1,-4.642516735E-1,-3.313617110E-2,5.185847124E-1
1.047334625E1,2.560320318E-2,-5.891180867E-1,1.182212865E0,1.321114265E0
1.048331625E1,1.517638884E-1,8.057460245E-1,1.208759809E0,1.460602344E0
1.049328625E1,-1.839409608E-1,-1.132074745E0,3.363586830E0,3.553750677E0
1.050325725E1,6.553385349E-1,-1.866910708E-1,9.190641868E-1,1.144115873E0
1.051322725E1,1.413284449E0,-1.275664819E0,2.503905212E0,3.145510288E0
1.052319725E1,8.856944194E-1,-2.393252210E0,2.906825733E0,3.868041699E0
1.053316725E1,1.321554791E0,-3.470380962E-2,1.857487335E0,2.279905836E0
1.054313825E1,4.670989752E-1,-5.064811420E-1,2.689757792E0,2.776598923E0
1.055310825E1,-2.181771942E-1,-2.721389474E0,5.004828343E0,5.701041019E0
1.056307825E1,6.619730781E-1,-5.112586096E-1,-4.856761640E-1,9.671995959E-1
1.057304825E1,-8.299647532E-1,-4.406324306E-1,-1.817033958E-1,9.570864927E-1
1.058301825E1,2.501636565E-1,2.000081044E-1,-4.064656878E-1,5.174934320E-1
1.059298925E1,4.684872504E-1,4.121117592E-3,-4.214649653E0,4.240609507E0
1.060295925E1,-9.412863837E-1,-1.519032075E0,-4.953788583E0,5.266260516E0
1.061292925E1,-3.176739274E-2,9.720151100E-1,-5.744661922E0,5.826402246E0
1.062289925E1,-7.040033028E-1,8.014743412E-1,-4.500228835E0,4.624936901E0
1.063287025E1,-1.268380066E0,-1.732612151E0,-1.549639617E0,2.648039992E0
1.064284025E1,-2.950275880E-1,-1.918935140E0,1.894662178E0,2.712765769E0
1.065281025E1,-1.598126264E-1,-2.577233389E-1,6.926658440E-1,7.561397797E-1
1.066278025E1,5.155031400E-2,-3.309524059E-2,6.996520972E-1,7.023288311E-1
1.067275025E1,1.460508298E-1,2.955904922E-1,8.640834028E-1,9.248484800E-1
1.068272125E1,1.795763250E-1,7.093447343E-1,4.795260626E-1,8.748501890E-1
1.069269125E1,5.715349062E-2,-1.536738905E-1,3.024712032E0,3.029152532E0
1.070266125E1,3.139902729E-2,1.861354976E0,4.064832294E-1,1.905480743E0
1.071263125E1,-1.968852893E-1,1.155432032E0,2.224636930E0,2.514517144E0
1.072260125E1,2.860664012E-1,-1.452655360E0,1.371173825E0,2.017959176E0
1.073257225E1,-6.321617800E-1,-6.041088858E-1,-1.861061153E0,2.056240423E0
1.074254225E1,-6.868910607E-1,5.995638451E-1,-9.827006042E-2,9.170349712E-1
1.075251225E1,-1.606128179E-1,9.074098089E-1,-2.077913332E-1,9.446514049E-1
1.076248225E1,-3.652708109E-1,-1.008282173E-1,1.575160375E0,1.620098547E0
1.077245325E1,-3.490356512E-2,-1.233597319E0,3.726590749E0,3.925615775E0
1.078242325E1,-4.018733211E-1,1.783080347E0,-1.115106710E0,2.141107345E0
1.079239325E1,-5.660679241E-1,2.865013171E0,7.003555173E-1,3.003203492E0
1.080236325E1,-1.444901805E-1,-4.558404538E-1,1.455527512E0,1.532066666E0
1.081233325E1,5.128168926E-1,-2.131848342E0,-1.615617844E0,2.723596801E0
1.082230425E1,-2.841394147E-1,5.243192428E-1,1.182390035E0,1.324270392E0
1.083227425E1,6.843151429E-1,1.138002652E-1,1.783041755E0,1.913236947E0
1.084224425E1,-2.713005736E-1,-1.227030019E0,4.747445020E0,4.910951118E0
1.085221425E1,-9.510673137E-1,-8.946608323E-1,7.146941764E0,7.265240782E0
1.086218525E1,4.671963679E-1,-4.701477134E-1,1.711670641E0,1.835518374E0
1.087215525E1,-1.065156504E0,2.957840350E-1,1.331217461E0,1.730371782E0
1.088212525E1,7.555437313E-1,2.967122805E-1,3.519784087E-1,8.847447697E-1
1.089209525E1,9.937025790E-1,-2.410064709E0,-2.779714281E0,3.810861871E0
1.090206525E1,-8.089852358E-1,-1.165900010E0,-2.580594369E0,2.945037732E0
1.091203625E1,4.314259896E-1,5.845239294E-1,-2.449603289E0,2.555064164E0
1.092200625E1,3.604140040E-1,-2.762347466E-1,-3.153153141E0,3.185683383E0
1.093197625E1,5.064306367E-1,-6.602585283E-1,-4.200322806E0,4.281953408E0
1.094194625E1,7.453640212E-1,-8.908709595E-1,-1.075196539E0,1.582803269E0
1.095191725E1,-1.313238589E-1,-6.105007696E-1,1.963427188E0,2.060340620E0
1.096188725E1,4.358619432E-1,4.955977196E-1,6.304686018E0,6.339137048E0
1.097185725E1,8.293807626E-1,1.075664901E0,2.154811234E0,2.547182539E0
1.098182725E1,5.812567611E-1,9.048417118E-1,1.259664499E0,1.656306914E0
1.099179725E1,4.662901591E-1,2.221972938E0,1.238896358E-1,2.273749963E0
1.100176825E1,-3.580343334E-1,-3.819401264E-2,-2.028921851E0,2.060623994E0
1.101173825E1,-5.311593157E-1,-7.863043249E-2,-2.493135810E0,2.550301772E0
1.102170825E1,2.497240190E-1,-1.332519929E0,-2.553533455E0,2.891107841E0
1.103167825E1,4.458670773E-1,-1.633519095E0,3.450617373E-1,1.728076875E0
1.104164892E1,9.858386587E-1,1.732968831E0,1.549670023E0,2.525180392E0
1.105161992E1,2.025734534E0,-1.099176848E0,4.366723453E0,4.937617225E0
1.106158992E1,9.043501072E-1,-4.879527774E-1,3.128784869E0,3.293211470E0
1.107155992E1,9.995574691E-1,5.709899640E-1,4.521467092E0,4.665705663E0
1.108152992E1,1.167759644E0,-4.311163795E-1,5.013867554E0,5.166080891E0
1.109150092E1,1.077518505E-1,1.049005398E0,4.119227772E0,4.252065407E0
1.110147092E1,1.092841974E0,2.069902647E-1,1.361237651E-1,1.120570493E0
1.111144092E1,-2.963721553E-2,6.190885752E-2,1.140395333E0,1.142459008E0
1.112141092E1,-1.510280985E-1,9.357568181E-1,6.483188063E-1,1.148376064E0
1.113138092E1,1.993641250E-1,-2.435403326E-1,-6.319349080E-1,7.059742743E-1
1.114135192E1,-1.242561247E0,-2.157526097E0,1.543889465E0,2.929585635E0
1.115132192E1,6.322897609E-1,-1.119296532E0,4.921215498E-1,1.376516868E0
1.116129192E1,1.653946343E0,-2.268156879E0,2.766176223E0,3.941041109E0
1.117126192E1,1.894800319E0,-2.648959137E0,2.665615808E0,4.208653038E0
1.118123192E1,1.617033017E0,-2.967762198E0,1.440960343E0,3.674067903E0
1.119120292E1,5.922086691E-1,-2.399886169E0,2.671668845E0,3.639777349E0
1.120117292E1,-3.843368270E-1,-4.419375291E-1,-4.143284386E-1,7.174201219E-1
1.121114292E1,-1.725342856E-1,-1.950875848E0,-3.418960547E-1,1.988109042E0
1.122111292E1,-2.394188313E-1,-2.955921586E0,1.592158231E0,3.365971128E0
1.123108392E1,-3.646729331E-2,-7.701683486E-1,-1.613377191E0,1.788148515E0
1.124105392E1,5.013040904E-1,5.858603105E-1,-3.303685030E0,3.392472973E0
1.125102392E1,-5.758557245E-3,-2.501906633E-2,-1.629394469E0,1.629596714E0
1.126099392E1,6.875346199E-1,-6.012925744E-2,-6.941715020E-1,9.788735645E-1
1.127096392E1,3.644245727E-1,-1.418169066E0,-1.033425200E0,1.792198765E0
1.128093492E1,-3.687113126E-1,-9.860694775E-1,-1.237236918E0,1.624511077E0
1.129090492E1,-7.330054924E-1,-1.464228753E0,-2.479911162E0,2.971737247E0
1.130087492E1,1.755703244E-1,-1.323690048E0,-2.601260768E0,2.923959279E0
1.131084492E1,-1.656563886E-1,-4.511772993E-1,-2.777996954E0,2.819267648E0
1.132081492E1,-2.887028011E-2,-2.380959901E0,-4.949048245E0,5.492074478E0
1.133078592E1,5.770233404E-1,-2.228382656E0,1.494863486E0,2.744678859E0
1.134075592E1,-6.725615086E-1,-1.350274122E-1,3.069638529E0,3.145354047E0
1.135072592E1,-8.000187865E-2,1.366429979E-1,1.251210594E-1,2.018090408E-1
1.136069592E1,5.582752301E-1,1.974660274E-1,1.193716677E0,1.332525260E0
1.137066692E1,-1.059763325E0,-9.833774194E-1,3.485028237E-1,1.487139426E0
1.138063692E1,-8.709794627E-1,-2.177220981E0,4.615397934E0,5.176948378E0
1.139060692E1,-8.849871987E-1,-7.228629121E-1,5.714911289E0,5.828030900E0
1.140057692E1,-1.223938523E0,-5.110931334E-1,1.327584001E0,1.876624890E0
1.141054692E1,-4.820490996E-1,-3.373089141E0,3.984880391E0,5.243030938E0
1.142051792E1,-1.536234583E0,1.272908150E0,3.659240765E0,4.167775765E0
1.143048792E1,-1.578082959E0,7.914030969E-1,6.935055041E-1,1.896737877E0
1.144045792E1,-1.016738051E0,-1.885339378E0,7.508374536E-1,2.269805655E0
1.145042792E1,-7.879822565E-1,-2.167995536E0,1.528731728E0,2.767334707E0
1.146039792E1,-1.763822396E0,-6.093573466E-1,-7.789689928E-1,2.022171731E0
1.147036892E1,-8.986380353E-1,-1.778994897E-1,-2.899885088E0,3.041139929E0
1.148033892E1,-5.354838433E-1,-1.614648376E0,-1.861093898E0,2.521408896E0
1.149030892E1,-9.603151969E-1,-3.659296606E0,-6.045488888E-1,3.831205592E0
1.150027892E1,-2.785591793E-1,-4.383893802E0,-2.054271870E0,4.849345626E0
1.151024892E1,2.828294374E-1,-1.638581322E0,-2.071982501E0,2.656699593E0
1.152021992E1,-2.176797789E-1,-1.940492362E0,1.813790508E0,2.665094951E0
1.153018992E1,-1.395268592E0,-1.720668044E0,-2.461055646E0,3.311233585E0
1.154015992E1,1.076351291E0,-2.747744629E0,-4.536101503E0,5.411547791E0
1.155012992E1,-1.986047435E0,-3.263477236E0,-1.784312940E-1,3.824461506E0
1.156010092E1,-1.187833355E0,-2.625367084E0,4.179241254E0,5.076372510E0
1.157007092E1,-6.287320226E-1,-6.675883055E-1,3.624626418E0,3.738836018E0
1.158004092E1,-9.407721942E-1,4.451988137E-1,2.453006369E0,2.664675318E0
1.159001092E1,-1.759359581E-1,-4.954220107E-1,2.705150002E0,2.755763590E0
1.159998092E1,8.449106750E-1,1.377115765E-1,1.845077205E0,2.033998136E0
1.160995192E1,5.725571640E-1,7.609218541E-1,-1.269619383E0,1.587059278E0
1.161992192E1,-1.802117127E0,-2.054407525E-1,-2.081163214E0,2.760628980E0
1.162989192E1,-1.678792186E0,-1.486321288E0,-2.003373027E-2,2.242296931E0
1.163986192E1,-1.788965861E0,-1.629753488E-1,-2.481233802E0,3.063246807E0
1.164983192E1,-2.061998819E0,2.004068846E0,-2.898052570E0,4.082504105E0
1.165980292E1,-7.395002872E-1,6.444172516E-1,-6.467102373E-1,1.174890803E0
1.166977292E1,-7.952114616E-1,-5.425514460E-2,-3.722805262E-1,8.797145443E-1
1.167974292E1,-4.449771677E-1,2.536214002E0,-2.232387414E0,3.407923078E0
1.168971292E1,-8.238222532E-1,2.341668951E0,-1.251836246E0,2.780142185E0
1.169968292E1,-1.699142250E0,-8.477176309E-1,8.117332810E-1,2.065095758E0
1.170965392E1,-1.106894149E0,8.655741504E-1,-2.066623528E0,2.499073043E0
1.171962392E1,-8.603337295E-1,1.604277462E0,-3.048191527E0,3.550401651E0
1.172959392E1,-2.402993672E-2,1.173059633E-1,-1.261768911E0,1.267437933E0
1.173956392E1,1.621763085E-1,-2.045546070E-1,3.870669651E-1,4.668667666E-1
1.174953492E1,-5.255888195E-1,-2.176330450E0,-1.952812153E-1,2.247396847E0
1.175950492E1,-8.514598489E-2,-2.989335793E0,1.232621711E0,3.234615062E0
1.176947492E1,-6.802821538E-2,-9.034404266E-1,1.476780387E0,1.732545166E0
1.177944492E1,1.706478094E-1,-1.978382904E0,3.446226114E-1,2.015411704E0
1.178941492E1,4.530785946E-1,-5.143690360E0,2.247776116E0,5.631636369E0
1.179938592E1,6.307804484E-1,-3.737666253E0,3.254927437E0,4.996257160E0
1.180935592E1,5.089431853E-1,-6.666898808E-1,1.966009319E-2,8.389785946E-1
1.181932592E1,4.462918776E-1,-2.512893259E0,2.208562934E0,3.375138398E0
1.182929592E1,2.808859691E-1,-3.760246445E0,3.461213697E0,5.118432427E0
1.183926592E1,1.443817878E-1,-5.989294222E-1,-1.559265888E0,1.676565735E0
1.184923692E1,-5.353576348E-2,9.201380280E-1,-3.198743296E0,3.328885511E0
1.185920692E1,4.280219233E-1,5.168505943E-1,-2.037871599E-1,7.013319544E-1
1.186917692E1,-4.308805905E-1,-5.190158182E-1,5.381075621E-2,6.767060664E-1
1.187914692E1,-1.512036904E0,-2.203773772E0,-6.033478707E-1,2.739872824E0
1.188911692E1,-1.549022444E0,-5.213099733E-1,-1.504717798E0,2.221578329E0
1.189908792E1,-8.080374022E-1,-4.215219757E-1,-1.017649412E-2,9.114322687E-1
1.190905792E1,-4.113976314E-1,-5.206925073E-1,2.043676130E0,2.148716087E0
1.191902792E1,7.277052107E-1,2.333077052E-1,3.477552572E0,3.560527945E0
1.192899792E1,1.521405606E0,2.798115761E0,-4.886611676E-1,3.222253337E0
1.193896792E1,1.606413450E0,3.513155976E0,5.304816234E-1,3.899261447E0
1.194893892E1,1.173501244E0,1.145154966E0,4.847458720E-1,1.709813916E0
1.195890892E1,1.326874734E0,-1.291802258E0,-1.635835762E0,2.470892202E0
1.196887892E1,1.230890789E0,-8.480611548E-1,-2.659880859E0,3.051108985E0
1.197884892E1,6.704334144E-1,-6.159360489E-1,-1.977734156E0,2.177220836E0
1.198881892E1,1.577649827E0,-1.519846592E0,1.916804999E0,2.910851086E0
1.199878992E1,4.268869422E-1,-9.426638415E-1,3.124567857E0,3.291469562E0
1.200875992E1,7.819053183E-1,1.110310239E0,-3.332094312E-2,1.358409010E0
1.201872992E1,9.072384855E-1,1.305152913E0,-1.059085706E0,1.910017887E0
1.202869992E1,4.041983568E-1,1.167937472E-1,2.010752213E-1,4.663135594E-1
1.203866992E1,-3.319776056E-1,5.428987706E-1,-1.375317746E-1,6.510477668E-1
1.204864075E1,-9.696474262E-1,-9.073270708E-2,3.835855329E-1,1.046702640E0
1.205861075E1,-1.199240176E0,-2.664737848E0,5.180995595E-1,2.967731786E0
1.206858075E1,-7.882595607E-1,-2.505482790E0,2.105670065E-1,2.634983038E0
1.207855075E1,-2.866570248E-1,6.990954423E-1,2.999685949E-1,8.129500878E-1
1.208852075E1,-2.758058899E-1,-1.302838585E-1,6.758837503E-1,7.415265448E-1
1.209849175E1,2.381930722E-1,-1.684409460E0,5.961060941E-1,1.802585266E0
1.210846175E1,1.630397961E-1,-9.804964963E-1,-8.770104271E-1,1.325557484E0
1.211843175E1,6.846186134E-1,1.379127207E-1,-2.216226295E0,2.323656935E0
1.212840175E1,1.684627414E-1,4.368820265E-1,-2.331545082E0,2.378097573E0
1.213837175E1,2.232550076E-1,-4.678757778E-1,-2.009175804E0,2.074979024E0
1.214834275E1,-2.655993191E-1,-2.354143693E0,-8.841340899E-2,2.370728255E0
1.215831275E1,-6.548855949E-1,-6.215841669E-1,2.890734780E-1,9.480535294E-1
1.216828275E1,-1.882915268E-1,7.543373045E-1,7.215610296E-1,1.060720881E0
1.217825275E1,-3.910522080E-1,-8.075224087E-1,2.014240662E0,2.205035082E0
1.218822275E1,-1.949198757E-1,3.922133920E-1,2.464918901E0,2.503527570E0
1.219819375E1,1.077714277E0,5.015826371E-1,1.163964874E0,1.663690907E0
1.220816375E1,8.027953003E-2,2.704392788E-1,1.418341559E0,1.446124125E0
1.221813375E1,6.563101228E-1,1.928503816E0,1.434000403E-1,2.042163930E0
1.222810375E1,-2.754404023E-4,1.403809474E0,-7.545907813E-1,1.593765467E0
1.223807375E1,-1.528262928E0,-9.493366840E-1,5.486348891E-1,1.880911470E0
1.224804475E1,-1.195567467E0,3.615327591E-1,7.248079884E-1,1.444103225E0
1.225801475E1,-1.174033414E0,2.887173241E0,-6.593805689E-1,3.185734847E0
1.226798475E1,-4.525467538E-1,-1.017639180E0,-6.592045677E-1,1.294194238E0
1.227795475E1,1.785387000E-2,-7.167025781E-1,9.077363759E-1,1.156705094E0
1.228792475E1,7.480723784E-1,1.423449102E-1,5.929228699E-1,9.651071891E-1
1.229789575E1,1.057246537E0,-3.975530693E-1,1.068068783E0,1.554538391E0
1.230786575E1,-1.370885557E-1,-2.772348836E0,1.954054102E0,3.394560174E0
1.231783575E1,4.593901888E-1,-1.467767781E0,3.321089852E-1,1.573428734E0
1.232780575E1,2.481824737E-1,-1.950891343E-1,1.401393405E0,1.436508888E0
1.233777575E1,6.216397885E-2,-1.227669704E0,1.254634139E0,1.756457823E0
1.234774675E1,-1.218862701E-1,-1.133459365E0,6.452361542E-1,1.309929804E0
1.235771675E1,-1.673933953E-1,-4.516439071E-1,1.140686524E-1,4.949893182E-1
1.236768675E1,4.154980280E-2,-6.663896263E-1,7.452212030E-1,1.000577914E0
1.237765675E1,-1.690716741E-1,-1.135755275E0,1.108829139E0,1.596254157E0
1.238762675E1,5.372586560E-1,-7.170273909E-1,-2.982056594E-1,9.442996124E-1
1.239759775E1,2.260046242E-1,8.365757614E-2,-2.184118064E0,2.197373068E0
1.240756775E1,3.328920005E-1,4.701132149E-2,-2.059157803E0,2.086422298E0
1.241753775E1,2.886339135E-2,2.570953479E-1,-7.931958532E-1,8.343205468E-1
1.242750775E1,-4.983543163E-1,1.407769793E-1,-1.414484736E0,1.506300850E0
1.243747775E1,-5.951446291E-1,-7.221165150E-1,-1.230312061E0,1.545741621E0
1.244744875E1,-7.592764476E-1,-9.096454918E-1,1.965647961E0,2.295153056E0
1.245741875E1,-7.520715085E-1,9.536282480E-1,6.199200493E-1,1.363568574E0
1.246738875E1,-1.661103335E-1,1.290536920E0,-1.169612700E-1,1.306429533E0
1.247735875E1,4.293290319E-1,-1.002765325E0,-4.606646991E-1,1.184091922E0
1.248732975E1,-7.897693849E-1,-5.417234802E-1,-1.324786693E0,1.634704803E0
1.249729975E1,4.856147317E-2,1.214990017E0,-1.190777282E0,1.701913480E0
1.250726975E1,-6.528628238E-2,1.729796425E0,-2.669703012E0,3.181787570E0
1.251723975E1,-1.551592295E-1,-9.543012625E-1,-1.302891794E0,1.622434071E0
1.252720975E1,3.891471852E-1,-1.996694045E0,1.025362474E0,2.278067348E0
1.253717975E1,-1.871300505E-1,-5.210442173E-1,8.594565010E-1,1.022335664E0
1.254715075E1,2.811192730E-1,2.618409482E-1,1.490794408E0,1.539498846E0
1.255712075E1,-1.305410081E-1,-5.128893980E-1,2.445334822E-1,5.830035277E-1
1.256709075E1,2.301084560E-1,-9.157675266E-1,-3.721168041E-3,9.442425067E-1
1.257706075E1,4.628972756E-1,-5.079274508E-1,1.179072325E0,1.364725515E0
1.258703075E1,-1.415276705E-1,-2.167848479E0,1.095115664E0,2.432873903E0
1.259700175E1,6.917028075E-1,-1.310142049E0,7.019155544E-1,1.639393305E0
1.260697175E1,6.799553128E-1,-1.343832244E0,1.379490319E0,2.042355961E0
1.261694175E1,7.467554027E-2,3.144085863E-1,3.734028407E0,3.747985771E0
1.262691175E1,1.252605155E0,-1.630139405E-1,1.821506494E0,2.216636895E0
1.263688175E1,1.771377437E-1,-2.430431731E0,-2.075773251E-1,2.445703278E0
1.264685275E1,3.923533597E-1,-5.083724239E-1,2.426883933E0,2.510408195E0
1.265682275E1,-3.011738522E-1,9.814148015E-1,5.666174161E-1,1.172576649E0
1.266679275E1,5.783206914E-2,2.331937138E0,-1.691724619E0,2.881528682E0
1.267676275E1,1.043615874E0,-2.816285107E-1,-2.623932177E-1,1.112339386E0
1.268673275E1,5.771295404E-1,-2.662632266E0,-1.286281024E0,3.012840514E0
1.269670375E1,9.424004245E-1,2.582712230E-1,-2.130461674E0,2.343862097E0
1.270667375E1,6.220088940E-1,1.096496192E0,-1.395011169E0,1.880227413E0
1.271664375E1,5.779467985E-1,-3.698784900E-1,3.997127384E-1,7.941050764E-1
1.272661375E1,7.052472979E-1,-1.599974788E0,-5.095626247E-1,1.821248787E0
1.273658375E1,9.835369753E-1,-3.201426584E-1,-7.692164218E-1,1.289003571E0
1.274655475E1,9.449653056E-1,4.637765872E-1,8.304660058E-1,1.340791534E0
1.275652475E1,8.988416646E-1,-7.058469298E-1,3.219371688E-1,1.187341470E0
1.276649475E1,2.710358410E-1,-9.497682086E-1,-3.328104756E0,3.471570444E0
1.277646475E1,4.385757091E-1,-1.759243587E0,3.526806593E-2,1.813430585E0
1.278643475E1,3.743193406E-1,-5.886558643E-1,-8.388661158E-1,1.091021107E0
1.279640575E1,6.031570322E-1,-5.323948324E-2,-2.712412829E0,2.779175454E0
1.280637575E1,7.497780843E-1,-2.391308888E0,4.991475642E-1,2.555322615E0
1.281634575E1,8.980276591E-1,-1.382295229E0,9.631644720E-1,1.909156771E0
1.282631575E1,1.288650024E0,9.335611886E-1,1.780397644E0,2.387880053E0
1.283628575E1,1.511786205E0,-3.567906672E-1,5.006220565E0,5.241663997E0
1.284625675E1,1.132288753E0,-2.759967941E0,3.874789599E0,4.890142666E0
1.285622675E1,8.887316094E-1,-5.582371867E-1,4.790898603E-1,1.153689614E0
1.286619675E1,6.247763081E-1,2.564725902E0,7.306025791E-1,2.738967783E0
1.287616675E1,8.239275031E-3,8.372435135E-1,8.810637170E-1,1.215449653E0
1.288613675E1,-1.510946472E-1,-1.584399560E-1,-1.571150354E0,1.586331065E0
1.289610775E1,-2.979050760E-1,-2.381012526E-1,-1.333539975E0,1.386999822E0
1.290607775E1,-8.589340523E-2,1.110093015E0,-9.901394320E-1,1.489986669E0
1.291604775E1,2.881968342E-1,1.180620376E0,-5.132370150E-1,1.319217238E0
1.292601775E1,4.992802594E-1,-9.597830272E-1,3.208819218E0,3.386293698E0
1.293598775E1,2.716778287E-1,1.011017500E0,-1.274991220E-1,1.054619009E0
1.294595875E1,1.030590908E0,1.048900441E0,-1.244568157E0,1.926462990E0
1.295592875E1,8.983457476E-1,7.405448923E-1,2.869977164E-1,1.199082778E0
1.296589875E1,9.903139713E-1,8.706796467E-3,-5.055502653E-2,9.916417603E-1
1.297586875E1,-3.056102078E-2,-5.058712775E-1,-1.936919421E0,2.002123015E0
1.298583875E1,5.507112354E-1,-8.401025096E-1,-1.464349791E0,1.775774592E0
1.299580975E1,2.540937529E-1,6.121084616E-1,-2.072545003E0,2.175932718E0
1.300577975E1,3.988582775E-1,-3.822307330E-1,-8.283522373E-1,9.956684628E-1
1.301574975E1,3.083843462E-2,-1.760159846E0,-1.345546063E0,2.215763503E0
1.302571975E1,-1.279468726E-1,-2.500498039E0,1.388924217E0,2.863209969E0
1.303568975E1,2.301247003E-1,-1.002377070E0,2.902820390E0,3.079623903E0
1.304565962E1,1.374889072E-1,-2.552584451E-1,7.767113829E-1,8.290600978E-1
1.305563062E1,4.254209356E-1,-2.131681404E0,2.980070879E0,3.688613700E0
1.306560062E1,3.885622078E-1,-2.085032317E-1,3.658285915E0,3.684767295E0
1.307557062E1,3.541576294E-1,1.046760652E0,2.110090560E-1,1.125015694E0
1.308554062E1,1.242064087E0,4.259108958E-1,-8.849410057E-2,1.316037421E0
1.309551062E1,9.634648727E-1,-1.291861022E0,1.700013632E-1,1.620515327E0
1.310548162E1,-1.093878101E-1,-1.607490215E-1,-1.724520482E0,1.735447157E0
1.311545162E1,6.421066513E-1,-5.087478152E-1,-2.007884154E0,2.168576507E0
1.312542162E1,-1.798965697E-1,-2.870140886E-1,8.222705483E-2,3.485701528E-1
1.313539162E1,-2.318429777E-1,1.955285525E-1,1.073283915E0,1.115312038E0
1.314536162E1,-3.359694997E-1,-1.045131326E-1,-4.111762047E-1,5.411694475E-1
1.315533262E1,-1.067041208E-1,-7.976008531E-1,3.206823564E-1,8.662505781E-1
1.316530262E1,5.714278108E-1,-1.469660232E0,3.748732985E0,4.066869796E0
1.317527262E1,3.934916664E-2,1.599008536E0,-1.048319228E0,1.912419896E0
1.318524262E1,7.323725313E-2,1.819835359E0,-3.591720042E0,4.027110291E0
1.319521262E1,-5.240716863E-2,-2.214094985E-1,-1.680980945E-1,2.828880462E-1
1.320518362E1,-6.355200552E-1,9.536507598E-1,-1.542884914E0,1.921933758E0
1.321515363E1,-5.906712534E-1,1.882285962E0,-2.774872786E0,3.404675014E0
1.322512362E1,-3.423377023E-1,1.267781603E-1,-5.513760638E-1,6.612740491E-1
1.323509362E1,-9.480092199E-1,-1.869855366E0,8.975107652E-1,2.280483752E0
1.324506362E1,-1.201107996E-1,-5.824931914E-1,2.174702293E-1,6.332599962E-1
1.325503462E1,-2.963969877E-1,2.919184408E-1,6.876910329E-2,4.216595071E-1
1.326500462E1,-7.743348552E-1,-4.684955826E-1,9.203084743E-1,1.290755696E0
1.327497462E1,-1.814815671E-1,-1.284925640E0,1.340280645E0,1.865562024E0
1.328494462E1,-8.858272974E-1,-4.235451123E-1,7.482705259E-1,1.234499592E0
1.329491462E1,-4.206921462E-1,1.561051628E-1,7.675037724E-1,8.890515982E-1
1.330488562E1,1.434934313E-1,4.125505927E-1,1.123387536E0,1.205316520E0
1.331485562E1,1.785992918E-1,-1.475495169E0,2.852236127E0,3.216245424E0
1.332482562E1,3.062551375E-1,-1.141347844E0,2.298434638E0,2.584428157E0
1.333479562E1,2.431881658E-1,1.396888125E-1,9.807844716E-1,1.020093931E0
1.334476562E1,-4.113478205E-1,-8.148770365E-1,1.156825424E0,1.473593117E0
1.335473662E1,-4.718350006E-1,-6.005754134E-1,1.835281949E0,1.987857874E0
1.336470662E1,-2.474158306E-1,-3.457812372E-1,5.457826173E-1,6.918510841E-1
1.337467662E1,-4.298992085E-1,-2.632474959E-2,2.360181820E-1,4.911322675E-1
1.338464662E1,2.105832690E-2,6.822034210E-2,-1.202631927E-1,1.398595857E-1
1.339461662E1,-3.512749156E-1,-1.394002524E-1,-2.548431759E0,2.576301793E0
1.340458662E1,6.148931067E-2,-2.443376005E-2,-3.169603112E0,3.170293651E0
1.341455762E1,-2.062418576E-1,-9.586279097E-1,-9.230841476E-1,1.346695035E0
1.342452762E1,-8.083078359E-1,-8.329671523E-1,-1.873606355E0,2.203995600E0
1.343449762E1,-1.026854684E0,-2.403059453E-1,-8.653920096E-1,1.364214360E0
1.344446762E1,-5.378631119E-1,-2.163244674E-1,1.720318088E0,1.815375258E0
1.345443762E1,-1.470944281E0,-8.013582739E-1,1.327586340E0,2.137366990E0
1.346440862E1,-3.741618678E-1,-7.667243385E-1,1.808999884E-1,8.721170337E-1
1.347437862E1,1.659466663E-1,1.208305480E0,-5.562573195E-2,1.220915497E0
1.348434862E1,-2.702400349E0,1.155312164E0,-1.029728006E0,3.114169811E0
1.349431862E1,-3.507308687E-1,1.670382866E-1,-1.453506714E-1,4.147779516E-1
1.350428862E1,1.040571667E0,1.561075017E-1,-1.113962994E0,1.532342161E0
1.351425962E1,-1.581335802E-1,1.539399681E0,2.290465468E-1,1.564359270E0
1.352422962E1,-5.345318801E-1,2.114486789E0,-2.209003229E0,3.104267060E0
1.353419962E1,-1.559996790E0,1.963522790E0,-6.746388781E-1,2.596950009E0
1.354416962E1,-5.763045349E-1,-1.943456608E-1,4.625230027E0,4.665045547E0
1.355413962E1,-5.993000991E-1,-1.312461348E0,2.294050396E0,2.710052143E0
1.356411062E1,2.704689534E-1,-2.585929953E0,1.021636044E0,2.793551034E0
1.357408062E1,1.375764035E0,3.488624275E-1,1.936470355E0,2.400905893E0
1.358405062E1,-2.183479110E0,1.906898354E0,-9.135145944E-1,3.039465622E0
1.359402062E1,-1.228610521E0,-1.391322453E0,-2.884325062E0,3.429955254E0
1.360399062E1,-2.786490254E-1,-4.228553455E0,-1.741270416E0,4.581520737E0
1.361396162E1,7.019341924E-1,-3.384215515E0,1.369175246E0,3.717561986E0
1.362393162E1,-1.219962617E-2,-1.797437015E-1,1.458538243E0,1.469622549E0
1.363390162E1,6.723488983E-2,-7.303464711E-2,3.484811890E-1,3.623447656E-1
1.364387162E1,6.396697511E-1,-1.630599873E0,1.199723521E0,2.123056726E0
1.365384162E1,-2.537176307E-2,-7.086883843E-1,-1.443987447E-1,7.236946524E-1
1.366381162E1,-1.191742310E-1,2.085218551E0,-1.986949952E0,2.882760659E0
1.367378262E1,-9.348866062E-1,1.264948335E0,-2.276156747E0,2.766766487E0
1.368375262E1,-4.462404951E-1,-1.070293356E0,7.306031638E-1,1.370561721E0
1.369372262E1,-1.096511632E-1,2.760163531E-1,9.426056617E-1,9.882883376E-1
1.370369262E1,6.988108291E-1,2.877618598E0,-3.242222607E-1,2.978950393E0
1.371366262E1,7.016432203E-1,2.652702817E0,6.198750257E-1,2.813073140E0
1.372363362E1,1.251471088E0,2.578239110E-1,-1.020195875E0,1.635069624E0
1.373360362E1,1.427955844E0,-4.386470085E-1,-2.584701453E0,2.985322544E0
1.374357362E1,1.389688741E0,7.736804786E-1,-2.656972454E0,3.096662542E0
1.375354362E1,1.570990579E0,5.474104822E-2,-4.484972280E-1,1.634673590E0
1.376351362E1,1.878921327E0,-1.406061529E0,4.538880100E0,5.109675816E0
1.377348462E1,1.321560638E0,-5.493368474E-1,4.814119651E0,5.022354179E0
1.378345462E1,1.074779779E0,4.799277663E-1,1.889469851E0,2.226112879E0
1.379342462E1,2.511710587E-1,-5.948144442E-1,1.084490688E0,1.262145466E0
1.380339462E1,-6.792618330E-1,1.905256748E-1,-1.739751309E0,1.877346875E0
1.381336462E1,-8.718673624E-1,2.294715517E0,-5.222213788E0,5.770388969E0
1.382333562E1,-5.784911012E-1,1.174453610E0,-2.873139338E0,3.157360115E0
1.383330562E1,-5.268536454E-1,-1.306052507E0,4.477569705E-1,1.477780166E0
1.384327562E1,1.829343809E-1,-5.046728906E-1,1.294208094E0,1.401118948E0
1.385324562E1,2.940797909E-1,-9.554291904E-2,7.134082568E-1,7.775363102E-1
1.386321562E1,8.306311896E-1,-8.165838388E-1,5.056707180E-1,1.269826844E0
1.387318662E1,1.746284988E0,7.509798333E-1,1.021216214E-2,1.900943518E0
1.388315662E1,1.084932153E0,1.295017934E0,-6.455179900E-1,1.808547124E0
1.389312662E1,1.339500773E0,-9.549602437E-1,-5.612210208E-1,1.738154315E0
1.390309662E1,9.492671022E-1,-2.335380563E0,-3.080020845E-1,2.539680234E0
1.391306662E1,-1.433485117E-1,2.242712427E0,-3.258354490E0,3.958179103E0
1.392303662E1,-2.719792892E-1,3.817418473E0,-1.991790862E0,4.314381459E0
1.393300762E1,1.214616160E-1,5.266859034E-1,3.048138317E0,3.095690256E0
1.394297762E1,8.688808970E-1,-2.350042456E0,2.705627135E0,3.687556339E0
1.395294762E1,1.104181626E0,-2.458094908E0,2.530506535E0,3.696608035E0
1.396291762E1,1.001356000E0,4.359511498E-1,2.168463314E-1,1.113458385E0
1.397288762E1,9.875862452E-1,3.313296683E0,-2.174785908E0,4.084477353E0
1.398285862E1,9.391566085E-1,1.047756141E0,-2.929256237E0,3.249669239E0
1.399282862E1,-5.803291734E-1,-2.058338316E0,-1.705252737E0,2.735219455E0
1.400279862E1,-1.316057678E0,-1.033166461E0,-3.673600942E-1,1.713007351E0
1.401276862E1,-8.933265708E-1,2.070394690E0,3.433572739E-1,2.280890342E0
1.402273862E1,1.419356051E-1,9.552982128E-1,1.271604513E0,1.596783776E0
1.403270962E1,5.220822078E-1,-1.661197475E0,1.389203714E0,2.227562309E0
1.404267950E1,5.340985283E-1,-1.744376457E-1,-4.546794891E-2,5.636994452E-1
1.405264950E1,3.198840287E-1,1.439907845E0,-1.273572686E0,1.948755444E0
1.406261950E1,6.850186361E-1,2.254619405E0,-1.767134405E0,2.945390161E0
1.407258950E1,-4.067147791E-2,2.503090695E-1,-1.912374564E0,1.929115153E0
1.408255950E1,-7.304371760E-1,-1.813690813E0,9.445100999E-1,2.171430902E0
1.409253050E1,1.114439104E-2,-3.463101178E-2,1.431158071E0,1.431620386E0
1.410250050E1,9.013107245E-1,1.263209373E0,4.741290826E-1,1.622608187E0
1.411247050E1,9.887858746E-1,-2.039058584E-1,-6.219858706E-1,1.185808386E0
1.412244050E1,9.741386725E-1,9.858814895E-2,-2.555189971E0,2.736359180E0
1.413241050E1,8.329428133E-2,8.727539465E-1,-5.610233849E-1,1.040857640E0
1.414238150E1,-3.949406064E-1,3.896786240E-1,1.383495077E0,1.490599256E0
1.415235150E1,-4.901684336E-2,7.379671472E-1,-5.597826058E-1,9.275530858E-1
1.416232150E1,2.905830098E-1,-7.626345035E-1,5.583974004E-1,9.888667900E-1
1.417229150E1,3.521905895E-1,-2.838823199E-1,-1.313288729E0,1.389012119E0
1.418226150E1,1.461774531E0,4.484986898E-1,-7.659285325E-1,1.710141038E0
1.419223250E1,9.911328008E-1,-5.854524672E-2,5.823984665E-1,1.151068959E0
1.420220250E1,6.775699411E-1,-1.510277331E-1,1.097732293E0,1.298817381E0
1.421217250E1,2.065983550E-1,-2.926794559E-2,9.142934436E-1,9.378016815E-1
1.422214250E1,6.344603205E-1,5.656084791E-1,1.159140337E-1,8.578396779E-1
1.423211250E1,9.724358171E-2,1.299950060E0,-7.882105172E-1,1.523352321E0
1.424208350E1,1.513149776E-1,-1.055612460E-1,5.764875162E-1,6.052910501E-1
1.425205350E1,1.612937262E-1,7.066532609E-1,-3.302063012E-1,7.964990261E-1
1.426202350E1,-3.841296894E-1,6.637066314E-1,-7.652052319E-1,1.083328739E0
1.427199350E1,4.818209486E-1,1.135143363E-1,7.602450389E-1,9.071986828E-1
1.428196350E1,1.918638832E-1,2.027274690E0,-1.593746334E-1,2.042560818E0
1.429193450E1,-5.955769577E-1,1.943041456E-1,-8.907589853E-2,6.327720989E-1
1.430190450E1,1.082776431E-1,-7.026099113E-1,2.699092287E-1,7.604181265E-1
1.431187450E1,-1.493861273E-2,7.461532491E-1,-5.813944995E-2,7.485639779E-1
1.432184450E1,-5.975401969E-1,7.075136787E-1,3.973615730E-1,1.007733155E0
1.433181450E1,1.906993371E-1,-1.131238008E0,-5.214576155E-1,1.260152258E0
1.434178450E1,-6.361786710E-1,-3.576677495E-1,-1.859820374E0,1.997894228E0
1.435175550E1,-7.646911155E-1,5.632371408E-1,-1.735323213E0,1.978215163E0
1.436172550E1,-9.591626376E-1,-9.381588542E-1,-1.819931839E0,2.261036687E0
1.437169550E1,-2.682892210E-1,-7.796694893E-1,-2.243057998E0,2.389806017E0
1.438166550E1,-4.986792022E-1,-4.083546308E-1,2.499035650E-1,6.912931672E-1
1.439163550E1,-4.114919543E-2,-1.333580321E0,1.363516311E0,1.907696637E0
1.440160650E1,1.304427419E0,-6.003535116E-1,9.491171211E-1,1.721272361E0
1.441157650E1,2.885459130E-1,-4.249896669E-1,2.576513012E0,2.627221776E0
1.442154650E1,3.476076881E-1,-6.405390859E-1,1.788463293E0,1.931248916E0
1.443151650E1,-3.934571313E-2,-2.982404503E-1,1.188990372E-1,3.234693686E-1
1.444148650E1,-3.852765111E-1,6.495613396E-1,1.521118653E0,1.698284394E0
1.445145750E1,-7.739646533E-1,8.774659252E-1,7.599801600E-1,1.395183708E0
1.446142750E1,-8.361022101E-1,3.739601389E-1,-4.940721810E-2,9.172535987E-1
1.447139750E1,-1.617985674E0,2.726474798E-1,-1.396519750E0,2.154641897E0
1.448136750E1,-1.363268097E0,-7.187371168E-1,-8.138476342E-1,1.742822687E0
1.449133750E1,3.936457040E-1,-1.214142171E-1,-1.133402063E0,1.205943029E0
1.450130850E1,-6.518873620E-1,6.160024148E-1,-1.122911573E0,1.437131347E0
1.451127850E1,-4.905858517E-1,9.651534024E-1,-2.292992635E0,2.535746594E0
1.452124850E1,5.493318772E-1,-4.351983207E-1,-9.455193293E-1,1.176932407E0
1.453121850E1,-5.498312294E-1,-9.425354952E-1,-4.499982083E-1,1.180332973E0
1.454118850E1,4.583094406E-1,2.275963789E0,-2.006640451E0,3.068658438E0
1.455115850E1,4.977785483E-1,2.247244312E0,-3.351063264E0,4.065404713E0
1.456112950E1,-6.665950828E-1,-1.367257652E0,-1.810875086E0,2.364954771E0
1.457109950E1,-1.459054698E0,-1.125935168E0,-3.458768392E-1,1.875153701E0
1.458106950E1,-2.999901200E-1,2.197941467E0,-4.207418987E0,4.756397302E0
1.459103950E1,-1.020490574E0,3.253604212E-1,-3.395992684E0,3.560902516E0
1.460100950E1,-1.609924484E-1,-1.286395922E0,-6.954502881E-1,1.471184604E0
1.461098050E1,4.977995982E-1,-1.928204731E0,1.340870630E0,2.400773202E0
1.462095050E1,4.568603909E-1,-4.234489256E-1,-1.087421898E0,1.253202614E0
1.463092050E1,1.427387385E-1,8.412324840E-1,-3.001176989E0,3.120113741E0
1.464089050E1,-6.486769482E-1,-2.334678020E0,1.971550140E0,3.123861904E0
1.465086050E1,9.065322150E-2,-3.760784974E0,4.652721881E0,5.983271891E0
1.466083050E1,3.335773672E-1,-5.583193401E-1,3.851986043E0,3.906506217E0
1.467080150E1,2.386390685E-1,1.743103226E0,4.314699606E0,4.659612661E0
1.468077150E1,-9.932365559E-1,2.114424808E0,2.106944758E-1,2.345570994E0
1.469074150E1,2.966379661E-1,5.959637144E-1,-4.781341329E0,4.827462246E0
1.470071150E1,6.351077534E-1,-5.930307510E-1,-3.882503246E0,3.978552348E0
1.471068250E1,-2.772700692E-1,2.292082223E-1,-1.008609617E0,1.070844741E0
1.472065250E1,-7.207163993E-1,1.154021976E0,1.409736212E0,1.959223070E0
1.473062250E1,-1.155135944E0,8.617284366E-1,1.576638551E0,2.136048704E0
1.474059250E1,1.801153652E-1,2.698022246E-1,-2.635228997E-1,4.179462931E-1
1.475056250E1,1.840030692E-1,-1.141671780E-1,-1.862220656E0,1.874768531E0
1.476053250E1,-9.418711053E-1,1.611794643E0,-9.494305319E-1,2.094378543E0
1.477050350E1,-5.942128753E-1,1.623113975E0,-1.246703560E0,2.131163458E0
1.478047350E1,6.280389265E-3,-4.204539818E-1,-3.511078168E0,3.536168957E0
1.479044350E1,-6.296952783E-1,-5.153075141E-1,-6.474259365E-1,1.039816484E0
1.480041350E1,-8.174357781E-1,1.196834412E-1,3.312716639E0,3.414178804E0
1.481038350E1,-7.952148237E-1,9.829388782E-1,1.270306431E0,1.792265015E0
1.482035450E1,2.414192003E-2,-8.344824582E-1,1.755755138E0,1.944124459E0
1.483032450E1,-1.610413457E-1,1.252149072E-1,2.625553025E0,2.633465735E0
1.484029450E1,-2.026770660E-1,2.206521378E0,5.020776039E-1,2.271980745E0
1.485026450E1,-1.415135092E0,2.443445587E0,1.941290799E0,3.426608182E0
1.486023450E1,-1.574460901E0,-3.840582803E-1,6.303175682E0,6.508183431E0
1.487020550E1,-1.484358524E0,5.159059766E-1,1.821330492E0,2.405561051E0
1.488017550E1,-1.100695370E0,3.159814581E0,-2.246986742E0,4.030497228E0
1.489014550E1,9.259096684E-1,3.446900883E0,-4.137213807E0,5.463970397E0
1.490011550E1,7.205018064E-1,-3.161449170E-1,-8.972862321E-1,1.193395594E0
1.491008550E1,1.168222378E0,1.121725173E0,-2.429415777E0,2.919772578E0
1.492005550E1,-7.811295390E-2,7.620091438E-1,-5.968368791E0,6.017323790E0
1.493002650E1,6.031177462E-1,-6.232649490E-1,-3.531601310E0,3.636539292E0
1.493999650E1,-7.777964068E-1,4.199721712E-1,-4.747835614E0,4.829418898E0
1.494996650E1,-1.047062223E0,3.528861889E-1,-7.377046072E0,7.459334871E0
1.495993650E1,2.433081251E-1,-1.759816030E0,-5.941671574E0,6.201581443E0
1.496990650E1,-1.278261184E-1,-2.211532735E0,-3.172181150E0,3.869101937E0
1.497987750E1,1.094485846E0,-2.746808198E0,4.110201425E0,5.063260836E0
1.498984750E1,6.119704307E-1,1.260032288E0,8.730005236E0,8.841672952E0
1.499981750E1,-2.226352759E-1,3.528023399E0,8.883027454E0,9.560580124E0
1.500978750E1,7.523372644E-1,5.556810763E0,1.131649067E0,5.720558262E0
1.501975750E1,-2.665746712E-1,5.023346475E0,-1.813047327E0,5.347168641E0
1.502972850E1,-3.062015806E-1,-2.034758249E0,-2.001843395E0,2.870779950E0
1.503969850E1,-4.463240372E-1,-7.123159969E-1,-4.318088652E0,4.399146376E0
1.504966867E1,-1.033123484E0,5.579012641E0,-5.782669408E0,8.101357397E0
1.505963867E1,-1.142314243E0,-1.128416434E0,-1.044953570E0,1.915759234E0
1.506960867E1,-7.509723781E-1,-2.763278050E0,2.769439554E0,3.983649148E0
1.507957967E1,3.051581450E-2,1.572111344E0,1.126405284E0,1.934232188E0
1.508954967E1,-6.142106087E-1,1.840373704E0,1.002351342E0,2.183789884E0
1.509951967E1,-1.495396989E-1,-1.133052692E0,4.080554287E0,4.237581128E0
1.510948967E1,5.868849619E-1,-1.257589029E0,7.955750853E-1,1.599657414E0
1.511945967E1,4.666834574E-2,-4.710742047E-1,-4.836711538E-1,6.767766440E-1
1.512942967E1,-1.264424571E0,9.637717053E-1,7.831018049E-1,1.772251063E0
1.513940067E1,-4.383012919E-1,1.537910395E0,-1.025157237E0,1.899532513E0
1.514937067E1,-4.583562183E-1,3.822263476E-1,-2.519806715E0,2.589519894E0
1.515934067E1,-6.739860365E-1,-7.793449688E-1,-5.386297184E-1,1.162651165E0
1.516931067E1,-2.525121724E-1,-5.304225665E-1,8.371751010E-1,1.022728041E0
1.517928067E1,-1.117501035E-1,1.116315914E0,-1.879733652E-1,1.137533864E0
1.518925167E1,-3.219811326E-2,-3.341264208E0,-2.409427071E-1,3.350095015E0
1.519922167E1,1.786809116E0,-3.860594898E0,-1.009673810E-1,4.255240792E0
1.520919167E1,1.811174902E0,-1.873934383E0,2.672407349E0,3.732793275E0
1.521916167E1,1.195148514E0,-1.168577743E-1,5.978414308E0,6.097825296E0
1.522913167E1,7.716300063E-1,-1.157756301E0,6.804965603E0,6.945744695E0
1.523910267E1,-2.928305699E-1,1.341196319E-1,1.391446121E0,1.428236719E0
1.524907267E1,-3.018783686E-1,1.161191832E0,-1.199751003E0,1.696732003E0
1.525904267E1,5.499548615E-1,2.017411607E0,-1.202966387E0,2.412369804E0
1.526901267E1,2.801982817E-1,2.457854003E0,-3.136054713E0,3.994295499E0
1.527898267E1,4.549349759E-1,1.288183416E0,-5.136612890E0,5.315183376E0
1.528895267E1,1.618313703E0,3.290789288E0,-2.656490058E0,4.528263774E0
1.529892367E1,2.235462611E0,5.412423713E0,7.923971236E-1,5.909273791E0
1.530889367E1,3.041087160E0,4.746234354E0,3.659696848E0,6.720738998E0
1.531886367E1,3.746831178E0,1.914918103E0,1.863638021E0,4.602043230E0
1.532883367E1,2.701446376E0,-1.472992268E0,-1.062309861E0,3.255152989E0
1.533880367E1,4.518648953E-1,-1.367096854E0,-1.773759300E0,2.284591374E0
1.534877467E1,5.500865335E-1,1.511973900E0,-1.633103358E0,2.292528484E0
1.535874467E1,1.767284386E-1,1.327809996E0,7.522910714E-1,1.536311877E0
1.536871467E1,-7.604011595E-3,2.733077766E0,1.828241901E0,3.288197127E0
1.537868467E1,9.730456086E-1,1.671404375E0,1.172105953E0,2.261469147E0
1.538865467E1,-4.527053230E-2,2.981240907E-1,2.630329031E0,2.647557026E0
1.539862567E1,5.644791625E-1,3.191258276E0,5.311552227E-2,3.241232384E0
1.540859567E1,1.507799573E0,3.069642330E0,-1.332029055E0,3.670213207E0
1.541856567E1,6.012990063E-1,-1.024077549E0,-1.900667853E0,2.241167912E0
1.542853567E1,2.359460274E0,-5.642992875E-1,1.136482376E-1,2.428662676E0
1.543850567E1,2.242815923E0,8.030346707E-1,9.840565735E-1,2.577490114E0
1.544847667E1,1.054415900E0,-2.001183537E0,2.059629089E0,3.059182966E0
1.545844667E1,2.602801217E0,-1.323075506E0,3.658570674E0,4.680837782E0
1.546841667E1,2.030570766E0,7.513622412E-1,3.375591749E-1,2.191280231E0
1.547838667E1,2.246021074E0,-3.513954413E-1,9.475120604E-1,2.462898400E0
1.548835667E1,3.108794993E0,1.465885854E0,-7.875883734E-1,3.526148479E0
1.549832667E1,1.438170345E0,1.489351900E0,-1.957447826E0,2.849228845E0
1.550829767E1,1.078238919E0,1.127859487E0,-2.543345851E0,2.983835502E0
1.551826767E1,1.450168246E0,2.073972601E0,-2.053825142E0,3.259225062E0
1.552823767E1,6.410842656E-1,-8.225190550E-2,-3.807589889E-1,7.501545302E-1
1.553820767E1,3.593383721E-1,-1.017020836E0,9.805318719E-1,1.457703056E0
1.554817767E1,4.181001120E-1,-2.334914540E0,1.730762969E0,2.936353873E0
1.555814867E1,3.713311576E-1,-5.509568185E-1,1.324322425E0,1.481644400E0
1.556811867E1,1.365795556E0,6.978868228E-1,2.055109191E-1,1.547474800E0
1.557808867E1,9.329144134E-1,5.384823686E-1,-4.434890878E-1,1.164892757E0
1.558805867E1,8.610010430E-2,5.794728121E-1,6.240493530E-1,8.559436681E-1
1.559802867E1,6.090136765E-1,1.298783248E0,1.654640408E0,2.189879098E0
1.560799967E1,6.443407993E-1,8.936387390E-2,-9.216322839E-2,6.570045877E-1
1.561796967E1,2.022495615E-1,5.068682277E-1,-8.700855696E-1,1.027068247E0
1.562793967E1,-3.049713995E-1,-1.209345700E0,1.533657423E0,1.976772538E0
1.563790967E1,3.347256873E-1,-6.684238726E-1,2.147260725E0,2.273666726E0
1.564787967E1,4.898080990E-1,6.155451626E-2,4.004050487E0,4.034367514E0
1.565784967E1,-3.897306642E-1,-1.093942420E0,2.504831411E0,2.760938320E0
1.566782067E1,1.273044390E0,7.103451928E-1,-1.073695559E0,1.810539827E0
1.567779067E1,3.795745622E-1,4.124953365E-1,6.600337029E-2,5.644339606E-1
1.568776067E1,6.673354865E-1,-1.645732175E0,-1.264856241E0,2.180282631E0
1.569773067E1,6.588302728E-1,-6.765433162E-1,-3.576678080E0,3.699242392E0
1.570770067E1,-3.954726300E-1,-1.037108069E0,-3.172417377E0,3.360985534E0
1.571767167E1,9.428781420E-3,-1.559508840E0,-1.144812904E0,1.934619681E0
1.572764167E1,4.559872920E-1,-1.987370952E0,-4.503689218E-1,2.088157053E0
1.573761167E1,4.788960982E-1,-2.664602485E0,5.948775356E0,6.535853129E0
1.574758167E1,-1.116299907E0,1.249096826E-1,3.380945460E0,3.562656328E0
1.575755167E1,2.303672867E-1,1.750066090E0,1.988953208E0,2.659273448E0
1.576752267E1,4.302793871E-1,1.007292824E0,2.299709916E0,2.547242604E0
1.577749267E1,5.899988966E-1,-7.941571355E-2,-3.961476910E-1,7.150793989E-1
1.578746267E1,1.156221918E0,7.953040668E-1,-2.042792616E0,2.478378372E0
1.579743267E1,4.858042911E-1,-4.752032161E-3,-1.527680399E0,1.603070738E0
1.580740267E1,6.940509032E-1,8.784681380E-1,-2.961773772E0,3.166309651E0
1.581737267E1,1.001677596E0,9.772878367E-1,-1.271902136E0,1.891080265E0
1.582734367E1,-3.412372197E-1,-1.740147458E0,1.875755206E0,2.581281389E0
1.583731367E1,-9.733390658E-1,4.251881799E-1,1.663956192E0,1.974062849E0
1.584728367E1,-7.445046267E-1,1.413268223E0,2.759412163E-1,1.621036015E0
1.585725367E1,1.866101599E-1,1.725717407E0,3.743580419E-1,1.775687997E0
1.586722367E1,6.031466534E-1,8.772130331E-1,9.857703924E-1,1.450872792E0
1.587719467E1,1.073132618E0,-1.224649325E0,-1.137448336E0,1.986244774E0
1.588716467E1,8.998429272E-1,9.799334094E-1,-3.838287771E-2,1.330962068E0
1.589713467E1,6.783139993E-1,-4.758200973E-2,-5.725008845E-2,6.823866221E-1
1.590710467E1,1.259901311E0,-1.372498511E0,-1.549877599E0,2.423473550E0
1.591707467E1,1.601139408E-2,6.572445810E-2,6.286522812E-1,6.322813929E-1
1.592704567E1,-4.992012855E-1,-8.976087061E-1,3.164752847E-1,1.074737139E0
1.593701567E1,2.766938992E-3,7.355306125E-1,1.542444034E0,1.708843625E0
1.594698567E1,-7.158475690E-1,8.385658613E-1,7.032762015E-1,1.307756805E0
1.595695567E1,-7.423722933E-1,6.901430628E-1,-1.328428924E0,1.670969023E0
1.596692567E1,5.057666123E-1,-1.733038706E0,-2.321314793E0,2.940701513E0
1.597689667E1,-7.149372306E-3,-2.685675266E0,3.780107975E-2,2.685950794E0
1.598686667E1,1.563671912E-1,-1.319149393E-1,-1.177802895E0,1.195437957E0
1.599683667E1,-4.571592567E-1,-4.549660027E-2,-8.174828482E-1,9.377327624E-1
1.600680667E1,-1.009676880E0,-1.016512421E0,-5.994238043E-1,1.553078813E0
1.601677667E1,-9.318709778E-1,1.244759946E0,-1.708365794E0,2.310048599E0
1.602674667E1,-8.853559387E-1,1.801499661E0,-4.119631814E0,4.582643609E0
1.603671767E1,-1.200365692E0,-2.169170242E0,1.851234908E0,3.094066582E0
1.604668788E1,-2.670570482E-1,1.472165179E-1,3.945373678E0,3.957141093E0
1.605665787E1,-2.240912874E-1,-7.547489485E-1,5.581004788E0,5.636264483E0
1.606662787E1,-1.197989237E0,-4.443427813E-1,3.373867405E0,3.607713956E0
1.607659787E1,-3.461257113E-1,2.742162000E0,-2.873748618E-1,2.778819849E0
1.608656887E1,8.657309837E-2,-4.888368765E-1,9.163996106E-1,1.042230608E0
1.609653887E1,-1.240179237E0,-2.162167324E0,1.606189209E-1,2.497761101E0
1.610650887E1,-5.917153468E-1,3.504986246E0,-2.709687442E-1,3.564895468E0
1.611647887E1,-1.935241562E0,1.390059454E0,1.215949545E0,2.675062333E0
1.612644888E1,-3.377994955E0,-2.419559126E0,1.632095883E0,4.464174420E0
1.613641987E1,-2.029324724E0,2.888900216E0,-5.258716786E-1,3.569375900E0
1.614638987E1,-1.789506875E0,1.098508219E0,-1.805719596E0,2.769418427E0
1.615635987E1,-5.168634216E-1,-1.744148415E-1,-2.466497065E0,2.526098989E0
1.616632987E1,6.553768341E-1,1.657925373E-1,-2.034332280E0,2.143714949E0
1.617629987E1,8.362313604E-1,-2.876263213E0,-2.275008938E0,3.761361274E0
1.618626987E1,3.463080348E-1,-5.852574626E-1,-1.931058757E0,2.047301510E0
1.619624087E1,1.530306603E-1,9.970517179E-1,-9.305048490E-1,1.372359204E0
1.620621087E1,9.279677421E-3,-1.643464332E0,3.584963000E-1,1.682135761E0
1.621618087E1,-1.346442734E0,-1.032980227E0,6.868390936E-1,1.830765994E0
1.622615087E1,-9.148594540E-1,3.760461330E-2,-1.884269922E0,2.094959442E0
1.623612087E1,-1.411537447E0,-1.756187832E0,-1.601985646E0,2.764596114E0
1.624609187E1,-1.694786806E0,-2.932614293E0,2.776604732E0,4.379733181E0
1.625606187E1,-6.791121443E-1,5.908447695E-1,2.211943794E0,2.388092585E0
1.626603187E1,-1.077530748E-1,4.785074776E-1,1.430378053E0,1.512138057E0
