"Time (s)","Linear Acceleration x (m/s^2)","Linear Acceleration y (m/s^2)","Linear Acceleration z (m/s^2)","Absolute acceleration (m/s^2)"
9.358124982E-3,-2.086552593E0,-2.309916523E0,1.831982950E0,3.611866221E0
1.932812500E-2,-5.422097493E-1,-2.060262342E0,2.079931206E0,2.977379074E0
2.929912502E-2,1.459941136E0,-1.824296200E0,1.830867301E0,2.968427163E0
3.927012498E-2,2.862734511E0,-1.490890887E0,1.442527982E0,3.535377136E0
4.924112500E-2,1.729757541E0,-2.126601927E0,4.237325156E-1,2.773814368E0
5.921112502E-2,1.302374170E0,-2.042510488E0,3.184077895E-1,2.443237829E0
6.918212498E-2,1.949780664E0,-1.327965532E0,1.297447452E0,2.692305143E0
7.915312500E-2,2.071437102E0,-1.488120477E0,5.901892966E-1,2.617952946E0
8.912412502E-2,1.787229969E0,-1.964566226E0,-6.576445305E-1,2.736093520E0
9.909412498E-2,2.304733551E0,-1.972862840E0,1.187049097E-1,3.036128355E0
1.090651250E-1,2.402987240E0,-6.727341476E-1,-2.060196269E-1,2.503869604E0
1.190361250E-1,2.192075686E0,-2.369876504E-2,-7.475858170E-1,2.316169683E0
1.290071250E-1,2.145303662E0,-3.719624376E-1,-2.285892946E-1,2.189277717E0
1.389771250E-1,1.860571888E0,-5.052815858E-1,5.408317798E-1,2.002382642E0
1.489481250E-1,1.460696743E0,1.814563510E-1,8.230534905E-1,1.686409924E0
1.589191250E-1,1.136764943E0,9.834791610E-1,9.002343982E-1,1.752109519E0
1.688901250E-1,4.203215423E-1,5.010376766E-1,4.120959717E-1,7.730019678E-1
1.788601250E-1,-2.256579392E-2,6.886119694E-2,-1.492145115E-1,1.658796249E-1
1.888311250E-1,-9.676776454E-3,3.063435218E-1,5.099649131E-1,5.949825258E-1
1.988021250E-1,-2.465762801E-1,6.705355945E-1,2.815118587E-1,7.678976312E-1
2.087731250E-1,8.839389391E-2,6.182307887E-1,-3.951331991E-1,7.390216733E-1
2.187431250E-1,7.092329793E-1,4.255077302E-2,-1.566942698E-1,7.275816665E-1
2.287141250E-1,8.546941631E-1,2.949891061E-2,4.563225567E-1,9.693309930E-1
2.386851250E-1,8.483310769E-1,7.443803734E-1,5.994144487E-1,1.277914488E0
2.486561250E-1,1.110648865E0,5.458861130E-1,1.190858558E0,1.717462272E0
2.586261250E-1,8.758418611E-1,1.031639460E0,8.820869797E-1,1.615381188E0
2.685971250E-1,7.791187546E-1,1.864091765E0,-1.357477891E-1,2.024917679E0
2.785681250E-1,7.901835139E-1,1.340215157E0,-5.987402648E-1,1.667050256E0
2.885391250E-1,3.613101994E-1,-3.494980198E-1,-1.811826428E0,1.880268314E0
2.985091250E-1,-1.108741723E-2,-1.677695394E0,-1.451004106E0,2.218151862E0
3.084801250E-1,-3.854689942E-1,-1.476167598E0,-2.059184700E-1,1.539499769E0
3.184515833E-1,-7.049756216E-1,-9.455623063E-1,1.581753695E-1,1.189999223E0
3.284225833E-1,-2.668808095E-2,-1.026040459E0,-4.688554788E-1,1.128404510E0
3.383925833E-1,4.604166310E-1,-8.513896823E-1,-7.360247022E-1,1.215968843E0
3.483635833E-1,4.103456808E-1,-8.441794807E-1,-1.000519994E0,1.371882951E0
3.583345833E-1,7.934187052E-1,-6.014884561E-1,1.177640927E-1,1.002581661E0
3.683055833E-1,2.717673276E-1,-1.007019466E0,1.546516035E0,1.865384017E0
3.782755833E-1,-5.515508956E-1,-1.713416327E0,1.425145379E0,2.295875269E0
3.882465833E-1,-4.216346077E-1,-6.773993486E-1,2.280665535E-1,8.298553927E-1
3.982175833E-1,-3.826045894E-1,1.079543944E0,-3.067063415E-1,1.185693965E0
4.081885833E-1,-2.733125275E-1,8.799042141E-1,-4.839266771E-1,1.040728683E0
4.181585833E-1,-5.312149373E-1,-5.672059384E-1,-3.985415411E-1,8.733540211E-1
4.281295833E-1,-8.827950045E-1,-4.714905265E-1,-6.783881128E-2,1.003111380E0
4.381005833E-1,-1.268245288E0,1.088022114E0,-7.206564653E-1,1.819775803E0
4.480715833E-1,-7.525041293E-1,1.357876379E0,-7.554994386E-1,1.726519657E0
4.580415833E-1,-4.881665663E-1,7.505997643E-1,2.534060472E-1,9.305488850E-1
4.680125833E-1,-7.341342243E-1,9.495720345E-1,3.019268274E-2,1.200646370E0
4.779835833E-1,-6.331522252E-1,1.401201908E0,-4.996094942E-1,1.616743076E0
4.879545833E-1,-8.009267494E-1,6.335823610E-1,-2.241454107E-1,1.045538823E0
4.979245833E-1,-9.368628189E-1,-4.292587191E-2,3.084312701E-1,9.872610700E-1
5.078955833E-1,-4.695535632E-1,6.474809003E-1,1.363108760E-1,8.113524018E-1
5.178665833E-1,-4.359508574E-1,5.097509050E-1,2.409000224E-1,7.126934517E-1
5.278375833E-1,-4.052512942E-1,6.831825373E-1,1.970622772E-1,8.184134235E-1
5.378075833E-1,-1.664798044E-1,1.221236305E0,-4.557325727E-1,1.314087446E0
5.477785833E-1,5.236985609E-3,-3.438118950E-1,-4.561331069E-1,5.712192717E-1
5.577495833E-1,-2.590379392E-1,-8.163888341E-1,-3.612959468E-1,9.295838551E-1
5.677205833E-1,5.192568697E-2,2.731863007E-1,5.934818637E-1,6.553989277E-1
5.776905833E-1,-2.051653486E-1,-2.604697761E-1,9.378103602E-1,9.946987465E-1
5.876615833E-1,-1.381113068E-1,-7.573977372E-1,7.519694746E-1,1.076189647E0
5.976325833E-1,-8.580876678E-2,-5.616776884E-2,9.058389544E-2,1.368334931E-1
6.076035833E-1,-4.225592718E-1,-1.363102913E-2,-4.347837532E-1,6.064478997E-1
6.175735833E-1,-1.730226195E-1,-6.015884435E-1,-9.313848549E-1,1.122195718E0
6.275445833E-1,-2.185711138E-1,-3.670855674E-1,-1.987527072E-2,4.276916786E-1
6.375155833E-1,2.407503337E-2,-2.778702128E-1,6.627269304E-1,7.190260403E-1
6.474865833E-1,2.922184029E-1,6.030496627E-2,3.606194240E-1,4.680541132E-1
6.574565833E-1,4.123463787E-2,-7.825153291E-2,7.794186437E-1,7.844214556E-1
6.674275833E-1,1.442200392E-1,-4.884103221E-1,3.255413926E-1,6.044181174E-1
6.773985833E-1,3.116570328E-1,-1.051151327E0,-3.482473004E-1,1.150358813E0
6.873685833E-1,-2.273503426E-1,-6.926328072E-1,2.612021399E-1,7.743739031E-1
6.973395833E-1,-7.157698741E-1,1.331913865E-1,2.282712060E-1,7.630034086E-1
7.073105833E-1,-1.150482072E0,1.714082032E-2,1.274178457E-1,1.157643344E0
7.172815833E-1,-1.781496921E0,-1.390026417E-1,9.317070365E-1,2.015224805E0
7.272515833E-1,-1.753178855E0,5.711607027E-1,-9.170422196E-2,1.846150132E0
7.372225833E-1,-1.554794815E0,7.203623503E-1,-8.704749942E-1,1.921987395E0
7.471935833E-1,-1.550290705E0,5.944905084E-1,-1.297349803E0,2.107115741E0
7.571645833E-1,-1.586132090E0,-1.038252077E-1,-1.123948869E0,1.946755183E0
7.671345833E-1,-1.664619558E0,-8.348917633E-2,-6.515640110E-1,1.789543064E0
7.771055833E-1,-1.831025468E0,5.503589407E-1,-9.838057280E-2,1.914478510E0
7.870765833E-1,-1.457621400E0,9.074036694E-1,1.488782966E-1,1.723428650E0
7.970475833E-1,-7.295930573E-1,7.229924279E-1,-2.534773833E-1,1.057957874E0
8.070175833E-1,-2.445439341E-1,2.701121271E-1,-8.056135851E-1,8.841807199E-1
8.169885833E-1,1.761491988E-2,1.499682176E-1,-1.513099197E0,1.520614985E0
8.269595833E-1,2.475915760E-1,3.680945045E-1,-1.125460959E0,1.209734485E0
8.369305833E-1,2.572254485E-1,3.995557407E-1,-7.320304692E-1,8.727418456E-1
8.469005833E-1,4.313805640E-1,3.393019375E-1,-8.127805173E-1,9.807278752E-1
8.568715833E-1,4.469947129E-1,6.380411553E-1,-5.135948646E-1,9.331026065E-1
8.668425833E-1,1.220411299E-1,8.707615077E-1,-3.582320058E-1,9.494471079E-1
8.768135833E-1,-2.488593620E-1,6.296436766E-1,-5.382946730E-2,6.791757895E-1
8.867835833E-1,-6.650392118E-1,9.182759821E-2,1.125107787E0,1.310182046E0
8.967545833E-1,-1.039167604E0,2.628361443E-1,9.789911306E-1,1.451680331E0
9.067255833E-1,-1.344445032E0,8.829058823E-1,2.757500124E-1,1.631898683E0
9.166965833E-1,-1.543219813E0,9.713470656E-1,-4.981664014E-1,1.890294230E0
9.266665833E-1,-1.378302458E0,6.157401672E-1,-8.916875231E-1,1.753271302E0
9.366375833E-1,-8.831811400E-1,4.220061252E-1,-5.701614136E-1,1.132776294E0
9.466085833E-1,-9.015205664E-1,7.342535806E-1,-5.030651987E-2,1.163786234E0
9.565795833E-1,-6.075895506E-1,1.780033655E0,-1.137292215E0,2.197980541E0
9.665495833E-1,-8.175639783E-1,1.639548159E0,-1.152466909E0,2.164418860E0
9.765205833E-1,-5.231299192E-1,3.887205577E-1,-5.430852968E-1,8.483573680E-1
9.864915833E-1,2.072364324E-1,5.137965935E-1,-3.107672328E-1,6.352244890E-1
9.964625833E-1,2.013380536E-1,1.241189344E0,-3.570391738E-1,1.307120871E0
1.006432583E0,3.511769382E-1,1.179624302E0,-9.246476930E-1,1.539419401E0
1.016403583E0,3.161723624E-1,1.071461045E0,-5.921229708E-1,1.264358868E0
1.026374583E0,3.147506484E-1,6.139889261E-1,4.331208050E-2,6.913221452E-1
1.036345583E0,4.625015653E-1,2.983395606E-2,7.941202980E-1,9.194698530E-1
1.046315583E0,1.932515554E-1,6.220732865E-1,1.122650203E0,1.297946384E0
1.056286583E0,-2.507782400E-2,1.005773717E0,5.449353558E-1,1.144187139E0
1.066257583E0,2.329283488E-1,5.745161274E-1,-6.956847614E-1,9.318270674E-1
1.076228583E0,1.940707138E-1,7.578488499E-2,-3.957190901E-1,4.472140304E-1
1.086198583E0,8.898128327E-2,-3.841866267E-1,1.920629078E-1,4.386401640E-1
1.096169583E0,-3.595128750E-1,-5.527823192E-1,4.580334520E-1,8.028776014E-1
1.106140583E0,-7.712125151E-1,1.723519439E-1,3.710759997E-1,8.730242457E-1
1.116111583E0,-8.796292488E-1,-3.380234438E-1,6.537233877E-1,1.146892206E0
1.126081583E0,-1.468202375E0,-4.571920377E-1,6.818479103E-1,1.682129408E0
1.136052583E0,-1.899167019E0,1.469688883E-1,1.266331494E-1,1.909049810E0
1.146023583E0,-1.884641659E0,-3.701986250E-1,-4.272449380E-1,1.967602460E0
1.155994583E0,-1.934213330E0,-6.893215290E-1,-9.226573008E-1,2.251142348E0
1.165964583E0,-2.015591076E0,-2.743235841E-1,-7.747782934E-1,2.176727410E0
1.175935583E0,-1.854285254E0,-8.842791009E-1,-3.348226780E-1,2.081448908E0
1.185906583E0,-1.474788533E0,-8.540326238E-1,5.211214006E-1,1.782116846E0
1.195877583E0,-8.538994534E-1,-6.668644202E-1,1.262333168E0,1.663531622E0
1.205847583E0,-5.656135223E-1,-3.072539333E-1,9.555829722E-1,1.152155568E0
1.215818583E0,-1.983047009E-1,1.944821933E-1,1.420380483E0,1.447283246E0
1.225789583E0,-1.641316905E-1,1.855102256E-1,3.184914047E-1,4.034724656E-1
1.235759583E0,3.733472045E-1,6.872907910E-1,-2.074989724E-1,8.092049122E-1
1.245730583E0,9.849541211E-1,6.876223281E-1,-4.090484029E-1,1.268967960E0
1.255701583E0,1.519373844E0,6.206933436E-1,-1.826430434E-1,1.651398070E0
1.265672583E0,1.342723758E0,5.504861176E-1,3.562533081E-1,1.494275235E0
1.275643583E0,1.942864870E0,1.049741563E0,-4.220163578E-1,2.248283580E0
1.285613583E0,1.798057259E0,1.363266050E0,-6.933669251E-1,2.360563899E0
1.295584583E0,1.692825065E0,1.227482301E0,-9.652279544E-1,2.303048958E0
1.305555583E0,1.693773775E0,9.934670824E-1,-9.468162417E-1,2.179978771E0
1.315525583E0,1.401305696E0,4.976115006E-1,-1.224457244E0,1.926284092E0
1.325496583E0,1.460774511E0,9.589842975E-2,-1.455797068E0,2.064558981E0
1.335467583E0,1.572522842E0,6.134515670E-1,-1.535521515E0,2.281880198E0
1.345438583E0,1.303039437E0,7.533926868E-1,-1.541215534E0,2.154264987E0
1.355408583E0,1.074158001E0,1.034986991E0,-7.004040492E-1,1.647901488E0
1.365379583E0,3.146587741E-1,-5.090059698E-2,-3.464241385E-1,4.707554552E-1
1.375350583E0,-2.651524457E-1,-5.849466830E-1,5.717758298E-1,8.598814110E-1
1.385321583E0,2.607578246E-1,-9.572973758E-1,1.551083295E0,1.841269208E0
1.395291583E0,-1.007171933E-1,-8.065704820E-1,1.071420992E0,1.344857925E0
1.405262583E0,4.003936467E-1,-3.029720172E-1,3.868061793E-1,6.338186932E-1
1.415233583E0,5.386512800E-1,-3.637111393E-1,8.910688877E-2,6.560267006E-1
1.425204583E0,-2.620171686E-1,-2.757810026E-1,3.513474941E-2,3.820243561E-1
1.435174583E0,1.319804281E-2,-1.116712940E-1,3.634687722E-1,3.804657863E-1
1.445145583E0,-2.189633889E-1,-4.910901010E-2,4.088227004E-1,4.663610842E-1
1.455116583E0,-5.188518769E-1,3.605051109E-1,-3.373767418E-1,7.162361839E-1
1.465087583E0,-4.990126397E-1,-6.071280956E-2,-2.214814192E-1,5.493211072E-1
1.475057583E0,-6.641841296E-1,1.975408718E-1,-3.960161287E-1,7.981176155E-1
1.485028583E0,-1.753968814E-1,3.128114194E-2,-3.110420519E-1,3.584546469E-1
1.494999583E0,2.001928034E-1,2.757546902E-2,4.246832728E-2,2.064972732E-1
1.504970583E0,2.326868040E-1,6.048772100E-1,4.005693555E-1,7.618893597E-1
1.514940583E0,2.416174027E-1,3.781613633E-1,4.787472135E-1,6.561889060E-1
1.524911583E0,4.092386567E-1,7.058062917E-1,-4.693507379E-1,9.412379692E-1
1.534882583E0,6.726432965E-1,8.473018938E-1,-9.321309596E-1,1.428018778E0
1.544853583E0,8.311754192E-1,5.559249052E-1,-5.542663425E-1,1.143291851E0
1.554824583E0,7.943557946E-1,7.304625383E-1,-9.316567504E-1,1.425679119E0
1.564794583E0,5.667691514E-1,1.666453537E0,-1.313825503E0,2.196458995E0
1.574765583E0,1.109026775E-1,1.026689500E0,-9.748735213E-1,1.420129964E0
1.584736583E0,-1.031865455E-2,6.295328718E-1,-6.658826727E-1,9.164157600E-1
1.594707583E0,2.022785783E-1,6.958674869E-1,-3.186562961E-1,7.916375544E-1
1.604677583E0,-2.397092369E-1,4.530577639E-1,2.909825939E-1,5.894003102E-1
1.614648583E0,-2.453790627E-1,7.280885687E-1,1.840021117E0,1.993991364E0
1.624619583E0,-1.764748156E-1,4.410584003E-1,1.811705391E0,1.872952828E0
1.634590583E0,-4.307588954E-1,1.321068449E0,-3.830721474E-1,1.441360241E0
1.644560583E0,-3.587097234E-1,9.033310837E-1,-1.594218205E0,1.867139897E0
1.654531583E0,-4.304755247E-1,-6.575769952E-1,-1.378951791E0,1.587206579E0
1.664502583E0,-6.194166771E-1,-1.233357291E0,-4.337470418E-1,1.446714803E0
1.674473583E0,-1.180276340E0,-9.114981821E-1,1.919243288E-1,1.503567798E0
1.684443583E0,-1.046019006E0,3.268798202E-1,5.680850673E-1,1.234393301E0
1.694414583E0,-4.847961581E-1,5.799312338E-1,6.169549263E-1,9.756951019E-1
1.704385583E0,-6.649331579E-1,4.657687336E-2,4.283389521E-1,7.923255439E-1
1.714356583E0,3.688628286E-2,5.509804997E-1,1.570679069E-1,5.741170928E-1
1.724326583E0,-1.418165412E-1,3.951560032E-1,-2.106365883E-1,4.697105179E-1
1.734297583E0,-1.969110536E-1,6.346421689E-2,-2.032094550E-1,2.899926766E-1
1.744268583E0,-2.885163114E-1,-2.748942724E-1,8.431421846E-1,9.325756090E-1
1.754239583E0,-7.276113629E-1,-7.462941670E-1,2.489048606E-1,1.071600163E0
1.764209583E0,-2.316162519E-1,-1.290118259E0,7.385758424E-1,1.504508387E0
1.774180583E0,-2.641010432E-1,-1.055392604E0,9.912802237E-1,1.471814999E0
1.784151583E0,-2.717651349E-1,-1.105026110E0,1.345503963E0,1.762191791E0
1.794122583E0,7.366920888E-1,-8.287182730E-1,1.051108350E0,1.527847496E0
1.804093583E0,1.688426497E0,-7.514101884E-1,7.218568987E-1,1.984056120E0
1.814063583E0,1.066286844E0,-9.065581620E-1,1.078303750E0,1.766792096E0
1.824034583E0,5.732208230E-1,-6.446683896E-1,-6.968290615E-1,1.108941020E0
1.834005583E0,8.810954382E-1,-4.990230185E-1,-9.978940094E-1,1.421670003E0
1.843976583E0,5.394568071E-2,-6.871212217E-1,-1.409128686E0,1.568658460E0
1.853946583E0,-7.480624381E-1,9.763595912E-1,-5.443120426E-1,1.345046863E0
1.863917583E0,-1.109248750E0,1.551731459E0,-3.222342074E-2,1.907705862E0
1.873888583E0,-1.792551374E0,9.462277195E-1,5.029482543E-1,2.088431055E0
1.883859583E0,-1.842186780E0,9.565445468E-1,1.430486226E-1,2.080647137E0
1.893829583E0,-1.478780865E0,-2.990903431E-1,-1.442835546E-1,1.515607345E0
1.903800583E0,-1.137852744E0,1.413067371E-1,-1.488467216E-1,1.156214430E0
1.913771583E0,-5.733979936E-1,1.365738838E0,-7.102829200E-1,1.642720201E0
1.923742583E0,1.921748820E-1,1.523225405E0,-1.412800153E0,2.086420641E0
1.933712583E0,3.282857467E-1,1.413051876E0,-1.883330859E0,2.377272020E0
1.943683583E0,3.738583973E-1,8.277578679E-1,-1.027186221E0,1.371154521E0
1.953654583E0,1.587333401E-1,5.355581760E-2,-4.354702163E-1,4.665820486E-1
1.963625583E0,-2.488703255E-1,-5.333742410E-2,-2.486084068E-1,3.557913147E-1
1.973595583E0,-3.456889243E-1,5.874747267E-1,-9.586971992E-1,1.176319560E0
1.983566583E0,1.091712438E-1,2.386321798E-1,-1.340018106E0,1.365471421E0
1.993537583E0,2.404584845E-1,-9.691681007E-1,1.192978173E0,1.555732629E0
2.003508583E0,-2.224688677E-1,-6.703765503E-1,3.119172632E0,3.198145560E0
2.013479583E0,-1.443499205E-1,3.535676819E-1,2.253544394E0,2.285674811E0
2.023449583E0,-5.131899449E-1,1.631540690E0,-1.085782923E0,2.025885855E0
2.033420583E0,-1.175246127E-1,8.570550495E-1,-3.108586832E0,3.226711559E0
2.043391583E0,1.807185420E-1,-8.592056555E-1,-1.658320060E0,1.876411195E0
2.053362583E0,-6.405164279E-1,-1.683190023E0,-5.708835447E-1,1.889258576E0
2.063332583E0,-1.320344564E0,9.649703845E-1,2.707658458E-1,1.657646450E0
2.073303583E0,-1.736107471E0,1.308739302E0,5.279719985E-1,2.237324774E0
2.083274583E0,-6.665390957E-1,2.536744344E-1,-5.435671073E-1,8.967108146E-1
2.093245583E0,-1.343926604E-1,4.380663800E-1,-8.147387499E-1,9.347527860E-1
2.103215583E0,-2.943961070E-1,1.454733460E0,-3.733967596E-1,1.530471707E0
2.113186583E0,-2.226940038E-1,2.013846852E0,-6.202697128E-1,2.118939895E0
2.123157583E0,-2.757173776E-1,1.187906006E0,-3.311915570E-1,1.263656836E0
2.133128583E0,5.453990400E-4,-1.557628083E-1,2.397504598E-1,2.859066856E-1
2.143098583E0,-2.959974219E-1,5.519739416E-1,5.646837419E-1,8.433015086E-1
2.153069583E0,-7.634257049E-1,1.459371471E0,-1.524947995E-1,1.654037050E0
2.163040583E0,-8.319802885E-1,3.740633422E-1,1.462774551E-1,9.238569577E-1
2.173011583E0,-5.154694089E-1,-4.267999649E-1,3.416832161E-1,7.514082390E-1
2.182981583E0,-2.102211802E-1,-3.425848567E-1,-1.079039329E-1,4.161737467E-1
2.192952583E0,1.527325619E-2,4.521286413E-1,-5.782533753E-1,7.341869971E-1
2.202923583E0,1.506322238E-1,9.920239896E-2,-1.420224363E-1,2.295681929E-1
2.212894583E0,7.044451330E-3,-4.158612862E-1,-3.271142936E-1,5.291445877E-1
2.222864583E0,2.287073718E-1,-7.704764968E-1,-2.085777837E-1,8.303287216E-1
2.232835583E0,3.269335415E-2,-2.383886433E-1,2.544421738E-1,3.501982588E-1
2.242806583E0,-2.898066823E-1,5.214254558E-1,1.995450050E-1,6.290394487E-1
2.252777583E0,-3.769651692E-1,-3.596213043E-1,9.493989569E-1,1.082953647E0
2.262748583E0,-4.005536776E-1,-2.723112649E-1,4.286161101E-1,6.467676890E-1
2.272718583E0,-1.899057969E-1,-6.229725882E-1,1.934276479E-1,6.793918695E-1
2.282689583E0,-4.499242776E-1,-8.491946375E-1,-3.086119491E-1,1.009358570E0
2.292660583E0,-1.210297772E0,-8.794045696E-1,-4.419325590E-1,1.559960731E0
2.302631583E0,-1.383698853E0,-6.404426068E-1,4.875156981E-1,1.600768817E0
2.312600875E0,-1.090758831E0,-9.642584860E-2,1.226913074E0,1.644496416E0
2.322571875E0,-6.736050904E-1,2.719352889E-1,7.821586490E-1,1.067457152E0
2.332542875E0,-5.880770996E-1,1.767513889E-1,3.816770017E-1,7.230166403E-1
2.342513875E0,-1.243960047E-1,2.846018198E-1,2.086801100E-1,3.741923972E-1
2.352483875E0,4.695638689E-1,1.588805437E-2,2.190016150E-1,5.183670174E-1
2.362454875E0,8.350513192E-1,3.402907017E-1,-2.618225294E-1,9.389672541E-1
2.372425875E0,1.289281377E0,1.120160750E0,-8.389204949E-1,1.902838451E0
2.382396875E0,9.182514969E-1,1.480207732E0,-7.616588956E-1,1.901137821E0
2.392366875E0,8.536544551E-1,4.128020230E-1,1.454261005E-1,9.593123525E-1
2.402337875E0,5.721766564E-1,2.732058889E-1,-8.350092924E-1,1.048459872E0
2.412308875E0,7.101398094E-1,9.235031006E-1,-1.122211077E0,1.617564288E0
2.422279875E0,8.704020502E-1,3.442165223E-1,-3.264576513E-1,9.912917538E-1
2.432249875E0,5.147752713E-1,-3.192796093E-1,6.712498319E-1,9.041622563E-1
2.442220875E0,5.235363007E-1,3.960450724E-1,6.294831705E-1,9.095004230E-1
2.452191875E0,3.396141788E-1,5.136007118E-1,-2.984529966E-1,6.842497153E-1
2.462162875E0,5.356183293E-1,2.380755249E-1,-5.153700793E-1,7.804955277E-1
2.472133875E0,3.571294402E-1,2.000072274E-1,-9.763440961E-1,1.058674701E0
2.482103875E0,1.629714020E-1,3.196979776E-1,-5.192660791E-1,6.311923127E-1
2.492074875E0,4.190625637E-1,-1.144121763E-1,5.974948078E-1,7.387175535E-1
2.502045875E0,2.971188082E-1,-7.300362763E-1,2.203558302E-1,8.184065266E-1
2.512016875E0,4.139338978E-1,-1.924570101E-1,-6.621433783E-1,8.042479878E-1
2.521986875E0,1.292453930E-1,-4.519517630E-2,-4.999486327E-1,5.183585737E-1
2.531957875E0,1.019301981E-1,-1.782354122E-1,6.186494493E-1,6.518318561E-1
2.541928875E0,-1.178046577E-1,2.007258502E-1,1.308725561E0,1.329259719E0
2.551899875E0,-2.274892871E-1,5.422202012E-1,5.581833923E-1,8.107544769E-1
2.561869875E0,-1.419212063E-1,2.081483057E-1,-9.873023629E-2,2.705827148E-1
2.571840875E0,-2.370398368E-1,7.827258289E-2,-1.304807927E0,1.328472133E0
2.581811875E0,-1.532667781E-1,9.138028622E-3,-1.000187287E0,1.011903562E0
2.591782875E0,-4.005917942E-1,9.799784330E-1,-1.117895831E0,1.539650157E0
2.601752875E0,-6.435324217E-1,1.097235280E0,2.130269301E-1,1.289744048E0
2.611723875E0,-2.281769197E-1,-6.706870374E-1,-2.191185594E-2,7.087777778E-1
2.621694875E0,-6.415565014E-1,6.404010916E-1,6.281195998E-2,9.086548547E-1
2.631665875E0,-2.725324358E-1,4.776511529E-1,-2.587287676E-1,6.077541671E-1
2.641635875E0,-2.437669122E-1,-6.413676363E-1,1.120400779E0,1.313800844E0
2.651606875E0,9.123096295E-2,3.403249079E-1,5.621074587E-1,6.634070596E-1
2.661577875E0,3.328186910E-1,1.069096139E0,-5.208822495E-1,1.234930425E0
2.671548875E0,5.412548259E-3,1.151606492E0,-6.690752524E-1,1.331874056E0
2.681518875E0,1.669882929E-1,3.049743962E-1,-3.581361115E-2,3.495383914E-1
2.691489875E0,-1.170372838E-1,-6.711527681E-1,-1.213414192E-2,6.813890235E-1
2.701460875E0,-1.968790401E-1,-6.141611266E-1,-1.818793970E-1,6.701010080E-1
2.711431875E0,-4.710611947E-1,3.862278897E-1,-1.967640692E-1,6.401458668E-1
2.721401875E0,-2.187246032E-1,-2.541226235E-1,5.715132898E-1,6.626056144E-1
2.731372875E0,-1.599565045E-1,-8.116175061E-1,6.112632465E-1,1.028567847E0
2.741343875E0,5.602217317E-3,-2.539603633E-1,4.539462483E-1,5.201869349E-1
2.751314875E0,8.925135154E-1,4.965139782E-1,1.295574004E0,1.649732859E0
2.761284875E0,9.840514572E-1,4.834489596E-1,1.663805918E0,1.992568769E0
2.771255875E0,1.317176542E0,-2.294792408E-1,1.875823034E0,2.303546574E0
2.781226875E0,1.080468389E0,-6.945001155E-2,-8.116683769E-1,1.353159561E0
2.791197875E0,9.387638949E-1,-3.956407374E-1,-3.351863748E-1,1.072454731E0
2.801168875E0,1.215807604E0,-5.323413303E-1,-7.379548681E-1,1.518602255E0
2.811138875E0,-2.279243200E-1,-1.151444816E0,-8.423370230E-1,1.444751300E0
2.821109875E0,-1.970957525E-2,-1.918004848E0,2.313661373E-1,1.932009667E0
2.831080875E0,-1.194901688E0,-4.551653928E-1,-4.402240026E-1,1.352317548E0
2.841051875E0,-1.181808822E0,3.506212699E-1,6.382674426E-1,1.388161624E0
2.851021875E0,-6.959783647E-1,-3.998782146E-1,5.049380618E-1,9.482884144E-1
2.860992875E0,-6.750623627E-1,-7.570352098E-1,2.772322816E-1,1.051508079E0
2.870963875E0,-2.947095361E-1,4.207647613E-1,-8.540677071E-2,5.207600325E-1
2.880934875E0,-5.730764698E-1,1.083135304E0,1.578514338E-1,1.235522481E0
2.890904875E0,-8.266778871E-1,1.353062074E0,5.112629950E-2,1.586438528E0
2.900875875E0,-9.796232877E-1,-1.874532554E-1,-3.094539481E-1,1.044299887E0
2.910846875E0,-1.452513418E0,-7.417523423E-1,-1.212178091E0,2.032084519E0
2.920817875E0,-6.989800329E-1,7.836990979E-1,-1.032782006E0,1.472886973E0
2.930787875E0,-4.412511391E-1,1.808710447E0,-1.035595686E0,2.130397727E0
2.940758875E0,4.063815609E-1,9.407439083E-1,3.424193805E-1,1.080461062E0
2.950729875E0,1.271517097E0,2.623142803E-1,5.482863951E-1,1.409319865E0
2.960700875E0,1.551521105E0,-4.092612416E-2,2.345183712E-1,1.569678806E0
2.970670875E0,1.693690014E0,4.174140143E-1,-1.241059828E-1,1.748777464E0
2.980641875E0,1.391190890E0,3.812925473E-1,-5.772254348E-2,1.443650925E0
2.990612875E0,1.001525569E0,3.443995401E-1,-6.426043224E-1,1.238791679E0
3.000583875E0,-1.361012533E-1,-2.558250403E-1,-9.120872891E-1,9.570126568E-1
3.010553875E0,-6.936774854E-1,-2.155800876E0,-2.556823683E-1,2.279043515E0
3.020524875E0,-1.087455008E0,-7.158813366E-1,-2.605987072E-1,1.327763596E0
3.030495875E0,-2.019532977E0,5.646363795E-2,2.859463871E-1,2.040457528E0
3.040466875E0,-1.560495119E0,-1.578938261E-1,1.233979434E0,1.995690538E0
3.050436875E0,-1.284400852E0,1.024238347E0,1.370751071E-1,1.648496080E0
3.060407875E0,-8.433290032E-1,7.791835856E-1,-1.330948489E0,1.757769822E0
3.070378875E0,-4.070194191E-1,8.975902873E-1,-9.135999638E-1,1.343874259E0
3.080349875E0,-3.930549890E-1,8.156953543E-1,-2.138192278E-1,9.303600366E-1
3.090319875E0,-3.407647282E-1,7.781407347E-1,-2.520892543E-1,8.860996530E-1
3.100290875E0,-3.258572518E-1,7.948462299E-1,8.763689876E-2,8.635066321E-1
3.110261875E0,2.570677198E-1,1.167695105E0,-3.927112824E-1,1.258498241E0
3.120232875E0,-1.770544209E-1,1.182783553E0,-9.715049404E-1,1.540826743E0
3.130203875E0,1.818700780E-1,1.324562160E0,-1.554443105E0,2.050325586E0
3.140173875E0,-2.520166392E-1,2.745735526E-1,-7.517788553E-1,8.390914548E-1
3.150144875E0,-4.942493516E-1,9.071341127E-2,-3.297385240E-1,6.010314790E-1
3.160115875E0,-5.751610387E-1,4.576074824E-1,-2.252347469E-1,7.687298093E-1
3.170086875E0,-5.181243737E-1,-3.302498630E-1,6.312654018E-3,6.144572306E-1
3.180056875E0,6.187137687E-1,-6.809065086E-1,6.344503802E-1,1.117572229E0
3.190027875E0,1.016333058E-1,-7.720891589E-1,1.054861093E0,1.311176160E0
3.199998875E0,8.095565088E-1,-8.154661435E-1,1.354979961E0,1.776608417E0
3.209969875E0,5.617567354E-1,-1.222300498E0,1.427224649E0,1.961264729E0
3.219939875E0,5.663401485E-1,-9.606025144E-1,3.330258286E-1,1.163788880E0
3.229910875E0,2.343622506E-1,-5.943209392E-1,-1.617205364E-1,6.590118171E-1
3.239881875E0,-6.407392068E-1,-1.241707115E0,1.575140494E-1,1.406127293E0
3.249852875E0,-3.330938390E-1,-4.141702715E-1,5.157162344E-1,7.405752857E-1
3.259822875E0,-1.183141622E0,-7.857131714E-1,4.784647930E-1,1.498698717E0
3.269793875E0,-2.245730614E-1,-2.432082108E-1,-9.575751185E-2,3.446052738E-1
3.279764875E0,-4.117053777E-1,-6.392760873E-2,1.795504510E-1,4.536809690E-1
3.289735875E0,-3.147164422E-1,-5.201943246E-1,5.748742694E-1,8.367371152E-1
3.299705875E0,-3.125007860E-2,-2.414777273E-1,4.263836432E-1,4.910102558E-1
3.309676875E0,-2.803970870E-1,-4.587409651E-1,-2.261252779E-1,5.832653262E-1
3.319648708E0,7.400673940E-1,-8.985226259E-1,-5.414778972E-1,1.283838374E0
3.329619708E0,7.824984453E-1,-3.317505509E-2,-1.290638369E-1,7.937643700E-1
3.339589708E0,1.491686693E0,9.194588739E-1,6.187541145E-1,1.858330021E0
3.349560708E0,8.755812945E-1,1.064850183E0,4.220976341E-1,1.441774923E0
3.359531708E0,1.311520531E0,1.099038561E0,-1.303531480E-1,1.716089684E0
3.369502708E0,1.891870717E0,1.247591460E0,-1.453206752E0,2.692112391E0
3.379472708E0,1.980662734E0,1.189776823E0,-1.417907696E0,2.710914234E0
3.389443708E0,1.600131201E0,7.799948868E-1,-7.345213830E-1,1.925703390E0
3.399414708E0,1.142348010E0,6.907587746E-1,-2.937682074E-1,1.366896639E0
3.409385708E0,7.712545419E-1,8.285498732E-1,-2.230537355E-1,1.153725023E0
3.419355708E0,3.852024342E-1,1.051019180E0,-5.000281549E-1,1.225989554E0
3.429326708E0,-3.364120974E-1,2.332889941E-1,1.411886233E-1,4.330485901E-1
3.439297708E0,-1.219662600E0,-3.228224373E-1,7.098180664E-1,1.447630088E0
3.449268708E0,-1.047340769E0,-2.095376042E-1,2.431999662E0,2.656209903E0
3.459238708E0,-9.185696585E-1,1.161137453E0,1.458445272E0,2.078237959E0
3.469209708E0,-7.506481500E-1,4.095366454E-1,-7.524781823E-2,8.584026696E-1
3.479180708E0,-5.781232747E-1,-2.828640273E-1,-2.573903400E0,2.653152331E0
3.489151708E0,-2.743374713E-2,-3.524485248E-1,-1.938194699E0,1.970170364E0
3.499121708E0,-5.716140812E-1,-4.107452649E-1,-9.657085955E-1,1.195009382E0
3.509092708E0,-4.340998482E-1,-6.843426248E-1,7.861289084E-2,8.142158762E-1
3.519063708E0,-8.043102407E-1,-3.584328577E-1,1.257706851E-1,8.894983654E-1
3.529034708E0,-5.598012438E-1,-1.974385455E-1,6.678631246E-1,8.935326323E-1
3.539004708E0,-4.383819835E-1,4.477987781E-1,-2.461034596E-2,6.271428691E-1
3.548975708E0,-2.065721887E-1,1.107485449E0,-2.536925608E-1,1.154796953E0
3.558946708E0,2.983695276E-2,2.193682355E-1,-3.687488079E-2,2.244380166E-1
3.568917708E0,-3.647936051E-1,-1.625993729E-1,-5.833655959E-1,7.069853951E-1
3.578887708E0,-5.388831221E-1,-4.720363641E-1,-6.200586283E-1,9.474629549E-1
3.588858708E0,-5.305234310E-1,-1.495542347E-1,-3.357570630E-1,6.454102458E-1
3.598829708E0,-6.401948310E-2,-3.331208459E-1,1.294067761E0,1.337788983E0
3.608800708E0,-7.388205484E-2,2.839779219E-1,1.317465979E0,1.349747615E0
3.618770708E0,1.700224131E-1,5.358306563E-1,1.541544732E0,1.640848035E0
3.628741708E0,2.913898525E-1,3.324323362E-1,4.507817352E-1,6.313663572E-1
3.638712708E0,4.720318325E-1,9.571491489E-1,-7.391091084E-1,1.298164403E0
3.648683708E0,4.275174183E-1,2.469410732E-1,-1.175078092E0,1.274582112E0
3.658653708E0,-1.646049678E-2,2.011179060E-1,-1.202774599E0,1.219584394E0
3.668624708E0,3.084401140E-1,-3.127090931E-3,-1.632004666E-1,3.489691605E-1
3.678595708E0,8.340833858E-3,-6.908549613E-1,5.868294865E-1,9.064871721E-1
3.688566708E0,1.246445844E-1,-5.261681324E-1,2.464268106E-1,5.942350957E-1
3.698537708E0,-5.194755556E-1,-1.784298906E0,3.323107141E-1,1.887858006E0
3.708507708E0,-1.990300114E-1,-1.511541791E0,6.521691978E-1,1.658220792E0
3.718478708E0,2.660078202E-1,-7.233122706E-1,1.231720655E0,1.452954429E0
3.728449708E0,2.084787465E-1,-1.090330303E-1,1.004544632E0,1.031727439E0
3.738420708E0,5.620600232E-1,-2.217001051E-1,6.792920923E-1,9.091205382E-1
3.748390708E0,-8.356423996E-2,-5.875849468E-1,2.710804260E-1,6.524750181E-1
3.758361708E0,2.857168838E-1,-2.855841520E-1,3.491536188E-1,5.339482139E-1
3.768332708E0,6.188247196E-2,-4.357134604E-1,3.081570357E-1,5.372489354E-1
3.778303708E0,2.633056757E-1,-4.101532343E-1,-3.646966875E-2,4.887592364E-1
3.788273708E0,2.317648443E-1,-3.195485812E-1,-2.547982693E-1,4.698386924E-1
3.798244708E0,5.079580025E-1,-5.272153687E-1,3.057339495E-1,7.933792443E-1
3.808215708E0,4.138092790E-1,-1.750279221E-1,4.477750969E-1,6.343306947E-1
3.818186708E0,-2.303308877E-1,5.807837579E-1,-1.899620032E-1,6.530295965E-1
3.828156708E0,2.528562628E-2,3.363397381E-1,4.282605994E-1,5.451338581E-1
3.838127708E0,-9.374511950E-2,2.248488307E-1,6.989176869E-2,2.534363893E-1
3.848098708E0,1.730197690E-1,6.340191481E-1,-2.989874321E-1,7.220177319E-1
3.858069708E0,5.358337261E-2,1.442367768E-1,-4.968215418E-1,5.201029417E-1
3.868039708E0,-1.136096460E-1,5.521502352E-1,-5.237321824E-1,7.694624310E-1
3.878010708E0,-9.609738126E-2,6.713650221E-1,-7.613220960E-1,1.019596505E0
3.887981708E0,7.758224599E-2,1.187762749E0,-1.425729516E0,1.857284041E0
3.897952708E0,4.221020926E-1,3.474754679E-1,-2.018119705E-1,5.827842215E-1
3.907922708E0,-9.595551319E-2,-6.626678735E-2,8.790376568E-1,8.867389411E-1
3.917893708E0,-4.134167115E-1,3.583515814E-1,9.520857525E-1,1.098087662E0
3.927864708E0,-4.652185106E-1,7.296410045E-1,8.830500162E-1,1.236358196E0
3.937835708E0,4.233474033E-1,1.391050557E0,5.512521029E-2,1.455088817E0
3.947805708E0,6.725940337E-1,9.784765756E-1,-1.300623659E0,1.761085190E0
3.957776708E0,4.576927786E-1,-8.476708531E-2,-1.481232457E0,1.552648617E0
3.967747708E0,6.002530126E-1,-6.446362299E-1,-1.406087549E0,1.659199127E0
3.977718708E0,-4.732599670E-1,-5.605585313E-1,-1.154216396E0,1.367631658E0
3.987688708E0,6.920574412E-2,-3.447629446E-1,-1.942757281E0,1.974324385E0
3.997659708E0,3.180359796E-1,-1.040389819E0,-1.529302416E0,1.876785481E0
4.007630708E0,4.450948063E-1,-1.702204291E0,2.708482915E-1,1.780159440E0
4.017601708E0,-2.845336998E-1,-1.031152972E0,5.252554405E0,5.360369732E0
4.027571708E0,-2.351477509E-1,5.461047989E-1,5.748028164E0,5.778698183E0
4.037542708E0,-1.591809444E-1,2.390418065E0,1.747840347E0,2.965532495E0
4.047513708E0,7.638665850E-1,2.402462160E0,-2.560616187E0,3.593337146E0
4.057484708E0,1.565900432E0,1.340278307E-1,-3.238379232E0,3.599598266E0
4.067454708E0,8.105188874E-1,-5.719415984E-1,-2.817856838E0,2.987369281E0
4.077425708E0,-2.736186292E-1,3.521427155E-2,-2.001032971E0,2.019960433E0
4.087396708E0,-1.283636913E0,1.627777129E-2,-3.458084267E-1,1.329500718E0
4.097367708E0,-5.091012794E-1,-8.346485192E-1,5.253068376E-1,1.109851133E0
4.107337708E0,-1.036206940E0,-1.232247489E0,1.740033145E0,2.370627352E0
4.117308708E0,-5.564064234E-3,-4.085496354E-1,2.142703405E0,2.181311909E0
4.127279708E0,-8.232718840E-2,5.433016437E-1,2.062618185E0,2.134560428E0
4.137250708E0,7.702736715E-1,4.129052263E-1,1.909366756E0,2.099879440E0
4.147220708E0,6.616270691E-1,-8.075323489E-1,5.985847288E-1,1.203396257E0
4.157191708E0,4.241672561E-1,-1.423306722E0,-5.896297181E-1,1.597930878E0
4.167162708E0,3.238810026E-1,-4.620086816E-1,-7.715915608E-1,9.558788953E-1
4.177133708E0,-6.351033680E-2,-7.784819198E-1,-4.020843691E-1,8.784870529E-1
4.187103708E0,3.667131729E-1,-9.110166639E-1,-4.003038919E-1,1.060506067E0
4.197074708E0,-4.639813129E-1,-1.108766866E0,1.216308564E-1,1.208071474E0
4.207045708E0,-6.467759454E-1,-8.375490305E-1,-1.775331616E-2,1.058358485E0
4.217016708E0,-1.384704282E0,2.337146714E-1,1.505254573E-1,1.412333675E0
4.226986708E0,-1.161890940E0,7.331709686E-1,2.216474801E-1,1.391638542E0
4.236957708E0,-1.489550706E0,7.868606874E-1,3.811320412E-1,1.727186347E0
4.246928708E0,-1.051268856E0,9.425243855E-1,5.969954556E-1,1.532945530E0
4.256899708E0,-9.254490539E-2,4.522347683E-1,-7.203301907E-2,4.671933229E-1
4.266869708E0,-4.800192752E-1,-2.215643035E0,-6.181875193E-1,2.349818795E0
4.276840708E0,3.610414468E-1,-1.902401553E0,-9.426448381E-1,2.153616002E0
4.286811708E0,3.845611408E-1,4.608877704E-1,-6.730735785E-1,9.018496826E-1
4.296782708E0,1.439701146E0,1.701067007E0,6.120187068E-1,2.311046354E0
4.306752708E0,9.760316355E-1,1.142024074E0,1.176256306E0,1.907992568E0
4.316723458E0,9.771085464E-1,7.395646065E-1,-3.558393252E-1,1.276055855E0
4.326694458E0,7.424004330E-1,1.161116403E0,-1.120070996E0,1.775924756E0
4.336665458E0,1.230344220E0,2.313371351E0,-1.221227242E0,2.890818203E0
4.346635458E0,1.034215524E0,1.578085737E0,-1.572697527E0,2.456284563E0
4.356606458E0,6.855367725E-1,-7.909870675E-1,-1.314554066E0,1.680379005E0
4.366577458E0,9.018226482E-2,-1.607276207E0,3.523040986E-1,1.647904070E0
4.376548458E0,-8.539911085E-1,-5.807007274E-1,3.692663450E0,3.834354900E0
4.386518458E0,-8.080968245E-1,1.713766283E-1,3.722802338E0,3.813351239E0
4.396489458E0,-4.010508006E-1,7.866516495E-1,6.116064781E-1,1.074115937E0
4.406460458E0,3.490808210E-1,1.911945963E-1,-1.564039555E0,1.613887395E0
4.416431458E0,-3.736370802E-4,-1.128046598E0,-1.436593058E0,1.826551089E0
4.426401458E0,-5.736817297E-1,-7.231918180E-1,-9.705974525E-1,1.339468756E0
4.436372458E0,-8.505973115E-1,5.569686332E-1,-1.880505484E-1,1.033969464E0
4.446343458E0,-7.721135710E-1,4.670495662E-1,-3.379374897E-1,9.635851861E-1
4.456314458E0,-4.702588836E-1,7.942118070E-1,-1.378418525E0,1.658901275E0
4.466284458E0,9.517337501E-2,-7.046216458E-2,-1.280302831E0,1.285767563E0
4.476255458E0,1.990406826E-1,-3.779178268E-1,-2.559174263E-1,4.979285152E-1
4.486226458E0,1.467879901E-1,1.085067224E0,2.796273011E-1,1.130092484E0
4.496197458E0,-1.057492340E-1,1.014418826E0,9.011138195E-1,1.360968247E0
4.506167458E0,-2.917866591E-1,7.916013175E-1,1.042309459E0,1.340962755E0
4.516138458E0,-3.975277070E-1,3.321642414E-1,5.861810303E-1,7.822848339E-1
4.526109458E0,-4.069130728E-1,2.991116855E-1,-8.359881163E-2,5.118933586E-1
4.536080458E0,-5.282327112E-1,2.013933098E-1,-9.188729829E-1,1.078849675E0
4.546050458E0,-7.676555076E-1,-4.169555926E-1,-2.758523387E-1,9.161012266E-1
4.556021458E0,-5.121398581E-1,-1.033646225E0,1.926248252E-2,1.153725615E0
4.565992458E0,-4.840151893E-1,-8.455933374E-1,-1.922739923E-2,9.745093579E-1
4.575963458E0,-9.309293568E-2,-1.358653182E-1,-5.531664813E-1,5.771644786E-1
4.585933458E0,1.113236039E-1,-6.312683254E-2,-1.775483644E-1,2.188638012E-1
4.595904458E0,-3.675011583E-2,-1.872986550E0,2.547437732E0,3.162098700E0
4.605875458E0,-6.121618905E-1,-1.585600578E0,2.463296884E0,2.992775119E0
4.615846458E0,-5.504095922E-1,-1.393762496E0,1.351661666E0,2.018047044E0
4.625816458E0,-4.283980089E-1,-4.965440914E-1,-3.862144411E-1,7.610798140E-1
4.635787458E0,2.429841893E-1,-6.711825889E-1,-4.850586981E-1,8.630233627E-1
4.645758458E0,2.624961287E-1,-1.249641786E0,3.214208597E-1,1.316746058E0
4.655729458E0,3.555193363E-1,-5.380888510E-1,-7.296448052E-2,6.490434696E-1
4.665699458E0,1.255363579E-1,-2.473079860E-3,7.439003170E-2,1.459430372E-1
4.675670458E0,1.351784165E-1,1.679101065E-1,7.958996058E-2,2.297859221E-1
4.685641458E0,2.748409896E-1,-5.780159783E-1,-3.789983922E-1,7.438278175E-1
4.695612458E0,9.166548416E-2,-8.608419988E-1,1.509166360E-3,8.657099892E-1
4.705582458E0,-2.717116329E-1,-1.347710118E-1,-8.572608715E-1,9.093330737E-1
4.715553458E0,-1.033857455E0,-5.787810865E-1,-1.693207473E-1,1.196878565E0
4.725524458E0,1.551101129E-1,1.120072165E-1,1.974984795E0,1.984230255E0
4.735495458E0,-8.116965166E-1,3.378892502E-1,2.553229984E0,2.700371036E0
4.745465458E0,-7.282304368E-1,8.433363122E-1,6.895305669E-1,1.310338928E0
4.755436458E0,-8.399981368E-1,8.256104779E-1,-1.219969506E0,1.695746186E0
4.765407458E0,3.231240805E-2,5.066986585E-1,-1.487230530E0,1.571509552E0
4.775378458E0,-1.038132939E-1,-2.853236586E-1,-1.529835098E0,1.559673753E0
4.785348458E0,-2.214631467E-1,6.081727007E-1,-1.690500212E0,1.810168756E0
4.795319458E0,2.849036458E-1,6.933406126E-1,-3.514404649E-1,8.278899038E-1
4.805290458E0,1.224146026E-1,1.317216303E0,4.482662630E-1,1.396777279E0
4.815261458E0,1.507665087E-1,1.138114626E0,1.511247969E-1,1.157961203E0
4.825231458E0,-2.151571804E-1,9.077232197E-1,1.342532408E-1,9.424850071E-1
4.835202458E0,-5.455937888E-1,5.441360414E-2,-4.539602816E-2,5.501765372E-1
4.845173458E0,-5.781511952E-1,-3.380863014E-1,-1.357477891E0,1.513706503E0
4.855143458E0,-7.420109354E-1,-5.590388399E-1,-8.349818105E-1,1.249119400E0
4.865114458E0,-7.714575134E-1,3.851829922E-1,-1.057632673E-1,8.687338495E-1
4.875085458E0,-1.099043970E0,3.554390833E-1,8.063363010E-1,1.408691882E0
4.885056458E0,-6.498576473E-1,-1.190253371E-1,5.177785474E-1,8.393906223E-1
4.895026458E0,-8.415016752E-1,-6.540455693E-1,3.547622681E-2,1.066376687E0
4.904997458E0,-9.031572752E-1,-7.375590116E-1,1.390152133E-1,1.174313241E0
4.914968458E0,-1.125373397E0,-1.391075993E-1,7.756857812E-2,1.136588356E0
4.924939458E0,-1.181368819E0,1.147594132E0,-1.745934740E0,2.400185971E0
4.934909458E0,-9.702198686E-1,9.152939022E-1,-1.570496051E0,2.060472607E0
4.944880458E0,-2.402007319E-1,-4.236728740E-1,-1.174693930E-1,5.009931677E-1
4.954851458E0,-5.271859499E-1,-4.202151230E-1,1.025106951E0,1.226927071E0
4.964822458E0,-3.101040489E-1,-1.614615047E-1,7.488429683E-1,8.264382190E-1
4.974792458E0,-2.656412363E-1,-6.009353095E-1,2.825918394E-1,7.152249020E-1
4.984763458E0,3.103281800E-1,-2.871710864E-1,-5.201683044E-2,4.260006605E-1
4.994734458E0,-4.964030273E-2,-4.818342510E-1,9.044841546E-1,1.026021438E0
5.004705458E0,-2.532885182E-1,-4.619300365E-3,6.861374277E-1,7.314102686E-1
5.014675458E0,-5.629026800E-1,3.282360819E-1,7.716710830E-1,1.009987432E0
5.024646458E0,-3.735649036E-1,-1.513224328E-1,6.567949301E-1,7.706028783E-1
5.034617458E0,7.925425731E-3,-6.556462446E-1,3.028577042E-1,7.222586790E-1
5.044588458E0,6.851727102E-2,-3.537770122E-1,-7.197735357E-1,8.049389626E-1
5.054558458E0,5.444031861E-2,2.080293149E-2,-1.522012693E0,1.523128080E0
5.064529458E0,1.894401027E-1,-1.183301616E0,-9.505912042E-1,1.529612338E0
5.074500458E0,2.190568712E-1,-1.007802409E0,-7.000900537E-1,1.246506194E0
5.084471458E0,-3.353321166E-1,-1.344818085E0,6.969810891E-1,1.551375502E0
5.094441458E0,-3.272733744E-1,-6.810512272E-1,7.093988210E-1,1.036429121E0
5.104412458E0,-5.504128081E-1,1.855456012E-1,2.314608622E-1,6.252643922E-1
5.114383458E0,-2.537413850E-1,-1.862311873E-1,7.882947171E-1,8.488081683E-1
5.124354458E0,-2.941686686E-1,-3.746346152E-1,1.754147739E0,1.817668999E0
5.134324458E0,-2.815176328E-1,-4.532404894E-1,8.821232325E-1,1.030931868E0
5.144295458E0,-2.435066380E-1,5.372129381E-3,-4.711680526E-1,5.303995440E-1
5.154266458E0,1.323692679E-1,-5.324679226E-1,-1.100375819E0,1.229581496E0
5.164237458E0,-4.796156712E-2,-7.443406123E-1,-1.363385918E0,1.554079927E0
5.174207458E0,-1.712620229E-2,-6.585008553E-1,-3.557270586E-1,7.486377117E-1
5.184178458E0,7.941798665E-1,-3.057225475E-1,5.226638961E-1,9.986818736E-1
5.194149458E0,4.054397207E-1,-5.876445884E-1,1.123945946E0,1.331526199E0
5.204120458E0,7.496563891E-1,3.418194562E-2,1.059914841E0,1.298681092E0
5.214090458E0,5.116630176E-1,3.685207665E-2,1.176239934E0,1.283237118E0
5.224061458E0,6.922724725E-1,4.324901828E-1,1.767426181E-1,8.351807514E-1
5.234032458E0,1.121992975E0,1.546379794E0,-3.048171061E-1,1.934702089E0
5.244003458E0,1.422133771E0,5.255877963E-1,-3.409447128E-1,1.554011033E0
5.253973458E0,1.821722548E0,5.079256967E-1,-6.212701714E-1,1.990637632E0
5.263944458E0,1.558248473E0,3.980351722E-1,-6.318863761E-1,1.727961427E0
5.273915458E0,1.016306891E0,3.649709219E-1,-7.372660661E-1,1.307533833E0
5.283886458E0,9.055685207E-1,8.239171243E-1,-5.298770213E-1,1.334040266E0
5.293856458E0,8.758492432E-1,9.578712800E-1,-3.565304661E-1,1.346010126E0
5.303827458E0,5.009856364E-1,7.149583536E-1,2.396960807E-1,9.053210847E-1
5.313798208E0,3.981047541E-1,3.719016266E-1,3.239474416E-1,6.338297563E-1
5.323769208E0,3.109830681E-1,4.366229948E-1,-7.190478963E-1,8.968723351E-1
5.333739208E0,6.810043032E-1,2.733064610E-1,-1.052322816E0,1.282905527E0
5.343710208E0,9.086592127E-1,-3.806499383E-1,-3.432555324E-1,1.043254667E0
5.353681208E0,3.747196922E-1,-9.152196425E-1,2.852394587E-1,1.029273234E0
5.363651208E0,1.200719887E-1,-9.603849980E-1,3.803526074E-1,1.039915734E0
5.373622208E0,-1.567089609E-1,-7.582447064E-1,-3.606884211E-1,8.541597452E-1
5.383593208E0,1.437543084E-1,-1.558779985E-1,1.691289586E-1,2.712339511E-1
5.393564208E0,-3.676239498E-1,4.623948902E-2,7.411223048E-1,8.285817579E-1
5.403534208E0,-3.789335612E-1,8.356811374E-1,1.904765582E0,2.114257678E0
5.413505208E0,-2.539033529E-1,9.848450705E-1,1.379531250E0,1.713911665E0
5.423476208E0,1.318365866E-1,1.180473610E0,6.983768195E-1,1.377907476E0
5.433447208E0,-8.158093750E-2,7.157664388E-1,-5.830252880E-1,9.267661683E-1
5.443417208E0,-5.562864824E-1,6.040705866E-1,-1.848346383E0,2.022557855E0
5.453388208E0,-9.107250340E-2,3.273978835E-1,-2.501222509E0,2.524202372E0
5.463359208E0,-3.408559813E-1,-8.805015072E-1,-2.120389261E0,2.321102393E0
5.473330208E0,-6.687515359E-1,-1.873359602E0,3.273154378E-2,1.989416037E0
5.483300208E0,-1.031065629E0,-1.890194321E0,1.538966694E0,2.646573141E0
5.493271208E0,-3.213740820E-1,-1.837183464E-1,1.507058439E0,1.551856588E0
5.503242208E0,5.419126377E-2,9.251113772E-2,1.611979707E0,1.615541265E0
5.513213208E0,1.002611251E0,-1.286150047E0,4.580223423E-1,1.693870045E0
5.523183208E0,1.209432238E-1,-1.355178182E0,7.433682203E-1,1.550397200E0
5.533154208E0,5.008102199E-1,-1.213504239E0,1.450904118E0,1.956661998E0
5.543125208E0,-3.645950190E-1,-4.327085763E-1,1.890915867E0,1.973760131E0
5.553096208E0,-4.606215028E-1,7.278526336E-2,1.152687934E0,1.243446556E0
5.563066208E0,1.562025920E-1,-1.677729893E-1,9.040561384E-1,9.326652814E-1
5.573037208E0,4.882148058E-1,-7.128931171E-1,1.307342695E0,1.567072179E0
5.583008208E0,1.478179771E-1,1.945105523E-2,-2.845974344E-1,3.212852278E-1
5.592979208E0,-3.157408744E-2,-1.041549906E-1,-8.700113100E-1,8.767923726E-1
5.602949208E0,-8.439893000E-1,-7.407434052E-1,-1.556018345E0,1.918909018E0
5.612920208E0,-5.024087756E-1,-2.159864983E-1,-1.412217770E0,1.514405420E0
5.622891208E0,-3.731030832E-1,-3.946405712E-1,-2.078457123E-1,5.815040251E-1
5.632862208E0,-9.891996382E-1,-1.186265570E-1,4.423950738E-1,1.090092467E0
5.642832208E0,-3.725816578E-1,-6.207298887E-1,9.621955884E-1,1.204135805E0
5.652803208E0,-4.480418761E-1,-3.676200029E-1,1.173863626E-1,5.913252467E-1
5.662774208E0,3.551339317E-1,4.916909024E-1,-8.891422302E-1,1.076314990E0
5.672744208E0,-5.025360256E-2,6.784617877E-1,-1.267207991E0,1.438280889E0
5.682715208E0,-3.655463610E-1,1.380289049E0,-1.704925293E-1,1.438015891E0
5.692686208E0,-6.503800229E-1,1.333094125E0,1.111917638E0,1.853778561E0
5.702657208E0,-8.846722531E-1,1.871443177E0,2.900546408E-1,2.090233541E0
5.712627208E0,-5.207120955E-2,1.136079795E0,-1.222072749E0,1.669386269E0
5.722598208E0,2.049556529E-1,2.733380359E-1,-1.710583643E0,1.744367193E0
5.732569208E0,1.537865225E-1,3.387803659E-1,-2.080163925E0,2.113174008E0
5.742540208E0,-1.259785536E-1,8.152962819E-1,-1.484253128E0,1.698112473E0
5.752510208E0,-2.983237731E-1,2.706605959E-1,-9.093238950E-2,4.129442229E-1
5.762481208E0,-4.277263831E-1,-1.327667909E0,1.823717911E0,2.295996288E0
5.772452208E0,-5.660143489E-1,-1.556882856E0,1.468444011E0,2.213726334E0
5.782423208E0,-4.913985416E-1,-8.434351301E-1,5.576425248E-1,1.124197728E0
5.792393208E0,-2.265855268E-1,-7.177971768E-1,6.689436901E-1,1.007005188E0
5.802364208E0,-4.224993378E-2,-1.254757515E0,7.529757804E-1,1.463958334E0
5.812335208E0,6.684756204E-3,-4.467275682E-1,-8.874903917E-2,4.555069682E-1
5.822306208E0,-6.385187267E-1,6.316460556E-1,-4.085502201E-1,9.867097781E-1
5.832276208E0,1.486742288E-2,3.984649426E-1,-1.068707299E-1,4.128155807E-1
5.842247208E0,-4.112285373E-1,3.275452334E-1,3.665268660E-2,5.270087373E-1
5.852218208E0,1.096852872E-1,1.642690453E-1,4.182191759E-1,4.625175246E-1
5.862189208E0,-1.856073625E-1,2.112289113E-1,-1.712357104E-2,2.817107784E-1
5.872159208E0,7.082392450E-1,7.694263369E-1,-1.072512082E0,1.497965915E0
5.882130208E0,5.872226387E-1,5.455387884E-1,-3.451482761E-1,8.726799697E-1
5.892101208E0,1.136597420E0,-1.786128500E-1,5.244853038E-1,1.264452877E0
5.902071208E0,3.149396597E-1,5.846797577E-1,1.415558285E-1,6.790253757E-1
5.912042208E0,6.153967895E-1,2.538624224E-1,-3.956904387E-1,7.744225341E-1
5.922013208E0,7.830379971E-1,-1.357328495E0,-3.621069556E-1,1.608294313E0
5.931984208E0,6.507854542E-1,-1.762356353E0,-1.039076534E0,2.146881847E0
5.941954208E0,7.637474480E-1,-1.686987789E0,6.329727888E-2,1.852901646E0
5.951925208E0,1.025035615E0,-8.802810672E-1,9.015798426E-1,1.624327240E0
5.961896208E0,5.356850606E-1,3.540831140E-1,1.538400684E0,1.667036292E0
5.971867208E0,5.271207169E-1,-6.258771926E-1,1.240734723E0,1.486270891E0
5.981837208E0,2.061967975E-1,-8.595699370E-2,7.570594758E-1,7.893318529E-1
5.991808208E0,8.513538681E-2,-1.006472459E-1,3.413458318E-1,3.659164919E-1
6.001779208E0,-1.781070659E-1,-4.381956035E-1,1.428416312E-2,4.732246307E-1
6.011750208E0,-4.211413220E-2,-1.033293638E0,-1.001160264E-2,1.034199968E0
6.021720208E0,3.709553278E-1,-5.237669733E-1,7.624979711E-1,9.966658685E-1
6.031691208E0,1.706212411E-1,4.804364741E-2,6.908093530E-1,7.131881674E-1
6.041662208E0,3.989116699E-1,2.542521393E-1,5.062601173E-1,6.928737093E-1
6.051633208E0,2.510936196E-1,2.482838863E-1,3.160782588E-1,4.739180938E-1
6.061603208E0,6.086360195E-1,-8.783394992E-2,4.505221188E-2,6.165892545E-1
6.071574208E0,4.896043966E-1,-8.430515528E-3,-5.000123674E-1,6.998542036E-1
6.081545208E0,9.807335278E-1,1.910340902E-1,-7.308978635E-1,1.237959597E0
6.091516208E0,6.976869211E-1,-2.470477849E-2,-6.084548289E-1,9.260640608E-1
6.101486208E0,1.120411523E0,-1.282352865E-2,-2.431014991E-1,1.146553428E0
6.111457208E0,3.790170302E-1,-2.603516623E-1,7.894588977E-1,9.136094617E-1
6.121428208E0,1.796243452E-1,-3.019481698E-1,1.267698573E0,1.315483666E0
6.131399208E0,-1.672067595E-1,5.927907228E-3,8.294608694E-1,8.461669897E-1
6.141369208E0,-7.644869015E-3,1.360028739E0,-4.763691509E-1,1.441063560E0
6.151340208E0,-1.853600983E-1,1.008425137E0,-1.137400389E-1,1.031608656E0
6.161311208E0,-1.616300507E-1,3.565132168E-1,-2.356831366E-1,4.569162811E-1
6.171281208E0,-2.293002429E-1,5.491652316E-1,-1.419251386E0,1.538972238E0
6.181252208E0,-2.999918376E-1,2.323645493E-1,-2.639901507E0,2.667033625E0
6.191223208E0,-3.394025096E-1,1.270860162E-1,-3.652303044E0,3.670240107E0
6.201194208E0,-8.748653761E-1,-1.361779103E0,4.162890100E-1,1.671265476E0
6.211164208E0,-9.387739082E-1,-1.238773566E0,4.139824004E0,4.421990410E0
6.221135208E0,-9.446993304E-1,1.177267874E0,2.915479027E0,3.283052609E0
6.231106208E0,-6.396296977E-1,1.779548044E0,-7.056875932E-1,2.018393512E0
6.241077208E0,-4.236103088E-2,4.747181895E-1,-2.343171685E0,2.391151472E0
6.251047208E0,-6.674614940E-1,-1.134553964E0,-1.585704659E0,2.060867974E0
6.261018208E0,-3.720654217E-1,-8.586875921E-1,1.586694592E-1,9.491854699E-1
6.270989208E0,-4.952372387E-2,1.322244324E0,3.617204547E-2,1.323665769E0
6.280960208E0,-1.331329143E-1,1.777915501E0,-2.696437651E-1,1.803168229E0
6.290930208E0,-5.469579808E-1,-3.322823551E-1,4.100359976E-2,6.412923604E-1
6.300901208E0,-5.376692402E-1,-5.243481866E-1,4.885196650E-1,8.959244922E-1
6.310872208E0,-4.587805800E-1,3.785458177E-1,7.917498368E-1,9.902748915E-1
6.320842250E0,1.446854775E-1,5.158860961E-1,1.684730764E0,1.767877286E0
6.330813250E0,-2.854888424E-2,2.461908755E-1,9.025118887E-1,9.359234452E-1
6.340784250E0,-9.782106735E-2,-1.242321949E0,7.833503115E-1,1.471927477E0
6.350755250E0,-5.882237551E-1,-1.398787008E0,6.529878080E-1,1.651970144E0
6.360725250E0,-7.754694343E-2,-3.962158111E-1,2.859832245E-1,4.947594386E-1
6.370696250E0,3.335215263E-2,-1.063137826E-1,-1.044172967E0,1.050101029E0
6.380667250E0,1.895664391E-1,-1.696611722E0,-1.511183649E0,2.279934822E0
6.390638250E0,-9.237782121E-2,-2.972304023E0,-1.187606921E0,3.202114156E0
6.400608250E0,-1.552579743E-1,-7.938177046E-1,3.307348895E-1,8.738633497E-1
6.410579250E0,1.079914950E-1,8.546354717E-1,2.824296377E0,2.952746853E0
6.420550250E0,-6.525219311E-1,6.061866939E-1,3.783133909E0,3.886560093E0
6.430521250E0,-4.942417502E-1,-4.779715803E-1,1.116767904E0,1.311450453E0
6.440491250E0,-4.449783736E-1,-2.308061202E0,-1.167769073E0,2.624659382E0
6.450462250E0,-2.149320991E-1,-1.658552780E0,-3.197912407E0,3.608827634E0
6.460433250E0,-5.585740594E-1,-8.211315107E-1,-1.580598285E0,1.866695711E0
6.470404250E0,-1.022125456E0,-9.181476358E-1,9.148904443E-2,1.376991566E0
6.480374250E0,-1.173619724E0,-1.115936430E0,-2.507753849E-1,1.638775660E0
6.490345250E0,-1.277976370E0,-8.976633775E-1,-1.869296372E-1,1.572884557E0
6.500316250E0,-1.093908945E0,1.123688668E-2,7.772423100E-1,1.341964476E0
6.510286250E0,-4.414913135E-1,4.439410776E-1,2.865515739E-1,6.885565080E-1
6.520257250E0,-2.015623236E0,-3.526718885E-1,2.560755351E0,3.277892990E0
6.530228250E0,-1.403093483E0,2.952066225E-1,4.209144500E0,4.446652189E0
6.540199250E0,-1.050254948E0,2.606245227E0,1.934692801E0,3.411537172E0
6.550169250E0,-4.224848294E-1,2.980748572E0,-2.440820771E0,3.875688522E0
6.560140250E0,-1.506337038E-1,5.955482697E-1,-3.121882816E0,3.181748037E0
6.570111250E0,-2.944396505E-1,-8.399314785E-1,-1.828655300E0,2.033755099E0
6.580082250E0,-5.770057622E-1,-1.210174835E-1,-2.008336728E0,2.093083203E0
6.590052250E0,-3.130386933E-1,8.285013413E-1,-6.990615284E-1,1.128314990E0
6.600023250E0,-6.207575168E-1,9.551985177E-1,9.136812401E-1,1.460327878E0
6.609994250E0,-2.109093609E-1,1.023107788E0,2.381907150E0,2.600906376E0
6.619965250E0,1.357002805E0,1.669746397E0,-3.563936412E-2,2.151924675E0
6.629935250E0,9.097378778E-1,-4.646519154E-2,-8.394198471E-1,1.238712114E0
6.639906250E0,1.488577729E0,-1.097414789E0,-1.350424395E0,2.289940812E0
6.649877250E0,1.154222097E0,-1.247055855E0,-2.367399623E0,2.914096418E0
6.659848250E0,4.574085309E-1,-4.465407497E-1,-3.243287385E0,3.305682118E0
6.669818250E0,7.943349639E-1,5.950781536E-1,-1.744738984E0,2.007286767E0
6.679789250E0,6.019560872E-1,-5.004140711E-1,2.013465321E0,2.160279605E0
6.689760250E0,-1.298388854E-1,-1.271106330E0,4.671172185E0,4.842769767E0
6.699730250E0,2.709095411E-1,9.974107370E-1,3.142944487E0,3.308522360E0
6.709701250E0,5.054814874E-1,1.556440514E0,5.506387299E-1,1.726621446E0
6.719672250E0,1.549287615E0,2.166804166E0,-1.630357506E0,3.123043068E0
6.729643250E0,2.198269788E0,8.279677829E-1,-1.281103899E0,2.675658407E0
6.739613250E0,1.706114616E0,1.227731100E-1,-7.962223721E-1,1.886761879E0
6.749584250E0,4.025859140E-1,-9.455818945E-1,-1.510791886E-1,1.038761502E0
6.759555250E0,-4.264097364E-1,-1.673652629E0,1.777407378E-1,1.736240236E0
6.769526250E0,6.034180373E-3,-1.312995783E0,4.856112599E-3,1.313018629E0
6.779496250E0,1.138288581E0,-1.146254243E0,1.919559038E-1,1.626790322E0
6.789467250E0,3.479225606E-1,1.382702195E0,3.265722567E-1,1.462725165E0
6.799438250E0,2.066843822E-1,-7.455562484E-1,3.012871420E-1,8.302689295E-1
6.809409250E0,-8.311250601E-1,-2.608546691E0,4.909959608E-1,2.781431598E0
6.819379250E0,-1.230333988E0,-3.280685592E-1,9.857885188E-1,1.610319752E0
6.829350250E0,-1.903066381E0,-2.105287072E-1,9.712096560E-1,2.146912244E0
6.839321250E0,-1.187618469E0,-9.456883138E-1,-2.477354175E-1,1.538225228E0
6.849291250E0,-1.045049684E0,-1.495417217E0,6.612926084E-1,1.940543586E0
6.859262250E0,-8.223812069E-1,-1.596086682E0,1.529727509E0,2.358785662E0
6.869233250E0,-6.394885605E-1,-2.049177191E-1,2.085206564E0,2.190667320E0
6.879204250E0,2.350522220E-2,1.827592568E0,1.652940037E0,2.464316915E0
6.889174250E0,-3.565071503E-1,1.585963106E0,1.238563067E0,2.043627850E0
6.899145250E0,8.096814200E-1,5.760103834E-1,-1.388450593E-1,1.003319448E0
6.909116250E0,1.121171807E0,-7.526094523E-1,-9.905387968E-1,1.674698276E0
6.919087250E0,1.336777579E0,-1.573133437E0,-2.877135910E0,3.541134586E0
6.929057250E0,1.236233536E0,-1.666932132E0,-2.482950545E0,3.236043803E0
6.939028250E0,8.935532966E-1,-1.754928342E0,9.389762950E-1,2.181716632E0
6.948999250E0,-1.551748708E-2,-3.542561916E-1,2.272305771E0,2.299806895E0
6.958970250E0,1.114615617E0,1.232514999E0,8.171793777E-1,1.851821625E0
6.968940250E0,1.189653374E0,1.428907478E-1,1.558177137E0,1.965606498E0
6.978911250E0,1.043443600E0,-5.309657729E-1,1.635728758E0,2.011543628E0
6.988882250E0,1.505971149E0,-9.771127126E-1,-6.506840050E-2,1.796366402E0
6.998852250E0,9.966476022E-1,3.713712841E-1,-1.898841183E0,2.176423882E0
7.008823250E0,8.527403891E-1,1.918502446E0,-8.290983421E-1,2.257259814E0
7.018794250E0,1.412613773E0,1.785242647E-2,8.787663460E-2,1.415457058E0
7.028765250E0,1.205146375E0,-2.042373955E-1,-8.891293663E-1,1.511503136E0
7.038735250E0,4.587565333E-1,4.707295114E-1,-1.491559809E0,1.629967636E0
7.048706250E0,5.631050668E-1,-3.503993681E-1,-1.129007880E0,1.309399033E0
7.058677250E0,3.996945389E-1,-1.228176073E0,1.329307176E0,1.853437282E0
7.068648250E0,1.462195677E-1,-5.644258797E-2,4.428603367E0,4.431376052E0
7.078618250E0,-7.564373320E-1,5.679529202E-1,3.374740979E0,3.504803080E0
7.088589250E0,-2.619983844E-1,1.578029896E0,4.711353081E-1,1.667570084E0
7.098560250E0,1.134674124E-2,1.314458172E0,-2.339977936E0,2.683919853E0
7.108531250E0,-1.072868032E0,-9.673338291E-1,-1.571302966E0,2.134425816E0
7.118501250E0,-9.779642864E-1,-1.192380003E0,-1.356501406E0,2.053845243E0
7.128472250E0,-4.193991441E-1,1.251788591E0,-1.455265557E0,1.964858305E0
7.138443250E0,-1.252591414E0,1.327410339E0,-9.315591019E-1,2.049098782E0
7.148413250E0,-1.681218634E0,-4.372603413E-1,3.463173099E0,3.874436813E0
7.158384250E0,-1.445551285E0,-3.221614096E-1,3.126581638E0,3.459612584E0
7.168355250E0,-1.274530898E0,5.284096625E-1,-6.975377440E-1,1.546028682E0
7.178326250E0,-1.380086297E0,-1.026639506E-1,-1.230897952E0,1.852103626E0
7.188296250E0,-2.415651724E0,-1.598380253E0,2.681381071E-1,2.908967296E0
7.198267250E0,-1.936824111E0,-2.619815445E0,-6.496484631E-1,3.322162508E0
7.208238250E0,-1.774183223E0,-1.186773108E0,-1.518375725E0,2.619469672E0
7.218209250E0,-1.912869238E0,-5.842113957E-1,-5.316861498E-1,2.069555952E0
7.228179250E0,-1.347484123E0,-1.964439926E0,9.857154286E-1,2.578055971E0
7.238150250E0,-1.618264294E0,-3.133792425E0,3.781938154E-1,3.547177025E0
7.248121250E0,-1.507832902E0,-1.203921238E0,-5.261476672E-1,1.999954443E0
7.258092250E0,-1.018302400E0,8.116125360E-1,-5.977561784E-1,1.432817900E0
7.268062250E0,-1.186317464E0,7.967848742E-1,-8.132272446E-1,1.644248708E0
7.278033250E0,-1.228669578E0,-1.002932847E0,1.819928915E0,2.414051467E0
7.288004250E0,-2.748338706E0,-8.427755642E-1,9.357620806E-1,3.023125364E0
7.297974250E0,-1.355567021E0,-1.098971318E0,1.725785235E0,2.454309390E0
7.307945250E0,3.274952031E-1,3.982193595E-1,8.097347027E-1,9.599489857E-1
7.317915750E0,6.485742565E-2,-1.683755448E-1,-1.033860233E0,1.049487394E0
7.327886750E0,-1.557837852E-1,-1.643626007E0,1.570291983E0,2.278506518E0
7.337856750E0,5.055611192E-1,1.337851712E-1,6.351555544E-1,8.227472854E-1
7.347827750E0,4.787692867E-1,2.760845024E0,-1.748313387E0,3.302739011E0
7.357798750E0,6.214344051E-1,1.581893443E0,-1.033833336E0,1.989316202E0
7.367769750E0,-2.322463259E-1,-2.073491083E0,-8.878324538E-1,2.267498642E0
7.377739750E0,-3.302691588E-1,-3.533488206E0,-9.293242961E-1,3.668550159E0
7.387710750E0,1.959073059E-1,3.040961444E-2,-1.975277156E-1,2.798599928E-1
7.397681750E0,8.178355815E-1,2.676210378E0,8.018105561E-1,2.910989040E0
7.407652750E0,1.027175257E0,2.153363464E0,8.082021475E-1,2.518978747E0
7.417622750E0,1.270228225E0,-1.440360712E0,7.561081338E-1,2.063932710E0
7.427593750E0,1.348717447E0,-1.334862615E0,-6.176735491E-1,1.995599551E0
7.437564750E0,1.479759835E0,1.514775886E0,1.091195691E0,2.382213926E0
7.447534750E0,8.297665326E-1,1.429644812E0,2.100442069E0,2.672873673E0
7.457505750E0,1.338163953E0,3.117986816E-1,1.500600189E-1,1.382179147E0
7.467476750E0,1.481666320E0,-4.950945666E-1,-2.500785137E0,2.948623411E0
7.477447750E0,9.757289690E-1,4.464086026E-2,-2.871868739E0,3.033425436E0
7.487417750E0,1.158201566E0,2.156369225E0,-1.838077503E0,3.061027280E0
7.497388750E0,8.377135565E-1,-6.489906514E-1,2.729030031E-1,1.094270952E0
7.507359750E0,6.503673052E-1,-2.196774070E0,1.471779848E0,2.723036883E0
7.517330750E0,-8.203600437E-1,-3.498625937E-1,1.503112153E0,1.747781617E0
7.527300750E0,9.135441229E-2,1.501367928E0,1.476758167E0,2.107905588E0
7.537271750E0,5.465953803E-1,5.722883382E-1,2.214549898E0,2.351704000E0
7.547242750E0,1.180667738E0,-5.932991382E-1,1.373470026E-1,1.328474454E0
7.557213750E0,6.519350168E-1,-6.847998771E-1,-1.534798214E0,1.802657953E0
7.567183750E0,7.069044719E-1,2.334354669E-2,-1.118418573E0,1.323298514E0
7.577154750E0,4.424924299E-1,5.866414985E-1,1.648797870E-2,7.349963617E-1
7.587125750E0,-7.000652030E-3,3.534598008E-1,1.177698230E0,1.229616184E0
7.597095750E0,-1.227358047E0,-1.893670490E-1,9.042040730E-1,1.536181194E0
7.607066750E0,-4.463796589E-1,-6.322491959E-1,-9.385038400E-1,1.216463441E0
7.617037750E0,-9.111446448E-1,-2.807701394E-1,-8.165104562E-1,1.255271190E0
7.627008750E0,-3.391779765E-1,-5.436697260E-1,3.583968973E-1,7.342116907E-1
7.636978750E0,-3.697511669E-1,-1.045530983E0,8.625087476E-1,1.404910069E0
7.646949750E0,3.330695365E-1,-1.916887737E0,1.294688151E0,2.337009055E0
7.656920750E0,2.133969127E-1,-1.289891680E0,1.545207428E0,2.024110862E0
7.666891750E0,7.377119163E-1,-3.423343036E-1,8.043289518E-1,1.143834214E0
7.676861750E0,4.967611693E-1,-1.323463469E0,1.611058770E0,2.143323954E0
7.686832750E0,1.037594996E-1,-7.093918043E-1,-4.511366612E-1,8.470696860E-1
7.696803750E0,-5.379441324E-1,4.271996221E-1,-1.301177391E0,1.471375550E0
7.706773750E0,1.308716498E-2,5.377169681E-1,-9.509145552E-1,1.092496821E0
7.716744750E0,-3.435992025E-1,6.536865503E-2,7.373830104E-1,8.161293874E-1
7.726715750E0,5.659183815E-2,-8.131085461E-1,7.555848080E-1,1.111420958E0
7.736686750E0,-7.427849606E-2,-3.606738031E-1,-2.803447545E-2,3.693085689E-1
7.746656750E0,5.187054042E-1,-1.895076746E-1,-9.293476850E-1,1.081043743E0
7.756627750E0,5.406934932E-2,-7.897886807E-1,-2.044129874E0,2.192066741E0
7.766598750E0,-2.016024940E-2,-1.679556563E0,-4.548052043E-1,1.740162193E0
7.776569750E0,3.214521423E-2,-3.261038947E-1,9.967263204E-1,1.049209427E0
7.786539750E0,1.890670138E-1,8.237294286E-1,6.812643582E-1,1.085540249E0
7.796510750E0,1.021756350E-1,-2.707298854E-1,1.245373319E0,1.278549661E0
7.806481750E0,9.239712433E-1,-1.514602516E0,6.946433723E-1,1.905327545E0
7.816452750E0,5.046226776E-1,-6.421689972E-1,-3.913839644E-1,9.056525136E-1
7.826422750E0,4.213959682E-1,7.832392144E-1,-5.414702958E-1,1.041262844E0
7.836393750E0,2.288532232E-1,9.066844618E-1,1.755698420E0,1.989202718E0
7.846364750E0,-2.815082042E-1,5.020624012E-2,1.852426570E0,1.874367022E0
7.856334750E0,-3.258230822E-1,-2.815098122E-1,-1.720426261E-2,4.309343823E-1
7.866305750E0,1.165817126E-1,9.695025614E-1,-1.032821767E0,1.421354043E0
7.876276750E0,1.028050878E0,9.744384885E-3,-1.052369594E0,1.471212195E0
7.886247750E0,7.815647911E-1,-1.148291413E0,-1.483198875E0,2.032066828E0
7.896217750E0,1.063317628E0,-1.376592439E0,-3.789194548E-1,1.780233433E0
7.906188750E0,4.696596171E-1,-3.768819925E-1,1.372136861E-1,6.176145949E-1
7.916159750E0,-9.405119200E-1,1.877956098E-1,1.361543460E0,1.665422006E0
7.926130750E0,-7.077808964E-1,1.328086862E-1,2.778696865E0,2.870496162E0
7.936100750E0,-6.551906003E-1,-1.628885177E-1,3.372698547E0,3.439607954E0
7.946071750E0,-4.757238375E-1,5.736232576E-1,1.923435157E0,2.062755345E0
7.956042750E0,-5.519659748E-1,1.627735907E0,-2.412621989E0,2.962251759E0
7.966012750E0,-6.487982049E-1,1.753380876E0,-4.607574944E0,4.972427020E0
7.975983750E0,-6.875080881E-1,-5.440161735E-2,-3.116612720E0,3.192005914E0
7.985954750E0,-7.217811041E-1,3.535372764E-1,3.022659659E-2,8.042824225E-1
7.995925750E0,-2.962719121E-1,1.192635234E0,2.111809641E-1,1.246897449E0
8.005895750E0,6.976247214E-2,1.209518485E0,-1.228193030E0,1.725184015E0
8.015866750E0,-3.481310139E-1,-9.976191902E-1,1.101844640E0,1.526597806E0
8.025837750E0,-7.462938747E-1,-1.780844664E0,3.662498249E0,4.140320723E0
8.035808750E0,-3.490301695E-1,1.762175381E-1,2.256132957E0,2.289762127E0
8.045778750E0,4.340116283E-1,1.358931802E0,-7.285045981E-3,1.426574501E0
8.055749750E0,-8.093414775E-1,5.819558322E-1,-2.201301277E-2,9.970911646E-1
8.065720750E0,-5.677422743E-1,-3.031209750E0,-8.242539239E-1,3.192171420E0
8.075690750E0,-5.939450363E-1,-2.502071232E0,-2.412109188E0,3.525819323E0
8.085661750E0,2.094017295E-1,-1.095819376E0,-9.493697208E-1,1.464913669E0
8.095632750E0,-4.857975668E-1,-3.330410314E-1,3.707660973E-1,6.959763670E-1
8.105603750E0,-9.281756837E-1,-1.114126424E0,9.781842148E-1,1.749180421E0
8.115573750E0,-2.056160959E-1,-1.679291684E0,7.470472884E-1,1.849426449E0
8.125544750E0,-1.849849994E-1,9.047060564E-1,2.355784714E-1,9.530003750E-1
8.135515750E0,-5.759144159E-1,9.842577177E-1,1.172711724E0,1.635754706E0
8.145486750E0,-4.069317108E-1,-2.030932124E0,9.738403183E-1,2.288808352E0
8.155456750E0,-5.323764136E-1,-2.668387388E0,-1.271930203E0,3.003584915E0
8.165427750E0,-4.043901455E-2,-1.811748953E0,-1.700876681E0,2.485367390E0
8.175398750E0,-7.052980956E-2,-8.997432321E-2,-1.510227045E0,1.514547972E0
8.185369750E0,-7.064771135E-1,-8.275678334E-1,3.956651203E0,4.103543246E0
8.195339750E0,-1.148538896E0,4.358748436E-2,5.078414968E0,5.206855102E0
8.205310750E0,-6.825764734E-1,1.048022482E0,9.301873451E-1,1.558688635E0
8.215281750E0,-3.570302568E-1,2.937863630E0,-3.374778401E0,4.488612544E0
8.225251750E0,-3.373567881E-1,1.147507009E0,-3.723038566E0,3.910447301E0
8.235222750E0,-1.065530507E0,-2.052766504E0,6.460571033E-1,2.401373641E0
8.245193750E0,-1.726847381E0,-2.605942633E0,2.712233319E0,4.138737545E0
8.255164750E0,-1.738503367E0,1.656682548E0,-2.480557280E0,3.452557811E0
8.265134750E0,-1.533739430E0,2.804758783E0,-3.406434057E0,4.671490282E0
8.275105750E0,-9.521108224E-1,-3.923186418E-1,1.212429521E0,1.590727594E0
8.285076750E0,-7.871469086E-1,-1.665558913E0,4.026961632E0,4.428330017E0
8.295047750E0,-1.217955286E-1,1.048164569E0,2.585982578E0,2.792989260E0
8.305017750E0,-5.112432241E-1,2.964796198E0,2.583276486E-1,3.019622378E0
8.314988750E0,3.278417603E-1,1.338331184E-1,-2.808815289E-1,4.519800401E-1
8.324959833E0,3.794473488E-1,-1.844377585E0,-2.001921748E0,2.748344893E0
8.334929833E0,3.609983236E-2,-1.788332316E0,-2.929729276E0,3.432600953E0
8.344900833E0,-4.835068836E-1,-3.606811121E-1,-1.231125993E0,1.370963523E0
8.354871833E0,-1.118671026E-2,-8.796472290E-1,-1.012269974E-1,8.855231759E-1
8.364842833E0,3.482200377E-1,-1.462405884E0,-1.546658707E-1,1.511227877E0
8.374812833E0,1.399797115E0,-8.952668962E-1,-4.865906686E-1,1.731388245E0
8.384783833E0,8.830786675E-1,1.449600774E0,1.578874526E0,2.318192206E0
8.394754833E0,9.943717928E-1,1.354512184E0,2.831631124E0,3.292660526E0
8.404725833E0,5.748995586E-1,-1.083094373E-1,1.644415382E0,1.745377433E0
8.414695833E0,5.110103953E-1,-2.812973536E0,-1.670211543E0,3.311126445E0
8.424666833E0,3.986609705E-1,-5.302433494E-1,-3.232451910E0,3.299823318E0
8.434637833E0,3.130014904E-1,2.176862547E0,-5.100993991E-1,2.257631918E0
8.444607833E0,-2.327008739E-1,1.328478918E0,2.527726184E0,2.865031517E0
8.454578833E0,-2.762203113E-1,-1.126484514E0,5.373024005E-1,1.278264014E0
8.464549833E0,-2.749634888E-2,-1.940479206E0,-3.303251751E0,3.831147051E0
8.474520833E0,9.352577582E-1,-6.138702276E-1,-7.472876090E-1,1.345355901E0
8.484490833E0,2.789599511E-1,-9.674452186E-2,3.229460474E0,3.242929711E0
8.494461833E0,-5.909534911E-1,9.887966189E-1,5.157074636E0,5.284161578E0
8.504432833E0,-1.288297729E0,-7.461506179E-1,2.904944683E0,3.264223552E0
8.514403833E0,-2.666520372E-2,-1.008169906E0,-1.095893928E0,1.489329075E0
8.524373833E0,-7.015807282E-2,-6.967398915E-1,-1.286616070E0,1.464837719E0
8.534344833E0,-4.265097603E-1,-1.202364124E0,-1.036134800E0,1.643522250E0
8.544315833E0,-5.540388493E-1,-6.063603562E-1,-1.452774058E0,1.668887172E0
8.554285833E0,-7.501428044E-1,-7.788883013E-1,-5.309523243E-1,1.204695639E0
8.564256833E0,-4.352082976E-1,-1.009939858E-1,7.312504506E-1,8.569324763E-1
8.574227833E0,-2.553505753E-1,-1.865378737E-1,1.169204564E0,1.211214105E0
8.584198833E0,-3.140053477E-1,-1.251041025E-2,7.123627746E-1,7.785991211E-1
8.594168833E0,3.016115163E-1,-6.848434389E-2,-1.259055803E0,1.296487998E0
8.604139833E0,5.524560446E-1,-1.162125632E0,-1.324238225E0,1.846442672E0
8.614110833E0,-2.122458883E-2,-2.133505442E0,7.590124458E-1,2.264596178E0
8.624081833E0,-8.686280049E-2,-1.492514952E0,1.994294055E0,2.492459589E0
8.634051833E0,7.700282346E-1,8.210823941E-1,7.670547062E-1,1.362164712E0
8.644022833E0,9.822693720E-1,1.853422936E0,5.420339674E-1,2.166524987E0
8.653993833E0,9.686726953E-1,-4.624358207E-2,3.543213880E-1,1.032477073E0
8.663963833E0,7.449534005E-1,-1.967790965E0,-1.291779161E0,2.468977573E0
8.673934833E0,6.856325937E-1,-1.199518577E0,-2.612322530E0,2.955193034E0
8.683905833E0,4.071926428E-1,7.661539426E-1,-1.405831441E0,1.652016874E0
8.693876833E0,4.477808710E-1,1.538438691E0,1.135735102E0,1.963974423E0
8.703846833E0,4.481784817E-1,-3.249224648E-1,1.947923296E0,2.025054006E0
8.713817833E0,1.717497537E-1,-1.467532138E0,8.903455871E-1,1.725069221E0
8.723788833E0,-1.395615625E-1,-1.146616770E0,4.800330162E-2,1.156076020E0
8.733759833E0,-2.320780358E-1,-2.154918239E-1,7.400885171E-1,8.050018347E-1
8.743729833E0,-5.225778689E-1,3.382152325E-1,2.422454667E-1,6.679521231E-1
8.753700833E0,-1.720973707E-1,1.142646511E0,-6.475089669E-1,1.324585375E0
8.763671833E0,-2.719101459E-3,3.762317821E-1,-7.907838768E-1,8.757264911E-1
8.773641833E0,-3.236980578E-1,2.759570038E-1,-8.291164684E-1,9.318620171E-1
8.783612833E0,-4.253304134E-1,-5.106174624E-1,-2.116439466E0,2.218321926E0
8.793583833E0,-2.742974909E-1,-4.876995930E-1,-2.046120851E0,2.121249760E0
8.803554833E0,-2.139705976E-1,-2.951586753E-2,2.540770152E0,2.549934817E0
8.813524833E0,6.273511295E-1,7.600550044E-1,5.122424036E0,5.216366653E0
8.823495833E0,6.358762968E-1,2.274282422E0,1.052725105E0,2.585523031E0
8.833466833E0,1.264735204E0,2.796663313E0,-1.018462760E0,3.233905876E0
8.843437833E0,8.207802393E-2,-8.168238670E-1,-7.540212625E-1,1.114668604E0
8.853407833E0,1.727216341E-1,-8.239469451E-1,-2.362787924E0,2.508283897E0
8.863378833E0,-2.921641700E-1,4.754584470E-1,-3.036918679E0,3.087765487E0
8.873349833E0,-2.882453661E-1,-1.614366540E-1,-2.003852499E-1,3.863954356E-1
8.883319833E0,-1.495682827E0,1.854649097E-2,4.078584945E-1,1.550406283E0
8.893290833E0,-1.497728183E0,-1.379569842E0,4.819678599E-1,2.092533315E0
8.903261833E0,-5.448301790E-1,-7.437851268E-1,9.996546060E-1,1.359913810E0
8.913232833E0,-4.029681757E-3,-1.753831404E-1,1.797931690E0,1.806469996E0
8.923202833E0,-5.866189867E-1,-2.582405251E-1,1.259656312E0,1.413344979E0
8.933173833E0,1.934804922E-1,-1.333619205E0,5.882977223E-1,1.470397598E0
8.943144833E0,-3.536257155E-1,-1.018775586E0,-1.629303253E-1,1.090642532E0
8.953115833E0,-7.802466094E-2,-9.605408263E-1,-5.755291575E-1,1.122479549E0
8.963085833E0,-7.498804106E-1,-1.474762512E0,-7.400978726E-1,1.812454126E0
8.973056833E0,-4.344805750E-1,-2.050099004E0,1.115423044E0,2.373994074E0
8.983027833E0,-5.508496682E-1,-1.926108796E0,1.857006109E0,2.731629942E0
8.992997833E0,-1.300102819E-1,1.091294216E0,6.500642002E-1,1.276874780E0
9.002968833E0,-4.589350927E-1,1.693126781E0,7.124908286E-1,1.893394543E0
9.012939833E0,-2.045931986E-1,8.533736426E-1,5.252869570E-1,1.022756734E0
9.022910833E0,-2.093079548E-1,-6.634967163E-1,-6.671222824E-1,9.638930709E-1
9.032880833E0,-5.648293376E-2,-3.091025890E0,-1.597193853E0,3.479749930E0
9.042851833E0,-3.343225949E-1,-1.929164844E0,-1.669515724E0,2.573078185E0
9.052822833E0,-2.473489896E-1,-5.890616611E-1,1.532865125E-1,6.570174413E-1
9.062792833E0,-7.018676072E-1,9.798793226E-2,1.544756023E0,1.699556102E0
9.072763833E0,-3.185994320E-2,1.306104255E-1,1.710091892E0,1.715368304E0
9.082734833E0,1.971794408E-1,4.575861400E-1,1.258272277E0,1.353334375E0
9.092705833E0,2.124468863E-1,9.527450261E-1,1.310740512E0,1.634288057E0
9.102675833E0,1.518855927E-1,4.315075582E-1,-3.004141527E-1,5.472811611E-1
9.112646833E0,1.943224181E-1,7.459716931E-1,-1.530264283E0,1.713459584E0
9.122617833E0,4.700172474E-1,2.401644427E-1,-1.675664071E0,1.756828180E0
9.132588833E0,7.322007693E-2,-2.607302696E-2,-1.787295020E0,1.788984200E0
9.142558833E0,-2.928991650E-1,-2.888603470E-1,-2.233528206E0,2.271096314E0
9.152529833E0,-2.719307573E-1,-4.062972879E-1,-9.086350930E-1,1.031814690E0
9.162500833E0,-4.357542448E-2,8.292667419E-2,1.191177231E0,1.194855157E0
9.172470833E0,3.935103044E-2,4.858267298E-1,1.764811891E0,1.830884247E0
9.182441833E0,3.556034631E-1,5.213737080E-1,1.602397290E0,1.722196691E0
9.192412833E0,8.830427802E-1,9.161341470E-1,3.543588102E-1,1.320846885E0
9.202383833E0,1.867375269E0,-1.705705896E-1,-9.135841763E-1,2.085862117E0
9.212353833E0,2.017415846E0,-6.491429713E-1,-1.108645536E0,2.391745852E0
9.222324833E0,1.940120772E0,1.664497644E-2,-9.637456852E-1,2.166368253E0
9.232295833E0,5.609772285E-1,-9.017663687E-2,-8.701241612E-1,1.039203220E0
9.242265833E0,4.532020805E-1,3.210387442E-1,-1.007933094E0,1.150820196E0
9.252236833E0,-4.749068719E-1,4.784691784E-1,-1.108989353E0,1.297816118E0
9.262207833E0,-9.859217622E-1,-3.510519174E-1,-1.775068492E-1,1.061502638E0
9.272178833E0,-1.094891350E0,-7.461696213E-1,2.770224835E0,3.070781954E0
9.282148833E0,-1.327330378E0,-7.066213936E-2,2.965082127E0,3.249386264E0
9.292119833E0,-1.806878368E0,-1.479611608E-1,1.485161201E0,2.343588218E0
9.302090833E0,-1.136147769E0,-5.908093938E-1,-3.438197887E-1,1.325933460E0
9.312061833E0,-1.821777366E0,-1.354223331E0,-1.511359066E-1,2.275002344E0
9.322031875E0,-1.524291060E0,-2.067747655E0,-2.970701301E-1,2.585980329E0
9.332002875E0,-1.514285159E0,-1.796453221E0,3.713215828E-2,2.349826061E0
9.341973875E0,-8.653326604E-1,-5.740767092E-1,-1.036670405E-1,1.043605067E0
9.351943875E0,-5.729865323E-1,-4.734651312E-1,-3.949899423E-1,8.417243321E-1
9.361914875E0,-2.850949959E-1,-4.383324283E-1,-2.654969198E-1,5.864325100E-1
9.371885875E0,-7.956233248E-1,-3.346917003E-1,4.346545297E-1,9.664158367E-1
9.381856875E0,-4.782379941E-1,-1.593646932E-1,1.073887348E0,1.186314764E0
9.391826875E0,-1.134968386E0,-4.761905184E-1,9.172527194E-1,1.535012442E0
9.401797875E0,-9.457643276E-1,-3.793167731E-1,-8.466651320E-2,1.022506624E0
9.411768875E0,-1.277584460E0,8.867302537E-3,1.350531399E-1,1.284733448E0
9.421738875E0,-6.967942706E-1,2.438990593E-1,1.700650978E-1,7.575824339E-1
9.431709875E0,-5.778072327E-1,7.687173620E-1,-9.444089431E-1,1.347848594E0
9.441680875E0,4.755894612E-1,3.474757603E-1,-2.076527542E0,2.158446518E0
9.451651875E0,4.695379950E-1,2.406766587E-1,-2.913778072E0,2.961164270E0
9.461621875E0,8.460160911E-1,-6.397871339E-1,-1.269318252E0,1.654158284E0
9.471592875E0,3.519428138E-1,-5.023114926E-1,3.040173240E0,3.101424496E0
9.481563875E0,6.810653336E-1,3.559641632E-1,4.520105860E0,4.584966462E0
9.491534875E0,6.176493562E-1,1.353595048E0,2.163951602E0,2.626099164E0
9.501504875E0,9.295786500E-1,-2.307156345E-1,-8.360992134E-2,9.614243545E-1
9.511475875E0,1.052897013E0,-1.560374813E0,-1.253036095E0,2.261296339E0
9.521446875E0,1.185374893E0,-6.484471527E-1,-1.475929032E0,2.000990718E0
9.531416875E0,9.378107987E-1,5.768906817E-1,-9.036216903E-1,1.424367969E0
9.541387875E0,5.633116928E-1,4.754955769E-3,2.049805766E-1,5.994661872E-1
9.551358875E0,-1.249618690E-1,-8.881631139E-1,6.167169446E-1,1.088480122E0
9.561329875E0,4.499987930E-2,-7.490710098E-1,-8.227149367E-2,7.549178535E-1
9.571299875E0,-2.301508666E-1,-1.753509808E-1,8.775033474E-2,3.023532852E-1
9.581270875E0,3.218313342E-1,3.620095995E-1,8.251228201E-1,9.567936173E-1
9.591241875E0,4.270152886E-1,1.213621768E-1,-1.865793890E-1,4.815420055E-1
9.601211875E0,-6.612104550E-2,-6.914449453E-2,-2.402702773E-1,2.586170140E-1
9.611182875E0,-9.254607484E-2,3.462598318E-1,-3.374071473E-1,4.922440758E-1
9.621153875E0,-4.287565894E-1,4.678924423E-1,-1.798351520E0,1.907045815E0
9.631124875E0,-1.431471482E-1,-2.687079182E-1,-1.306345745E0,1.341355380E0
9.641094875E0,4.017823604E-1,-3.709268957E-1,3.343975854E-1,6.409661241E-1
9.651065875E0,3.254621628E-1,1.520814013E-1,8.886884862E-1,9.585518231E-1
9.661036875E0,5.154882661E-1,2.737619591E0,4.729742575E-1,2.825596189E0
9.671007875E0,8.863998129E-1,2.237455488E0,5.319212079E-2,2.407226847E0
9.680977875E0,8.140840079E-1,9.137800580E-1,3.897169232E-2,1.224436833E0
9.690948875E0,6.866741290E-1,-1.087929144E0,-3.533530891E-2,1.286996412E0
9.700919875E0,6.199057236E-2,-1.525488862E0,-4.374752265E-1,1.588188803E0
9.710889875E0,3.469357699E-2,-6.096023449E-1,-2.285664904E-1,6.519672567E-1
9.720860875E0,-1.160611642E-1,-5.108975440E-2,-1.271477044E-2,1.274441926E-1
9.730831875E0,-3.025108181E-1,-9.740224591E-1,1.489186424E-1,1.030732413E0
9.740802875E0,-8.007682168E-1,-1.398285609E0,7.018214142E-1,1.757551046E0
9.750772875E0,-1.345206925E0,-1.748597562E0,1.731751149E0,2.804663464E0
9.760743875E0,-1.074148499E0,-1.408583433E0,1.336492819E0,2.219034777E0
9.770714875E0,-1.162800182E0,-5.674754950E-1,8.269781417E-1,1.535586385E0
9.780684875E0,-6.842290427E-1,-9.715552264E-1,1.324318916E0,1.779300293E0
9.790655875E0,-4.856673201E-1,-4.934789810E-1,1.003445356E0,1.219137741E0
9.800626875E0,1.449854397E-1,-5.044226298E-1,3.532174337E-1,6.326337982E-1
9.810597875E0,2.128368956E-1,7.301424032E-1,-5.562467945E-1,9.422409296E-1
9.820567875E0,6.803922459E-1,-1.370145884E-1,-4.673673624E-1,8.367430055E-1
9.830538875E0,-8.004553176E-2,-3.788703382E-3,-2.026823870E0,2.028407415E0
9.840509875E0,3.782008320E-2,2.651206514E-1,-1.886374919E0,1.905289914E0
9.850479875E0,-2.141882602E-1,-1.313787496E-1,1.614709772E0,1.634143395E0
9.860450875E0,-6.339443037E-1,-2.012211093E-1,3.048667490E0,3.120376384E0
9.870421875E0,-1.331033128E0,3.879314759E-1,1.430640008E0,1.992202512E0
9.880392875E0,-5.863261143E-1,1.323838567E0,-1.063824289E0,1.796677206E0
9.890362875E0,4.591032732E-1,8.851111597E-1,-1.252052593E0,1.600572796E0
9.900333875E0,-7.074319638E-2,-6.484714186E-1,-1.934941893E0,2.041940231E0
9.910304875E0,1.257717083E-1,-1.662891414E0,-1.503958830E0,2.245644348E0
9.920275875E0,-3.488621351E-1,-9.836121851E-1,-1.116032324E0,1.527980978E0
9.930245875E0,3.301147923E-1,-1.079010678E0,2.483078599E-2,1.128652465E0
9.940216875E0,3.464971557E-1,-9.066379765E-1,6.551618028E-1,1.171020788E0
9.950187875E0,8.109162788E-1,-9.868500808E-1,1.495045334E0,1.966372000E0
9.960157875E0,3.289998744E-1,-1.830675513E-1,1.439511988E0,1.487934612E0
9.970128875E0,4.287951811E-1,2.294500047E-1,1.140356741E0,1.239728240E0
9.980099875E0,4.487154754E-1,-1.156967219E0,6.660434711E-1,1.408379433E0
9.990070875E0,7.065130739E-1,-1.637372703E0,-2.496030182E-1,1.800680915E0
1.000004087E1,5.303022601E-1,-1.109113606E0,-6.958245099E-2,1.231338782E0
1.001001188E1,2.675577709E-1,-4.833790854E-1,1.085264275E0,1.217801728E0
1.001998287E1,1.592491376E-1,-1.119452360E-1,5.562163889E-1,5.892950831E-1
1.002995287E1,7.673410736E-2,-4.090320307E-1,6.711106682E-1,7.896738911E-1
1.003992388E1,2.082759943E-1,8.250517765E-1,3.635845470E-1,9.253556324E-1
1.004989487E1,5.073802245E-1,2.162031669E0,-1.596973997E-1,2.226503736E0
1.005986587E1,7.595655193E-1,1.739600451E0,-7.042749059E-1,2.024636424E0
1.006983588E1,7.222765826E-1,1.090292003E0,-8.733506548E-1,1.572628844E0
1.007980687E1,4.595417413E-1,-6.478723714E-1,-1.232261522E0,1.466078334E0
1.008977787E1,2.572606780E-1,6.822794348E-2,-7.023891789E-1,7.511249345E-1
1.009974788E1,-5.938973084E-2,1.088336402E0,1.140388316E0,1.577494461E0
1.010971887E1,-8.047457852E-1,1.113540533E0,1.491862110E0,2.028112633E0
1.011968987E1,-5.913778163E-1,7.687182391E-1,-3.152385986E-1,1.019819017E0
1.012966088E1,-8.633791787E-1,1.294561851E-1,-1.026580449E0,1.347608967E0
1.013963088E1,-7.272389683E-1,6.136670369E-1,-1.208516564E0,1.538172954E0
1.014960187E1,-1.413569646E0,9.259329110E-2,-1.062549012E0,1.770808591E0
1.015957288E1,-9.712169650E-1,-8.296617213E-1,-6.761509681E-1,1.445261601E0
1.016954387E1,-6.037120792E-1,-1.227210405E0,5.984443957E-1,1.492866152E0
1.017951387E1,-4.010448072E-1,-1.250970274E0,9.421121567E-1,1.616582469E0
1.018948488E1,-3.375849757E-1,-6.798788604E-1,7.349020368E-1,1.056541473E0
1.019945587E1,7.913153887E-2,-7.522735298E-1,-2.031556606E-2,7.566967598E-1
1.020942587E1,-3.556275829E-1,-1.350266520E0,6.489953291E-1,1.539768032E0
1.021939688E1,-7.008540655E-1,-1.554540753E0,8.261981231E-1,1.894834218E0
1.022936787E1,-7.422016277E-1,-6.266156960E-1,2.588720244E-1,1.005248831E0
1.023933887E1,-2.087576587E-1,5.988425910E-2,-2.779865724E-1,3.527639706E-1
1.024930888E1,-7.365331907E-1,-8.107375002E-1,9.762423545E-1,1.467251025E0
1.025927988E1,-5.153173082E-1,-1.445927846E0,1.756503582E-1,1.545028256E0
1.026925087E1,-2.006560856E-1,-2.897564328E-1,-1.121630448E0,1.175702563E0
1.027922088E1,1.789422310E-1,4.584263849E-1,-1.911884567E0,1.974203047E0
1.028919188E1,-2.213955017E-1,-9.761432442E-1,-8.627636862E-1,1.321451013E0
1.029916287E1,-2.525690183E-1,-2.069607070E0,3.233102705E0,3.847079104E0
1.030913388E1,9.423475072E-2,-5.382440946E-1,4.301092551E0,4.335664196E0
1.031910508E1,9.373319118E-1,1.814049247E0,4.203890777E-1,2.084728462E0
1.032907608E1,8.196810358E-1,1.208822081E0,-7.293337333E-1,1.632499776E0
1.033904708E1,8.550264312E-1,-1.773820988E0,-1.678191238E0,2.587245046E0
1.034901708E1,1.062638620E-1,-1.428403156E0,-2.697529326E0,3.054225278E0
1.035898808E1,-2.294345461E-1,3.358637747E-1,-1.363478304E0,1.422855499E0
1.036895908E1,2.922802007E-1,7.356896567E-1,1.444719518E0,1.647386255E0
1.037893008E1,2.025946934E-1,6.299591339E-1,1.518472204E0,1.656396979E0
1.038890008E1,1.301976120E-1,1.372522777E-1,2.438616371E-1,3.086391161E-1
1.039887108E1,-3.315371275E-4,3.717104226E-1,-1.029612815E0,1.094655790E0
1.040884208E1,-1.285262220E-1,1.422063312E-1,-1.111463894E0,1.127871277E0
1.041881308E1,-5.275893347E-1,-4.410098684E-1,-8.412178659E-1,1.086502512E0
1.042878308E1,-6.359481445E-1,-1.296237078E-1,3.635272443E-2,6.500414361E-1
1.043875408E1,-5.461697030E-1,2.535159749E-1,5.374316239E-1,8.070963043E-1
1.044872508E1,-1.361526723E-1,7.263759193E-1,1.084707035E0,1.312535287E0
1.045869508E1,-5.413920893E-1,-7.631318092E-2,7.179889655E-1,9.024617723E-1
1.046866608E1,-4.968215783E-1,-4.171573216E-1,1.398244679E-2,6.488816691E-1
1.047863708E1,-1.189010838E0,-4.624358207E-1,-6.921869570E-1,1.451453218E0
1.048860808E1,-8.597188948E-1,1.708290365E0,-1.268904269E0,2.295101434E0
1.049857808E1,-6.295532640E-1,1.306837788E0,-2.135332990E-1,1.466205574E0
1.050854908E1,-4.739296194E-1,9.961769745E-1,1.949315518E-1,1.120257184E0
1.051852008E1,-4.400227122E-1,-5.059054837E-1,-1.678168434E-1,6.911749696E-1
1.052849008E1,-1.138990100E-1,-1.927498972E0,3.337298334E-2,1.931149665E0
1.053846108E1,2.682896230E-1,-3.256539515E-1,-3.389899886E-1,5.412430418E-1
1.054843208E1,3.617364614E-1,6.195323789E-1,1.176479085E0,1.377961057E0
1.055840308E1,-1.135432435E-1,1.667392015E-2,1.627504064E0,1.631545147E0
1.056837308E1,-3.695798800E-1,-5.216643146E-1,1.824600255E-1,6.648417900E-1
1.057834408E1,-1.025842238E0,-1.635805064E0,-9.257136405E-2,1.933075261E0
1.058831508E1,-8.440501841E-1,-1.487950907E0,1.467031324E-1,1.716956734E0
1.059828508E1,-7.575034256E-1,-7.700964278E-1,3.793252516E-1,1.144878856E0
1.060825608E1,-9.665946680E-1,-1.089853170E0,6.744067436E-1,1.605275565E0
1.061822708E1,-5.035538432E-1,-9.429208267E-1,-7.530792761E-1,1.307591127E0
1.062819808E1,-4.070970409E-2,-5.668083277E-1,-1.445127654E0,1.552843488E0
1.063816808E1,4.951713479E-1,-9.199810302E-1,-8.452910364E-2,1.048191266E0
1.064813908E1,1.566585287E-1,-1.167011858E0,2.214519492E0,2.508097916E0
1.065811008E1,9.426840875E-2,-5.146663669E-1,1.601567570E0,1.684869931E0
1.066808008E1,2.149062252E-1,2.516124138E-1,4.949071634E-1,5.953373773E-1
1.067805108E1,4.766753257E-1,-1.138005576E-1,-1.494118550E0,1.572437654E0
1.068802208E1,9.852058437E-1,-1.324834933E0,-2.666011664E0,3.135831046E0
1.069799308E1,1.124779685E0,-1.184406155E0,-5.052169740E-2,1.634166370E0
1.070796308E1,-6.114471415E-1,1.948760033E-1,1.774296075E0,1.886788495E0
1.071793408E1,-1.889236839E0,1.818795725E0,9.976881874E-1,2.805818141E0
1.072790508E1,-5.346899376E-1,8.207485181E-1,1.193281644E0,1.543840193E0
1.073787608E1,-3.712082930E-1,-1.235056784E0,1.624830133E-1,1.299831368E0
1.074784608E1,-2.990783563E-1,-1.065493962E0,-6.236570048E-1,1.270304415E0
1.075781708E1,-1.136525353E0,3.989464608E-1,3.031559122E-1,1.242075547E0
1.076778808E1,-4.932309859E-1,9.786087227E-1,8.391801113E-1,1.380280804E0
1.077775808E1,-1.848016161E-1,2.432386163E-1,1.161315501E-2,3.056984252E-1
1.078772908E1,3.775096180E-1,-4.840637943E-1,-6.432738286E-1,8.891751724E-1
1.079770008E1,1.107415648E0,2.945476413E-2,-5.086644924E-1,1.219006384E0
1.080767108E1,1.675398315E0,1.932446301E-2,-8.293293071E-1,1.869524017E0
1.081764108E1,1.100274882E0,-1.204605069E0,-8.225804508E-2,1.633537442E0
1.082761208E1,8.752288536E-1,-1.912259958E0,1.718210167E-1,2.110044112E0
1.083758308E1,3.222836895E-1,-3.539556447E-1,6.287961227E-1,7.902758624E-1
1.084755308E1,3.192168248E-1,1.243218620E0,1.499191010E0,1.973592056E0
1.085752408E1,4.650452869E-1,9.122758618E-1,7.920837128E-1,1.294569803E0
1.086749508E1,6.643964566E-1,-7.339463094E-1,1.261133319E-1,9.980002050E-1
1.087746608E1,5.645442127E-1,-8.624172387E-1,-8.709708381E-1,1.349467992E0
1.088743608E1,5.729633993E-1,1.943542270E0,-1.316425175E0,2.416323416E0
1.089740708E1,5.662745500E-1,2.607566697E0,-8.282867485E-1,2.793945219E0
1.090737808E1,-1.347183868E-1,1.880054372E0,-8.577099377E-1,2.070850024E0
1.091734808E1,-2.923325698E-1,3.223464739E-1,-4.588321817E-1,6.323705809E-1
1.092731908E1,-6.337884754E-1,-1.284946105E-1,-5.775289053E-1,8.670284499E-1
1.093729008E1,-6.544398178E-1,6.029938218E-1,-5.570788532E-1,1.049871360E0
1.094726108E1,-8.837576023E-1,1.510845388E0,-3.986046910E-2,1.750791290E0
1.095723108E1,3.648406751E-2,-1.423174283E-1,3.892532390E-1,4.160569933E-1
1.096720208E1,-3.768162844E-1,-4.705596498E-1,3.090142375E-1,6.774265238E-1
1.097717308E1,1.258845596E-1,-7.784868899E-1,-8.957560158E-1,1.193426831E0
1.098714408E1,-1.616663765E-1,-1.476570179E0,3.456125450E-1,1.525071652E0
1.099711408E1,-1.062948523E-1,-1.935264367E0,3.383587816E0,3.899386269E0
1.100708508E1,9.714176707E-2,-1.620286554E0,3.158047845E0,3.550778961E0
1.101705608E1,4.237353661E-1,5.039998761E-1,4.540450662E-1,7.998277675E-1
1.102702608E1,8.566688409E-1,-1.626967290E-1,-5.272370034E-1,1.018985077E0
1.103699708E1,4.952081488E-1,-7.732252729E-1,-5.494248480E-1,1.070035559E0
1.104696808E1,-8.529230415E-1,-1.898245644E0,-1.374008555E0,2.493734900E0
1.105693808E1,-9.092443728E-1,-1.142687441E0,-1.011631458E0,1.776473508E0
1.106690908E1,-1.209990867E0,-6.878611869E-1,1.679051363E-1,1.401935464E0
1.107688008E1,-1.019903075E0,-7.874030167E-1,2.890383947E-1,1.320510881E0
1.108685108E1,-6.806954241E-1,-9.624449721E-1,8.204339379E-1,1.436230633E0
1.109682108E1,-8.933505443E-1,-6.832743385E-1,1.115560454E0,1.584113046E0
1.110679208E1,-9.273765886E-1,-2.524330705E-2,6.700318569E-1,1.144380728E0
1.111676308E1,-6.346892390E-1,-5.026389366E-1,2.571523583E-1,8.494725811E-1
1.112673308E1,-4.635578283E-1,-1.249728033E0,-3.770676416E-1,1.385238616E0
1.113670408E1,-2.193401688E-1,-7.652020159E-1,-9.160897082E-1,1.213616327E0
1.114667508E1,-4.253118485E-2,-3.561395797E-1,-1.764216059E-1,3.997110018E-1
1.115664608E1,9.385388502E-1,4.877142110E-1,2.256855673E-1,1.081505571E0
1.116661608E1,8.752385746E-1,2.843936589E-1,-2.295388824E-1,9.484779461E-1
1.117658708E1,8.508424560E-1,-2.388327393E-1,1.647897398E-1,8.989602998E-1
1.118655808E1,4.013433441E-1,3.213571250E-1,1.128005667E0,1.239654656E0
1.119652908E1,1.557119010E-1,6.806568325E-1,1.438256006E0,1.598787121E0
1.120649908E1,1.450752676E-2,1.100267646E0,1.224430346E-1,1.107154758E0
1.121647008E1,-6.163150216E-1,-8.464362136E-1,-8.487455714E-1,1.347838089E0
1.122644108E1,-5.461184668E-1,-1.778913328E0,-1.055862136E0,2.139538001E0
1.123641108E1,-7.073897908E-1,-5.545145568E-1,-5.877632868E-1,1.073942452E0
1.124638208E1,-4.045258009E-1,4.747494721E-1,3.497588056E-1,7.150939847E-1
1.125635308E1,-2.718357401E-1,1.011359562E0,7.083205944E-1,1.264302534E0
1.126632408E1,-3.366891092E-1,2.096571797E-1,5.931368780E-1,7.135313906E-1
1.127629408E1,-6.814371434E-1,4.336540711E-1,-4.535158932E-2,8.089927073E-1
1.128626508E1,-4.533851714E-1,5.312932169E-1,-4.395346159E-1,8.252401315E-1
1.129623608E1,-6.243966776E-1,4.081166491E-1,-9.072703528E-1,1.174550937E0
1.130620608E1,-4.203510342E-1,3.143009976E-1,-1.543331641E-1,5.470821095E-1
1.131617708E1,-7.756561797E-2,7.208149248E-1,-2.942003167E-1,7.823965793E-1
1.132614687E1,-2.825538691E-1,5.830439991E-1,-3.332006603E-1,7.285600002E-1
1.133611788E1,-7.476206079E-2,5.421976894E-1,-4.393656313E-1,7.018617087E-1
1.134608788E1,1.059915645E-1,-3.283559498E-1,-3.305074328E-1,4.777938935E-1
1.135605887E1,3.513321452E-1,-1.001278378E0,5.678915244E-1,1.203533734E0
1.136602988E1,3.214400093E-1,-4.386578259E-1,-3.661163914E-1,6.555803382E-1
1.137600088E1,-1.669753925E-1,-1.471399194E-1,-3.385888696E-1,4.051831193E-1
1.138597087E1,4.183616287E-1,-8.352218387E-1,1.615661699E-1,9.480113920E-1
1.139594188E1,-4.234541150E-1,-1.137607965E0,2.142431509E-1,1.232625408E0
1.140591288E1,-2.954379530E-1,-1.861110562E0,-3.367627841E-1,1.914268864E0
1.141588287E1,-2.951927353E-1,-1.191477486E0,9.701530641E-1,1.564593978E0
1.142585388E1,-3.736989876E-1,-7.398417646E-1,1.827288221E0,2.006489225E0
1.143582488E1,-7.649296819E-1,-9.586188465E-2,6.586660391E-1,1.013976267E0
1.144579587E1,2.430935322E-1,-2.612477481E-2,-4.836623830E-1,5.419467409E-1
1.145576587E1,1.135730278E-1,-5.132188886E-2,-2.470424055E0,2.473565803E0
1.146573688E1,-5.229428083E-2,-2.001599274E0,9.806786370E-1,2.229543661E0
1.147570787E1,-4.919701070E-2,-2.548085019E0,5.757847978E0,6.296663477E0
1.148567787E1,4.637504940E-1,4.884793192E-2,3.787342150E0,3.815941719E0
1.149564888E1,-8.765758328E-2,3.292112513E0,5.239859515E-1,3.334703874E0
1.150561987E1,1.991525106E-1,2.788698235E0,1.498895726E0,3.172252822E0
1.151559088E1,-3.226427816E-2,1.731649992E-1,8.885832363E-1,9.058737597E-1
1.152556088E1,1.789273571E-1,-7.584736249E-1,-3.305649109E0,3.396264606E0
1.153553187E1,2.445972899E-1,-2.270301345E-1,-4.358883507E0,4.371639960E0
1.154550288E1,6.113636725E-2,-7.931359193E-1,-3.635721509E0,3.721729858E0
1.155547288E1,-6.822167965E-1,-2.642755826E0,-6.796990585E-1,2.812751131E0
1.156544387E1,-5.688859896E-1,-2.423337012E0,2.994444505E0,3.893955757E0
1.157541487E1,-7.470505044E-1,8.198536018E-1,3.412670113E0,3.588392632E0
1.158538588E1,-9.758025708E-1,2.318357856E0,7.922176141E-1,2.637154253E0
1.159535587E1,1.015526873E-1,7.459775403E-1,-6.832383782E-1,1.016666179E0
1.160532687E1,1.503086717E-1,-1.540738401E0,-1.676491452E0,2.281905148E0
1.161529788E1,-1.795461387E-1,-1.450480780E-1,-1.608576627E0,1.625052161E0
1.162526787E1,-1.199268170E0,8.433003518E-1,-1.079895362E0,1.820871664E0
1.163523887E1,-1.181583704E0,-7.886633840E-1,4.196113980E-1,1.481284479E0
1.164520988E1,-9.984874287E-1,-2.694059881E0,5.622284961E-1,2.927633288E0
1.165518087E1,-7.506311931E-2,-1.205909583E0,-6.026883048E-1,1.350216867E0
1.166515087E1,5.770704105E-1,2.988896959E0,-7.271030205E-1,3.129727479E0
1.167512188E1,1.192618497E0,2.321829056E0,8.799901682E-1,2.754561987E0
1.168509287E1,1.032354429E0,-4.308775207E-1,1.294502794E0,1.710891168E0
1.169506287E1,2.545104401E-1,-2.839449436E0,-1.593576765E-1,2.855283442E0
1.170503388E1,2.244452632E-1,-1.376548001E0,-1.479143831E0,2.033009234E0
1.171500487E1,2.278563461E-1,6.944787732E-1,1.183198705E0,1.390747445E0
1.172497587E1,5.564605102E-2,9.809742138E-1,2.153684476E0,2.367227009E0
1.173494588E1,-3.712264194E-1,-8.336831439E-1,1.314591488E0,1.600308539E0
1.174491687E1,-1.659924756E-1,1.401981634E0,-5.682417727E-1,1.521842540E0
1.175488787E1,-5.768920704E-1,2.704437227E0,-6.776010776E-1,2.847091216E0
1.176485888E1,-7.495763554E-1,1.764977075E0,-4.214018154E-1,1.963310540E0
1.177482887E1,-1.141238063E0,-4.727152258E-2,-3.078114653E-1,1.182965262E0
1.178479987E1,-1.404017343E0,-1.267822826E0,-5.695918947E-1,1.975619990E0
1.179477088E1,-1.073171210E0,-6.690565413E-1,-6.392386651E-1,1.417024761E0
1.180474087E1,9.948087260E-3,2.716440976E-1,3.763267994E-1,4.642319896E-1
1.181471187E1,-6.356913786E-2,-3.783589992E-1,1.264258656E0,1.321191325E0
1.182468288E1,2.593848983E-1,-1.082714304E0,9.888600612E-1,1.489092009E0
1.183465288E1,2.493110228E-2,-1.068991474E0,3.163443071E-1,1.115095535E0
1.184462387E1,-3.762014497E-2,2.265123636E-2,-6.627842331E-1,6.642373773E-1
1.185459488E1,-1.301524423E-2,-2.913910219E-1,-1.137089317E0,1.173903846E0
1.186456587E1,6.452713837E-1,-1.906767961E0,-1.907016760E-1,2.022005526E0
1.187453587E1,1.336914330E-1,-1.701265813E0,1.188510901E-1,1.710644424E0
1.188450688E1,-2.658295532E-1,-4.271692166E-1,-1.842820179E-1,5.358159694E-1
1.189447787E1,-7.772336854E-1,-6.689799428E-2,5.905132324E-1,9.784035062E-1
1.190444887E1,-6.150615978E-1,-1.275210491E-1,5.394980299E-1,8.280220476E-1
1.191441888E1,-9.199729172E-1,-8.653174576E-1,3.167015719E-1,1.302084620E0
1.192438987E1,-1.005039599E0,-2.371452329E-1,-2.872789675E-1,1.071854310E0
1.193436087E1,-1.372951671E0,-3.007538760E-1,-3.550020039E-2,1.405954995E0
1.194433088E1,-3.165730794E-1,-1.147804924E0,2.764955324E-1,1.222343830E0
1.195430188E1,-3.205063552E-1,-1.896609593E0,-3.686318636E-2,1.923853208E0
1.196427287E1,-2.257689997E-1,-1.060374725E0,-2.411099374E-1,1.110630541E0
1.197424388E1,3.404132374E-1,7.705606967E-2,5.472613782E-1,6.490869172E-1
1.198421388E1,3.759921925E-1,-7.326912045E-2,1.556031209E0,1.602489193E0
1.199418487E1,3.185808671E-1,-7.532690182E-1,1.681503101E0,1.869855786E0
1.200415588E1,2.148674143E-1,-3.966853425E-1,1.154797025E0,1.239791690E0
1.201412588E1,-1.522006115E-1,5.901568446E-1,5.531372452E-1,8.230497794E-1
1.202409687E1,1.543163899E-1,7.165499657E-1,-2.488797176E-1,7.740791403E-1
1.203406788E1,-2.787092882E-1,-8.858391380E-1,-5.189450669E-1,1.063810993E0
1.204403887E1,-6.550040741E-1,-6.247480953E-1,-7.714839721E-1,1.189339329E0
1.205400887E1,-2.791352944E-1,2.950905553E-1,-8.518603832E-1,9.437484097E-1
1.206397988E1,-1.630515088E-1,5.499946591E-1,-9.210680276E-1,1.085101945E0
1.207395088E1,-8.969917517E-2,-3.413779914E-2,4.545859337E-2,1.061970577E-1
1.208392087E1,-4.942834117E-3,-2.106427279E-1,2.711973703E-1,3.434280188E-1
1.209389188E1,-2.654870526E-1,-1.746917072E-1,3.450161290E-1,4.690806934E-1
1.210386288E1,-2.742174572E-1,5.029406530E-1,-2.421723765E-1,6.219260199E-1
1.211383387E1,-5.124667540E-1,-1.105038974E-1,-9.482920790E-1,1.083554868E0
1.212380388E1,-6.607894555E-1,-5.725944400E-1,-1.149310582E0,1.444098997E0
1.213377488E1,-3.491767884E-1,-4.380944467E-1,-1.806965053E-1,5.886445454E-1
1.214374587E1,-1.034229923E0,9.866746643E-1,-2.829701543E-1,1.457130926E0
1.215371587E1,-8.465784471E-1,2.805333272E-1,3.026167989E-1,9.417913472E-1
1.216368688E1,-2.706512769E-1,-3.621663049E-1,6.387808281E-1,7.825966346E-1
1.217365787E1,-9.273431864E-2,2.078091672E-1,2.306878603E-1,3.240388753E-1
1.218362888E1,-5.561648604E-2,7.368351263E-1,1.572322136E-1,7.554741331E-1
1.219359888E1,2.781114835E-1,6.600383806E-1,7.665980387E-1,1.049127835E0
1.220356987E1,-1.287973501E-2,-3.639923903E-1,3.865465629E-1,5.311069507E-1
1.221354088E1,2.124492252E-1,-4.516447842E-1,-1.373920262E-2,4.993059684E-1
1.222351088E1,1.360592996E-1,1.914916348E-1,1.276798010E-1,2.673636303E-1
1.223348187E1,6.493815377E-1,1.127793413E-1,6.798095709E-1,9.468667351E-1
1.224345288E1,4.576799148E-1,5.653321981E-2,2.697121775E-1,5.342392423E-1
1.225342388E1,2.043503930E-1,-8.372031677E-1,1.300011456E-2,8.618800555E-1
1.226339387E1,-2.347527715E-1,-7.079045650E-1,4.778859186E-1,8.857836576E-1
1.227336487E1,-1.658505709E-1,7.731948674E-2,9.841606539E-1,1.001027926E0
1.228333588E1,-2.717566565E-1,1.483935624E-1,5.377918124E-1,6.205581062E-1
1.229330587E1,1.380246218E-1,-7.382188699E-1,5.690329009E-1,9.422400641E-1
1.230327687E1,1.801983225E-1,-6.171277115E-1,5.032014388E-1,8.164127239E-1
1.231324788E1,-2.195063759E-1,-6.186947653E-1,1.236001986E-1,6.680144241E-1
1.232321921E1,-3.853482492E-1,-2.254867619E-1,-1.616755128E-1,4.748436841E-1
1.233318921E1,1.542122729E-2,-3.858074749E-1,-6.330955803E-2,3.912714174E-1
1.234316021E1,-3.411025876E-1,-1.288582488E0,1.974780142E-1,1.347513774E0
1.235313121E1,-5.140332596E-1,-1.207150947E0,-2.408672780E-1,1.333964260E0
1.236310121E1,-7.610186255E-1,-9.463470027E-1,-1.880944026E-1,1.228861873E0
1.237307221E1,-6.026212080E-1,-7.025853530E-1,5.585593683E-1,1.081095309E0
1.238304321E1,-6.655612951E-1,-1.377748142E0,4.458279741E-1,1.593714015E0
1.239301421E1,-2.828234623E-1,-1.081463000E0,-5.313616294E-1,1.237698070E0
1.240298421E1,-4.680902975E-1,-2.767016467E-1,-6.752136594E-1,8.669404903E-1
1.241295521E1,-8.640737548E-2,-2.151845527E-1,-4.896820915E-1,5.418110159E-1
1.242292621E1,-1.224110942E-1,-1.145190634E0,-1.485602081E-1,1.161256302E0
1.243289621E1,-7.440845042E-2,-1.170036331E0,2.390885550E-1,1.196530388E0
1.244286721E1,3.804490864E-2,-1.050806926E0,2.002922791E0,2.262154353E0
1.245283821E1,2.068118515E-1,-3.007717100E-1,1.689143073E0,1.728131674E0
1.246280921E1,4.634052160E-1,7.351224768E-1,3.794743556E-1,9.482353277E-1
1.247277921E1,9.150890303E-1,2.262732124E-1,-1.194721813E0,1.521823811E0
1.248275021E1,1.147034992E0,-2.137946695E-2,-1.362555029E0,1.781208175E0
1.249272121E1,1.087447260E0,-3.368797284E-1,-1.057616301E0,1.553892446E0
1.250269221E1,6.139463876E-1,9.915182054E-2,-3.297151351E-1,7.038986580E-1
1.251266221E1,5.713258865E-1,-3.783277166E-1,6.070947665E-1,9.154830339E-1
1.252263321E1,1.134739248E0,1.228634495E-1,1.600933147E0,1.966142296E0
1.253260421E1,9.147801512E-1,2.079606101E-1,1.635017737E0,1.885034042E0
1.254257421E1,8.160621209E-1,5.691536459E-1,1.431527030E0,1.743319505E0
1.255254521E1,5.094782786E-1,1.519991018E0,1.940357584E-1,1.614803606E0
1.256251621E1,3.196510537E-1,1.665906530E0,-5.411340809E-1,1.780518873E0
1.257248721E1,3.884520243E-1,9.450249472E-1,-1.079205390E0,1.486153222E0
1.258245721E1,1.623580290E-1,5.370527244E-1,-1.129430634E0,1.261110350E0
1.259242821E1,2.129637802E-1,5.541882822E-1,-6.420266175E-1,8.744577756E-1
1.260239921E1,-3.431285747E-1,6.570194632E-2,-6.109872580E-2,3.546646569E-1
1.261236921E1,-2.679895878E-1,-5.960689643E-1,2.548479706E-1,7.014728202E-1
1.262234021E1,-3.500194453E-1,-9.148924908E-1,1.547050470E-1,9.917033495E-1
1.263231121E1,2.078655928E-2,2.543532962E-1,1.598669690E-1,3.011397152E-1
1.264228221E1,-3.082655746E-1,-1.266354883E-1,9.562355214E-1,1.012645340E0
1.265225221E1,3.600719784E-1,-1.141491978E0,2.574581677E-1,1.224312245E0
1.266222321E1,3.523714878E-1,-8.004923013E-1,-4.360578614E-1,9.772922021E-1
1.267219421E1,7.786210104E-1,-2.047419810E0,-2.302078038E-1,2.202538124E0
1.268216421E1,5.858430612E-1,-1.524430516E0,2.211551446E-1,1.648032187E0
1.269213521E1,7.229760557E-1,-8.781281224E-1,8.375750506E-1,1.412563394E0
1.270210621E1,7.009008432E-1,-6.321465772E-1,1.434292763E0,1.716993599E0
1.271207721E1,7.680984342E-1,-4.716235507E-1,1.400109356E0,1.665145695E0
1.272204721E1,6.146123855E-1,-1.923000124E-1,1.112068496E0,1.285077437E0
1.273201821E1,7.282786763E-1,-2.578519776E-1,6.954777700E-1,1.039503151E0
1.274198921E1,1.812472399E-1,-7.780030328E-1,1.592424864E-1,8.145535283E-1
1.275195921E1,2.551693482E-1,-1.128845912E0,-3.893415320E-1,1.221061554E0
1.276193021E1,-6.087523060E-1,-8.455491909E-1,-6.957730544E-1,1.252849930E0
1.277190121E1,-3.606966803E-1,-6.524358308E-1,8.443671763E-2,7.502693968E-1
1.278187221E1,-2.105954386E-1,-7.197156483E-1,-8.446244538E-2,7.546356457E-1
1.279184221E1,1.543283401E-1,-4.469939089E-1,8.031431365E-1,9.320191462E-1
1.280181321E1,2.328964267E-1,-6.928626028E-1,9.711453366E-1,1.215492738E0
1.281178421E1,6.870903777E-1,-4.721357667E-1,4.348732156E-1,9.402765992E-1
1.282175421E1,6.971182794E-1,-1.918693650E-1,-1.568848890E-1,7.398652696E-1
1.283172521E1,6.774552626E-1,-2.494433892E-1,-8.063181746E-1,1.082273827E0
1.284169621E1,-2.476899554E-1,-5.800028622E-1,-8.596056050E-1,1.066149816E0
1.285166721E1,-8.510419922E-1,-7.848685411E-1,-3.810145122E-1,1.218795782E0
1.286163721E1,-1.422112136E0,-3.818983188E-1,3.814191395E-1,1.521094939E0
1.287160821E1,-9.163895973E-1,-4.514734608E-1,1.265187778E0,1.626129852E0
1.288157921E1,2.171996494E-1,-3.178835866E-1,1.507265430E0,1.555658940E0
1.289154921E1,1.062101407E0,2.462098789E-1,8.294135070E-1,1.369892503E0
1.290152021E1,1.208194456E0,3.890871781E-1,3.757280445E-1,1.323742512E0
1.291149121E1,1.339838596E0,3.346911156E-1,-6.568972564E-1,1.529280750E0
1.292146221E1,7.271700443E-1,-5.498633891E-2,-1.299581686E0,1.490205465E0
1.293143221E1,4.982663157E-1,9.096162558E-2,-1.521122746E0,1.603233529E0
1.294140321E1,5.913018756E-2,9.073767722E-2,-1.027357544E0,1.033050448E0
1.295137421E1,-5.536721192E-2,4.360584462E-1,-7.192069405E-1,8.428944892E-1
1.296134521E1,-7.170424475E-1,2.883685961E-1,-4.243950051E-1,8.817127872E-1
1.297131521E1,-1.343500707E0,-3.797374803E-1,1.894701939E0,2.353527171E0
1.298128621E1,-1.425727470E0,4.999433702E-1,2.373342733E0,2.813431698E0
1.299125721E1,-1.794671136E0,1.988364101E0,3.003013015E-2,2.678682156E0
1.300122721E1,-2.279568305E0,1.698433129E0,-1.550458812E0,3.238059493E0
1.301119821E1,-2.206300646E0,4.888590959E-1,-1.537962728E0,2.733509668E0
1.302116921E1,-2.046964604E0,-6.750902832E-3,-1.005984217E0,2.280814309E0
1.303113921E1,-1.209175326E0,5.628199419E-1,-6.100569659E-1,1.466642683E0
1.304111021E1,-1.035759628E0,9.696683300E-1,-8.972026169E-2,1.421655515E0
1.305108121E1,-8.846718145E-1,4.226952195E-3,3.570765960E-1,9.540260908E-1
1.306105221E1,-9.658971682E-1,-6.318024686E-1,4.158370203E-1,1.226805660E0
1.307102221E1,-1.095967530E0,-7.899257979E-1,2.158107895E-1,1.368101564E0
1.308099321E1,-2.318829580E-1,-3.898174953E-1,8.444987386E-1,9.585955902E-1
1.309096421E1,1.295991495E-1,-4.815269798E-1,1.114869313E0,1.221309853E0
1.310093521E1,3.865060709E-1,-1.772467065E0,8.370534790E-1,1.997920160E0
1.311090521E1,6.400056736E-1,-1.683194993E0,9.398346663E-2,1.803215333E0
1.312087621E1,7.397316176E-1,-4.019460824E-1,-2.565553576E-1,8.801046363E-1
1.313084721E1,1.250770591E0,-8.223512399E-1,8.448419702E-1,1.718850368E0
1.314081721E1,1.258220821E0,-1.483214078E0,1.973498433E0,2.770873454E0
1.315078821E1,1.279029307E0,-1.086076746E0,1.067128551E0,1.988527599E0
1.316075921E1,1.228724834E0,7.250132257E-1,-9.802055973E-1,1.730956934E0
1.317073021E1,1.340511903E0,5.803604195E-1,-1.140901701E0,1.853495905E0
1.318070021E1,1.029996100E0,-1.093258004E0,-1.889948738E-1,1.513877172E0
1.319067121E1,8.966549521E-1,-2.208065336E0,-3.713952577E-1,2.411944665E0
1.320064221E1,5.969073088E-1,-1.285189057E0,-7.068628836E-1,1.583560666E0
1.321061221E1,4.028191448E-1,-1.274883047E-1,1.682360888E-1,4.547745736E-1
1.322058321E1,3.912247009E-1,1.669380069E-1,5.234877688E-1,6.745105698E-1
1.323055421E1,-6.848010466E-2,-5.349100122E-1,1.249871582E-1,5.535702625E-1
1.324052521E1,1.337774237E-1,-6.666778940E-1,-8.047932208E-2,6.847136151E-1
1.325049521E1,1.178738668E0,-1.931925899E-1,5.601077110E-1,1.319268310E0
1.326046621E1,1.014218047E0,3.010351270E-2,7.543177164E-1,1.264333692E0
1.327043721E1,1.368810526E0,-2.897915161E-1,5.474163294E-1,1.502426709E0
1.328040721E1,1.276058191E0,1.938275975E-1,1.421458125E-3,1.290695806E0
1.329037821E1,1.539051187E0,9.562685582E-1,-3.485800070E-1,1.845165611E0
1.330034921E1,2.084528726E0,5.010286134E-1,-4.680421311E-1,2.194391286E0
1.331032021E1,1.754956116E0,-4.300226578E-1,-1.632080680E-1,1.814229128E0
1.332029021E1,1.410980792E0,-9.467624474E-1,2.868760943E-2,1.699426052E0
1.333026171E1,1.212469501E0,1.510192546E-1,3.355804771E-1,1.267084592E0
1.334023271E1,6.812358530E-1,7.552059084E-2,1.876587265E0,1.997840186E0
1.335020271E1,7.002569917E-1,1.914583057E-2,2.098517751E0,2.212352406E0
1.336017371E1,5.525128356E-1,2.271526337E-2,5.272966450E-1,7.640864929E-1
1.337014471E1,9.319439949E-1,-1.401966432E-1,-7.095526028E-1,1.179677755E0
1.338011571E1,5.828320375E-1,9.591497737E-1,-8.004966867E-1,1.378570425E0
1.339008571E1,5.141994667E-1,1.239739234E0,-6.969834280E-1,1.512329448E0
1.340005671E1,6.019014157E-2,1.075178998E0,-7.409755397E-1,1.307163907E0
1.341002771E1,5.529295228E-1,1.045886494E0,-8.685191005E-1,1.467629055E0
1.341999771E1,3.714358959E-1,5.815485737E-1,-1.462224913E-1,7.053682621E-1
1.342996871E1,3.163655032E-1,4.951699957E-1,2.524061733E-1,6.395227382E-1
1.343993971E1,3.022506170E-2,3.961397973E-1,5.603989023E-1,6.869404800E-1
1.344991071E1,5.504337119E-1,7.508374536E-1,1.137429040E0,1.469856787E0
1.345988071E1,3.367381527E-1,-1.991213742E-1,1.573193956E0,1.621104910E0
1.346985171E1,4.484557859E-1,-2.769007444E-1,1.450314134E-1,5.466449717E-1
1.347982271E1,2.489976852E-1,-6.173358724E-1,-1.219545583E0,1.389386503E0
1.348979271E1,7.190962820E-1,-1.485683942E0,-1.279946736E0,2.088688556E0
1.349976371E1,5.043934668E-1,-2.257269071E0,-2.934799397E-1,2.331481697E0
1.350973471E1,5.556358335E-1,-1.969005724E0,5.494722104E-1,2.118403746E0
1.351970571E1,1.239199682E-1,-1.655884110E0,1.492399469E0,2.232613831E0
1.352967571E1,5.608682875E-1,-6.499741530E-1,1.069949833E0,1.371798921E0
1.353964671E1,2.119857603E-1,-1.026754112E0,1.132099888E0,1.542988051E0
1.354961771E1,6.768553383E-1,-1.157301972E0,8.833862311E-1,1.605569132E0
1.355958771E1,-3.136811927E-2,-1.185181496E0,5.632365561E-1,1.312583161E0
1.356955871E1,-9.504773296E-2,-5.741647097E-1,2.668201447E-2,5.825900062E-1
1.357952971E1,5.950755224E-2,-5.265598959E-1,-2.959802091E-2,5.307377088E-1
1.358950071E1,-3.386227103E-1,-9.170287710E-1,-3.221388978E-1,1.029262151E0
1.359947071E1,-1.218393096E-1,-8.321660838E-1,-5.437103641E-1,1.001481986E0
1.360944171E1,7.443115224E-1,-8.420853004E-1,3.508943349E-1,1.177384444E0
1.361941271E1,6.216413965E-1,-3.549505484E-1,9.594970983E-1,1.197105927E0
1.362938271E1,1.141539413E0,9.761049449E-2,1.138606669E0,1.615260099E0
1.363935371E1,1.185919342E0,4.685256958E-1,1.336974045E0,1.847544481E0
1.364932471E1,1.557598555E0,8.625011462E-1,4.654769576E-1,1.840296249E0
1.365929571E1,1.345934026E0,5.780101311E-1,-1.243749547E-1,1.470069129E0
1.366926571E1,1.461922319E0,-1.637661847E-1,-4.629913062E-1,1.542205298E0
1.367923671E1,1.182317895E0,-6.414477432E-1,-9.077580106E-1,1.622761664E0
1.368920771E1,1.065226963E0,-5.198408604E-1,-1.069912410E0,1.596764093E0
1.369917871E1,6.762593608E-1,-1.215089419E-1,6.111059564E-1,9.195333795E-1
1.370914871E1,1.028926937E0,6.492315567E-1,2.763558424E0,3.019511123E0
1.371911971E1,5.794587788E-1,1.033611726E0,1.802549236E0,2.157153083E0
1.372909071E1,7.928844890E-1,4.433013922E-1,-1.075053867E0,1.407452576E0
1.373906071E1,1.032493885E0,4.973817050E-2,-1.987313064E0,2.240073821E0
1.374903171E1,9.060943316E-1,-8.194466355E-1,-1.172197169E0,1.693087691E0
1.375900271E1,7.375066790E-1,-3.810238677E-1,-3.850976229E-3,8.301265683E-1
1.376897371E1,5.824679022E-1,1.038246229E-1,3.198672545E-1,6.725797126E-1
1.377894371E1,3.760673292E-1,2.158140054E-1,5.140170336E-1,6.724699487E-1
1.378891471E1,-2.518977579E-1,-4.663829836E-1,6.448508227E-1,8.347443629E-1
1.379888571E1,-7.388249338E-3,-4.276770473E-2,4.578317231E-1,4.598842783E-1
1.380885571E1,4.663853225E-1,1.284063760E0,1.561726981E-1,1.375036334E0
1.381882671E1,7.696220724E-1,7.630765530E-1,-2.011184907E-1,1.102294247E0
1.382879771E1,3.670551619E-1,1.687199458E-1,-1.128014438E0,1.198170474E0
1.383876771E1,4.922560358E-1,-2.702977762E-1,-3.201362264E-1,6.464240837E-1
1.384873871E1,-3.071404973E-1,7.739491582E-2,7.590878749E-1,8.225203097E-1
1.385870971E1,-1.652740355E-1,4.798719254E-1,1.130676091E0,1.239363140E0
1.386868071E1,-7.267777692E-1,2.068434995E-1,3.888836950E-1,8.498356825E-1
1.387865071E1,-2.887977818E-1,-7.488906232E-1,1.078637041E0,1.344507044E0
1.388862171E1,-5.353467992E-1,-3.268271953E-2,-1.674408674E-2,5.366048080E-1
1.389859271E1,-4.424335192E-1,3.382009068E-1,-1.988977182E-1,5.913438717E-1
1.390856271E1,-9.049867228E-2,-6.053534657E-1,-1.770186067E-2,6.123366590E-1
1.391853371E1,-2.779472499E-1,-7.265133289E-1,-3.370522213E-1,8.477502525E-1
1.392850471E1,-4.589961961E-1,-1.475683449E0,-5.695527184E-1,1.647030494E0
1.393847571E1,4.823075831E-3,-1.543632773E0,-6.945106405E-1,1.692681431E0
1.394844571E1,-2.374383245E-1,-5.208316711E-1,2.197290087E-1,6.131259453E-1
1.395841671E1,5.394158766E-2,-3.939962080E-1,1.231656336E0,1.294264284E0
1.396838771E1,5.996318190E-1,-9.107260573E-1,1.321861916E0,1.713563304E0
1.397835771E1,8.875954954E-1,-7.609458277E-1,1.109325567E0,1.611666073E0
1.398832871E1,4.854561625E-1,-5.136732173E-1,8.042125922E-1,1.070647353E0
1.399829971E1,5.619557235E-1,-2.795103568E-1,7.293308097E-1,9.622077243E-1
1.400827071E1,2.530686629E-1,-9.381231862E-1,1.029086566E-1,9.770921411E-1
1.401824071E1,3.907065645E-2,-9.304861379E-1,-7.817674702E-1,1.215932295E0
1.402821171E1,1.075090997E-1,-5.765114897E-1,-1.076761839E0,1.226107565E0
1.403818271E1,9.958378360E-2,-5.664417073E-1,-5.288104892E-1,7.812897486E-1
1.404815271E1,2.379144341E-2,-8.995339018E-1,-8.258081138E-2,9.036298267E-1
1.405812371E1,5.361414358E-2,-5.681894401E-1,7.169148320E-1,9.163408714E-1
1.406809471E1,-9.237811357E-2,-1.405682337E-1,1.498093488E0,1.507506962E0
1.407806571E1,1.844748299E-1,3.497722542E-1,1.624861708E0,1.672288002E0
1.408803571E1,7.120807926E-1,-1.455769587E-1,3.652141660E-1,8.134083189E-1
1.409800671E1,1.213584785E0,-1.756822255E-1,9.720528245E-2,1.230081762E0
1.410797771E1,1.103846288E0,-6.281388956E-1,-4.576908052E-1,1.350005916E0
1.411794771E1,8.358176699E-1,1.267562333E-1,-4.220046633E-1,9.448525049E-1
1.412791871E1,3.680411486E-1,-1.236262187E-1,-3.213419223E-1,5.039824998E-1
1.413788971E1,1.221474140E0,-6.517642781E-1,-5.599755639E-1,1.493441791E0
1.414786071E1,9.690662129E-1,-1.044224130E0,1.663415909E-2,1.424699988E0
1.415783071E1,9.410327607E-1,-7.242583501E-1,7.355417222E-1,1.396822981E0
1.416780171E1,1.074831819E0,7.666149956E-1,7.906429589E-1,1.538856159E0
1.417777271E1,1.302517719E0,1.276184052E-1,1.232705326E0,1.797888007E0
1.418774271E1,1.332600620E0,-1.546217242E-1,3.416890633E-1,1.384371231E0
1.419771371E1,1.545012569E0,3.659351277E-1,-3.042803317E-1,1.616650512E0
1.420768471E1,1.681597534E0,4.388230097E-1,-2.624639690E-1,1.757618626E0
1.421765571E1,1.425885783E0,8.651759550E-1,1.519048154E-1,1.674740210E0
1.422762571E1,1.450678124E0,1.352388475E0,-1.848515368E-1,1.991881446E0
1.423759671E1,1.473040800E0,1.133200918E0,8.581899941E-2,1.860472634E0
1.424756771E1,1.761849691E0,1.608692987E0,5.019425333E-2,2.386320792E0
1.425753771E1,1.109466485E0,2.302736727E0,-7.254622918E-1,2.657029893E0
1.426750871E1,1.561262128E0,1.098615223E0,3.816015726E-1,1.946821666E0
1.427747971E1,1.097744572E0,1.158323188E0,4.904644489E-2,1.596609316E0
1.428745071E1,1.490044211E0,8.237674356E-1,-7.521805590E-1,1.861343636E0
1.429742071E1,1.337136451E0,3.082883057E-1,-4.063230157E-2,1.372817014E0
1.430739171E1,1.423044036E0,-8.505880290E-1,3.397653294E-1,1.692334129E0
1.431736271E1,8.773498580E-1,-9.374504641E-1,3.612725580E-1,1.333819331E0
1.432733275E1,1.002491090E0,-1.028024419E0,4.781613225E-1,1.513426854E0
1.433730375E1,1.122956158E0,-2.359454134E0,1.418424005E0,2.973210555E0
1.434727475E1,7.252503303E-1,-1.168150019E0,1.037872592E0,1.722713565E0
1.435724575E1,5.947828692E-1,-1.527035451E0,1.169034995E0,2.013019312E0
1.436721575E1,7.557157856E-1,-1.117917759E0,3.408675295E-1,1.391774815E0
1.437718675E1,6.757706067E-1,-1.204832234E0,-3.033360064E-1,1.414319397E0
1.438715775E1,6.721712069E-1,-2.040641133E0,2.451661509E-1,2.162437700E0
1.439712775E1,1.535779962E-1,-2.135625058E0,1.329852136E0,2.520513300E0
1.440709875E1,-3.779859468E-2,-1.670017123E0,1.590043877E0,2.306214530E0
1.441706975E1,-2.809930645E-1,-5.109776509E-1,1.571777176E0,1.676466150E0
1.442704075E1,-1.212116110E-1,-4.550420165E-2,1.490948775E0,1.496559767E0
1.443701075E1,-3.724078493E-1,-6.051961756E-1,1.266639057E0,1.452351376E0
1.444698175E1,1.062268053E-1,-4.557123998E-1,-6.016200185E-3,4.679680760E-1
1.445695275E1,2.137822442E-1,1.937577233E-1,-6.888733399E-1,7.468543243E-1
1.446692275E1,7.217399544E-1,-3.432631338E-1,-7.345997357E-1,1.085529784E0
1.447689375E1,5.797775982E-1,-7.062930724E-1,-4.281003857E-1,1.009089643E0
1.448686475E1,3.078779043E-1,-5.591785884E-1,-1.841691667E-1,6.643702128E-1
1.449683575E1,1.987597239E-1,-1.301482031E-1,2.416350174E-1,3.388679156E-1
1.450680575E1,3.298896745E-1,-7.547264367E-2,2.868848652E-1,4.436510376E-1
1.451677675E1,4.023374804E-1,5.969685584E-2,2.676165354E-1,4.868857903E-1
1.452674775E1,7.902839398E-1,7.026906028E-1,1.250807136E-1,1.064879324E0
1.453671775E1,6.169822620E-1,1.883654210E-1,-1.445297223E-1,6.610881061E-1
1.454668875E1,7.138424856E-1,-1.867673770E-1,-6.332692426E-1,9.723595431E-1
1.455665975E1,1.054547536E-1,-5.694653025E-1,-5.687101346E-1,8.116912301E-1
1.456663075E1,-1.414969908E-1,-9.017637375E-1,-5.717933714E-2,9.145866352E-1
1.457660075E1,-6.974272317E-1,-5.043203035E-1,1.176699525E-1,8.686713589E-1
1.458657175E1,-8.052905995E-1,5.310134277E-1,-6.389334404E-1,1.157023834E0
1.459654275E1,-1.077851614E0,1.342137721E-1,-5.674395347E-1,1.225465244E0
1.460651275E1,-9.990799709E-1,-1.612735167E-1,4.337885571E-1,1.101064234E0
1.461648375E1,-1.154792859E0,3.770711499E-1,4.673334485E-1,1.301587396E0
1.462645475E1,-9.000357391E-1,2.372516522E-1,-3.323668474E-1,9.883422481E-1
1.463642575E1,-5.911903399E-1,3.192889649E-1,-9.904774010E-2,6.791626579E-1
1.464639575E1,-5.668002878E-1,3.532890621E-1,-1.835142785E-1,6.926422006E-1
1.465636675E1,-4.488167784E-1,4.770491821E-1,-6.306058359E-1,9.092173244E-1
1.466633775E1,-1.573682345E-1,2.614559090E-1,-5.610613918E-1,6.386813282E-1
1.467630775E1,-2.377488117E-1,-2.625721425E-2,-2.492925310E-1,3.454861861E-1
1.468627875E1,-4.222767781E-1,-2.332869476E-1,-4.511904556E-1,6.605401611E-1
1.469624975E1,-2.227203711E-1,-1.089126069E0,2.552005577E-1,1.140581993E0
1.470621975E1,2.177872945E-1,-8.446937433E-1,1.180603711E0,1.467911424E0
1.471619075E1,-2.113573308E-1,-1.083587586E0,1.368701622E0,1.758459015E0
1.472616175E1,4.688177642E-1,-1.037099883E0,1.790915616E0,2.121967249E0
1.473613275E1,-6.416515186E-3,-1.170877452E0,1.657245342E0,2.029151868E0
1.474610275E1,4.644742332E-1,-8.449998450E-1,7.107764250E-1,1.197899903E0
1.475607375E1,1.467364615E-1,-4.830498871E-1,-8.124635983E-1,9.565384891E-1
1.476604475E1,7.184494337E-1,-1.192704231E0,-1.820080943E0,2.291594993E0
1.477601475E1,4.097692184E-2,-1.559022059E0,-2.300418599E0,2.779236337E0
1.478598575E1,4.074217806E-1,-2.147007833E0,-8.966611648E-1,2.362125396E0
1.479595675E1,-9.442215398E-2,-1.495743492E0,1.254055265E0,1.954179813E0
1.480592775E1,3.810335887E-1,-7.531690308E-1,3.149248370E0,3.260401123E0
1.481589775E1,4.209227823E-1,8.125711870E-1,2.434372462E0,2.600695524E0
1.482586875E1,8.248884930E-1,5.876387411E-1,1.281847081E0,1.633674464E0
1.483583975E1,6.268212987E-1,4.229296929E-1,-9.306662321E-2,7.618634142E-1
1.484580975E1,7.175904778E-1,3.502958724E-1,-4.866204894E-1,9.351164594E-1
1.485578075E1,1.890188473E-1,4.668446213E-2,-7.610946393E-1,7.856033437E-1
1.486575175E1,6.246814370E-1,-2.822807676E-1,-5.481665272E-1,8.777219782E-1
1.487572275E1,5.790350749E-1,-7.568595010E-1,-6.627374554E-1,1.160749265E0
1.488569275E1,4.561870475E-1,-4.713256350E-1,-2.379167730E-1,6.977527265E-1
1.489566375E1,6.909421579E-1,-1.547667351E-1,6.775461137E-2,7.112977543E-1
1.490563475E1,7.211707279E-1,-4.479192308E-1,6.029941142E-1,1.041307235E0
1.491560475E1,5.359462119E-1,-9.637772602E-1,8.791803288E-1,1.410341448E0
1.492557575E1,2.988676373E-1,-4.985330218E-1,7.741274983E-1,9.680549685E-1
1.493554675E1,3.577386470E-1,-5.147719091E-1,6.159784412E-1,8.788609094E-1
1.494551775E1,4.090859713E-1,-8.525734511E-1,5.703046703E-1,1.104300792E0
1.495548775E1,8.180691777E-1,-1.402334222E0,5.279965568E-1,1.707207900E0
1.496545875E1,1.009167587E0,-1.824773041E0,2.577937979E-1,2.101112446E0
1.497542975E1,1.301272700E0,-1.084533081E0,4.832782209E-2,1.694655783E0
1.498539975E1,1.276670394E0,5.854966137E-1,1.082027256E-2,1.404567784E0
1.499537075E1,1.073132472E0,4.771292889E-1,-2.006343412E-1,1.191436024E0
1.500534175E1,1.298697733E0,6.956122559E-1,-1.253034925E-1,1.478578093E0
1.501531275E1,1.494655032E0,9.701682669E-1,-1.538706493E-1,1.788545864E0
1.502528275E1,1.416519859E0,3.654743671E-1,-5.923100817E-1,1.578268436E0
1.503525375E1,1.050635748E0,-2.009632471E-1,-3.536267388E-1,1.126620421E0
1.504522475E1,8.147071749E-1,-4.456484646E-2,-2.150763792E-1,8.437959796E-1
1.505519475E1,5.258472665E-1,6.147285989E-1,3.131476343E-2,8.095598881E-1
1.506516575E1,6.983794507E-1,7.099715558E-1,2.890921891E-1,1.036999403E0
1.507513675E1,1.414132002E0,8.172390193E-1,3.941140294E-1,1.680171064E0
1.508510775E1,1.187685566E0,8.305735946E-1,6.107843596E-1,1.572738705E0
1.509507775E1,1.238113562E0,1.167439290E0,8.793376189E-1,1.915482794E0
1.510504875E1,1.003033712E0,7.521448910E-1,9.061944652E-1,1.546928238E0
1.511501975E1,9.034948057E-1,1.298754012E0,-1.400794065E-1,1.588296914E0
1.512498975E1,9.167498589E-1,5.847315055E-1,-5.032335985E-1,1.198159126E0
1.513496075E1,4.912754577E-1,-3.429669723E-1,5.455744565E-2,6.016264907E-1
1.514493175E1,4.794816238E-1,-6.753724113E-1,9.591310626E-1,1.267265922E0
1.515490275E1,5.170879912E-1,-1.042713502E-1,8.661492240E-1,1.014133612E0
1.516487275E1,4.975562444E-1,-3.251212701E-1,6.431983995E-1,8.757683700E-1
1.517484375E1,8.406919089E-1,-1.141018938E0,2.220392436E-1,1.434569109E0
1.518481475E1,7.007765899E-1,-6.080107328E-1,1.417230588E-1,9.385362569E-1
1.519478475E1,9.175828678E-1,-1.103136874E0,-1.599786508E-1,1.443766758E0
1.520475575E1,5.731486098E-1,-9.991102302E-1,2.714119631E-1,1.183378652E0
1.521472675E1,3.393837254E-1,-1.054063825E0,8.804883510E-1,1.414740823E0
1.522469675E1,-1.382145102E-1,-9.051466441E-1,7.086550552E-1,1.157836640E0
1.523466775E1,-4.828731550E-1,-8.420838386E-1,5.908552945E-1,1.136389746E0
1.524463875E1,-1.472158601E-1,-9.604560417E-1,8.859250921E-1,1.314918852E0
1.525460975E1,-3.041921850E-1,-6.341296604E-1,9.478605545E-1,1.180293583E0
1.526457975E1,4.859394349E-2,-1.237150964E-1,6.996199375E-1,7.121340137E-1
1.527455075E1,-3.769938936E-1,-2.878648585E-1,1.147270489E-1,4.880090863E-1
1.528452175E1,-4.097027063E-2,-2.985570771E-1,-4.790284646E-1,5.659356511E-1
1.529449175E1,-2.871984221E-1,-4.666671583E-1,-3.559416515E-1,6.534184184E-1
1.530446275E1,-3.833531792E-1,-5.821531758E-1,-1.010919267E-1,7.043305742E-1
1.531443375E1,-1.086841708E0,-9.441706690E-1,3.619981974E-1,1.484495148E0
1.532440408E1,-8.911215127E-1,-5.249831942E-1,-6.323471367E-2,1.036196667E0
1.533437408E1,-1.052071094E0,-6.408799785E-1,-3.763917035E-1,1.288119345E0
1.534434508E1,-6.885211913E-1,-6.430843788E-1,-3.523590624E-2,9.427939957E-1
1.535431608E1,-6.199408069E-1,-4.443413195E-1,7.815177941E-1,1.092032909E0
1.536428608E1,-3.611489625E-1,-4.897247761E-1,1.049288696E-1,6.174698350E-1
1.537425708E1,-3.788671953E-1,-1.077738324E-1,-1.806298470E-1,4.333390039E-1
1.538422808E1,3.499200426E-2,2.888773039E-1,-1.620766318E-1,3.330816291E-1
1.539419908E1,1.989854264E-1,-2.007425147E-1,-1.316360271E-1,3.118025028E-1
1.540416908E1,1.423196941E-1,-1.847430709E-1,-5.984391332E-1,6.422727564E-1
1.541414008E1,1.005715245E-1,3.129809886E-2,-4.679140770E-1,4.796225454E-1
1.542411108E1,1.633077630E-1,-1.731237763E-1,6.374634504E-2,2.463835707E-1
1.543408108E1,4.916587427E-2,-5.357809550E-1,4.028977168E-1,6.721644777E-1
1.544405208E1,6.853706384E-1,-1.740186927E-1,5.798438179E-1,9.144584576E-1
1.545402308E1,3.549023820E-1,8.579648763E-2,9.800196558E-1,1.045827550E0
1.546399408E1,4.642847103E-1,9.118051609E-1,7.523495436E-1,1.270031015E0
1.547396408E1,4.542605361E-1,3.361324543E-1,4.352427596E-1,7.132838995E-1
1.548393508E1,1.349215776E-2,1.635676718E-1,-5.792006242E-1,6.020048045E-1
1.549390608E1,-1.219889253E-1,4.871414763E-1,-1.174690422E0,1.277531097E0
1.550387608E1,-4.447966714E-1,1.640635157E-1,-1.007535483E0,1.113502881E0
1.551384708E1,-2.111987981E-1,-9.669189692E-2,-7.268691319E-1,7.630812474E-1
1.552381808E1,-2.584498554E-1,3.919090444E-1,-2.570301515E-1,5.352135327E-1
1.553378908E1,-3.489338366E-1,-9.229596019E-2,-2.798494953E-1,4.567155642E-1
1.554375908E1,-1.804528226E-1,-4.225247732E-1,9.284758651E-1,1.035933317E0
1.555373008E1,-3.313373720E-1,-1.232207143E-1,1.191817501E0,1.243139877E0
1.556370108E1,-2.818804526E-1,-1.235159987E-1,8.164186549E-1,8.724976857E-1
1.557367108E1,-5.594075800E-1,2.649519593E-1,-2.263843095E-1,6.590798410E-1
1.558364208E1,-3.768314872E-1,-2.637567884E-1,-6.042658836E-1,7.594121879E-1
1.559361308E1,-1.120931048E0,-1.105979791E0,-1.245012546E-1,1.579613331E0
1.560358308E1,-1.321605808E0,-1.411428688E0,-2.372004890E-1,1.948085452E0
1.561355408E1,-1.647701517E0,-1.076080346E0,-7.824568570E-2,1.969515571E0
1.562352508E1,-1.222326884E0,-6.213216269E-1,6.154592085E-1,1.502968267E0
1.563349608E1,-1.207529701E0,-4.241456214E-1,1.397834789E0,1.895249214E0
1.564346608E1,-6.365689726E-1,-8.170159480E-1,1.435910103E0,1.770472519E0
1.565343708E1,-7.176952891E-1,-3.117717844E-1,2.538235384E-1,8.226266238E-1
1.566340808E1,-5.148114144E-1,-5.958605111E-2,-1.696897066E-1,5.453218191E-1
1.567337808E1,-4.308548993E-1,-6.779334918E-1,-2.031948370E-1,8.285637606E-1
1.568334908E1,-5.672499387E-1,-1.083692836E0,3.503411883E-1,1.272360642E0
1.569332008E1,-6.468087628E-1,-3.279981002E-1,4.699600178E-1,8.641798122E-1
1.570329108E1,-3.571925536E-1,9.759061396E-2,4.350299209E-1,5.712805619E-1
1.571326108E1,1.461238926E-1,3.100208357E-1,-2.635690928E-1,4.323583898E-1
1.572323208E1,-3.565644165E-1,-3.976896018E-1,-1.324242318E-1,5.503011717E-1
1.573320308E1,-4.942419330E-1,-9.472691086E-1,-5.735989916E-1,1.212686957E0
1.574317308E1,-4.105349478E-1,-1.226354080E-1,-5.719904226E-1,7.146687556E-1
1.575314408E1,-4.895862702E-1,-1.374490365E-1,-2.289588386E-1,5.576819016E-1
1.576311508E1,-1.799867264E-1,-3.968736228E-1,-5.190836459E-1,6.777549156E-1
1.577308608E1,-5.278007847E-1,-7.737711105E-1,-9.589287490E-1,1.340462512E0
1.578305608E1,-9.929254840E-1,-1.116091088E0,-4.453987885E-1,1.558826615E0
1.579302708E1,-5.186884473E-1,-6.892940471E-1,-1.634764552E-2,8.628042850E-1
1.580299808E1,-7.998932540E-1,-4.953307942E-1,-2.983687967E-1,9.870186180E-1
1.581296808E1,-5.274259051E-1,-1.097003438E0,3.939690185E-1,1.279377276E0
1.582293908E1,6.343534626E-3,-1.116760595E0,1.263455248E0,1.686272111E0
1.583291008E1,-2.992900986E-2,-3.888050500E-1,1.119042470E0,1.185040574E0
1.584288008E1,5.273709778E-1,3.250499341E-1,7.414538419E-1,9.661942908E-1
1.585285108E1,1.074963455E0,-5.995819715E-1,6.397666687E-1,1.387208117E0
1.586282208E1,1.543044250E0,-8.683164945E-1,3.254928607E-1,1.800251287E0
1.587279308E1,1.439256026E0,-5.147084668E-1,-6.086419398E-1,1.645243972E0
1.588276308E1,1.272542845E0,-2.185563496E-1,-4.777221966E-1,1.376717352E0
1.589273408E1,8.857525992E-1,1.961875337E-1,-2.947347522E-2,9.076981333E-1
1.590270508E1,5.143923883E-1,4.035777479E-1,2.845939261E-1,7.130695832E-1
1.591267508E1,1.027160274E-1,8.275564313E-2,4.552297121E-1,4.739548181E-1
1.592264608E1,4.243225727E-2,4.782051766E-1,7.006923169E-1,8.493823699E-1
1.593261708E1,-2.174961397E-1,1.198057357E0,7.107214612E-1,1.409883328E0
1.594258808E1,-5.956053532E-1,1.293868956E0,-1.922891951E-1,1.437295289E0
1.595255808E1,-8.799077956E-1,1.472500809E0,-1.221089832E0,2.105601278E0
1.596252908E1,-8.468490270E-1,6.570159549E-1,-1.281704409E0,1.670805025E0
1.597250008E1,-9.795769485E-1,1.415944201E-1,-6.453969526E-1,1.181590963E0
1.598247008E1,-1.220089812E0,4.600793928E-1,-9.378799421E-1,1.606210130E0
1.599244108E1,-8.676320779E-1,9.809581339E-2,-3.556229782E-1,9.428021605E-1
1.600241208E1,-4.266619706E-1,2.000773939E-1,1.914951432E-1,5.086666793E-1
1.601238308E1,-4.872822845E-1,-3.684564471E-1,1.711941367E0,1.817676380E0
1.602235308E1,-2.312132691E-1,-7.988846093E-1,1.263245333E0,1.512436765E0
1.603232408E1,-6.181256850E-1,-1.907250649E-1,1.493774734E0,1.627826271E0
1.604229508E1,-2.871801496E-1,-7.382013282E-1,2.221218647E0,2.358225163E0
1.605226508E1,-1.438221361E-1,-1.110263169E0,1.976722003E0,2.271739198E0
1.606223608E1,-1.751757836E-1,-1.964965591E-1,3.004837346E-1,3.994845775E-1
1.607220708E1,4.175953877E-1,-1.935016152E-1,-2.117153996E-1,5.066085208E-1
1.608217708E1,7.108810902E-1,-6.653833205E-1,-9.946809644E-1,1.391932868E0
1.609214808E1,2.392519847E-1,-6.948489019E-1,-2.049518083E0,2.177287506E0
1.610211908E1,-3.353068274E-1,-1.441889758E0,-2.023588606E0,2.507266956E0
1.611209008E1,-7.322609957E-1,-4.233340278E-1,-2.056607248E0,2.223747116E0
