"Time (s)","Linear Acceleration x (m/s^2)","Linear Acceleration y (m/s^2)","Linear Acceleration z (m/s^2)","Absolute acceleration (m/s^2)"
8.942041663E-3,3.274782097E-1,1.797235286E0,-4.777748215E-1,1.888270487E0
1.891204168E-2,4.905809547E-1,7.179603142E-1,-1.709054012E0,1.917551121E0
2.888204169E-2,4.232819145E-1,-1.104377361E0,-7.100700814E-1,1.379498625E0
3.885204170E-2,-9.859493172E-1,-2.188416060E0,9.455357015E-2,2.402124328E0
4.882204166E-2,-1.047279812E0,5.989756152E-1,6.490345055E-1,1.369968095E0
5.879104167E-2,-7.763054399E-1,1.876394015E0,3.124676031E-1,2.054541466E0
6.876104168E-2,2.384390390E-2,-2.156400508E-1,-6.355490720E-1,6.715592202E-1
7.873104169E-2,-4.113271359E-1,-1.751414165E0,1.917454040E-1,1.809256171E0
8.870104171E-2,-1.278865001E0,-1.818561544E0,1.046893677E0,2.457366100E0
9.867104166E-2,-1.402237304E0,2.774740639E-1,8.456406999E-1,1.660833979E0
1.086400417E-1,-1.081454741E0,1.180932325E0,-1.413196009E0,2.135712638E0
1.186100417E-1,-3.150981923E-1,-3.717250407E-1,-2.423872617E0,2.472372310E0
1.285800417E-1,-1.363827968E0,-2.519341861E0,9.431172931E-1,3.016053774E0
1.385500417E-1,-2.144790422E0,-1.360021723E0,3.827037143E0,4.593038029E0
1.485200417E-1,-1.326564247E0,6.602342623E-1,3.560802305E0,3.856811512E0
1.584900417E-1,-6.924633110E-1,4.843324739E-1,6.048278010E-1,1.039182396E0
1.684590417E-1,1.536987595E-1,-9.068125159E-1,-9.518466014E-1,1.323610290E0
1.784290417E-1,-1.786514051E-1,-1.971910329E0,-1.526883423E-2,1.980045405E0
1.883990417E-1,-6.353784064E-1,8.924713424E-1,8.154889476E-1,1.365735348E0
1.983690417E-1,-5.354296835E-1,2.344764467E0,-6.266899556E-1,2.485426654E0
2.083390417E-1,2.688463145E-1,1.676560450E-1,-1.635259811E0,1.665671498E0
2.183090417E-1,-1.035613246E-1,-7.516437846E-1,-2.120228462E0,2.251901876E0
2.282780417E-1,-7.523300285E-1,7.995950460E-2,-2.123914547E0,2.254641212E0
2.382480417E-1,-3.667741666E-1,1.642399262E0,-1.139103683E0,2.032130858E0
2.482180417E-1,-4.791968278E-1,3.484709564E-1,-2.951849878E-2,5.932393691E-1
2.581880417E-1,-3.135712285E-1,-1.807050715E0,1.024454402E0,2.100777480E0
2.681580417E-1,-9.482264440E-1,-1.965513767E0,6.927102828E-1,2.289590639E0
2.781280417E-1,-1.229214100E0,-5.425552467E-1,5.269124830E-1,1.443249896E0
2.880970417E-1,-4.007524464E-1,1.006761020E0,1.504983847E0,1.854493638E0
2.980670417E-1,2.971500177E-3,-1.253198355E0,1.907157678E0,2.282052882E0
3.080370417E-1,-1.604684830E-1,-1.857356358E0,1.488403482E0,2.385553960E0
3.180070417E-1,-9.725866753E-1,-9.256066364E-1,5.517403454E-1,1.451581860E0
3.279770417E-1,-8.873359521E-1,-7.707021993E-1,-4.694852239E-1,1.265607896E0
3.379470417E-1,-2.526264307E-1,3.488574573E-1,-6.565762442E-1,7.852477338E-1
3.479160417E-1,2.083730398E-1,-2.800374833E-1,-1.311845636E0,1.357490069E0
3.578860417E-1,8.963631760E-2,6.955409199E-2,-1.750803716E0,1.754476017E0
3.678560417E-1,-4.352691451E-1,9.864428222E-2,2.583007514E-2,4.470538177E-1
3.778260417E-1,-1.008142570E0,-1.223562620E0,2.870170122E0,3.278922606E0
3.877960417E-1,-1.606980630E0,9.053691307E-1,2.803292009E0,3.355670737E0
3.977650417E-1,-1.242778032E0,1.282477995E0,3.721676749E-1,1.824213755E0
4.077350417E-1,-6.178287195E-1,7.303540725E-1,-1.003120251E0,1.386138390E0
4.177050417E-1,-1.571322628E-1,-4.268180913E-1,-1.432250916E0,1.502733149E0
4.276750417E-1,-4.178329673E-1,7.534195840E-2,-1.413213551E0,1.475612869E0
4.376450417E-1,-3.602412553E-1,1.485014143E0,2.161657155E-2,1.528236907E0
4.476150417E-1,-2.402441841E-2,1.169545457E-1,1.025132094E0,1.032061698E0
4.575840417E-1,2.205633698E-1,-6.971220070E-1,2.850049853E-2,7.317373649E-1
4.675540417E-1,-3.824349470E-2,-1.077388076E0,-6.785769778E-1,1.273850205E0
4.775240417E-1,-4.143374653E-1,-7.849100563E-1,2.115548351E0,2.294189215E0
4.874940417E-1,-8.209595295E-1,-7.518563309E-1,3.353821396E0,3.533748781E0
4.974640417E-1,8.984758481E-2,-1.104572074E0,1.979374300E0,2.268496126E0
5.074340417E-1,8.183843426E-1,-9.545629254E-1,-6.548296809E-1,1.417654832E0
5.174030417E-1,9.323052067E-1,-8.825728834E-1,9.493890166E-2,1.287299999E0
5.273730417E-1,7.878475513E-1,2.227505574E-1,2.608934069E-1,8.592944458E-1
5.373430417E-1,5.229313331E-1,-4.782522467E-1,-3.397308308E-1,7.858749442E-1
5.473130417E-1,-2.873156405E-2,-1.201864187E0,-1.338848662E-1,1.209639692E0
5.572830416E-1,-5.758016012E-1,-1.997687779E0,1.325567297E0,2.465650544E0
5.672530417E-1,-1.330255010E0,-4.946957865E-1,2.011055099E0,2.461431478E0
5.772220417E-1,-2.164385173E0,1.645067638E0,4.775444412E-1,2.760228144E0
5.871920417E-1,-1.768958005E0,-4.207393259E-1,-7.120552111E-1,1.952756162E0
5.971620417E-1,-9.965273689E-1,-2.227511713E0,-1.069380314E0,2.664291554E0
6.071320417E-1,3.919005659E-1,-7.362980595E-1,-1.418531594E0,1.645585843E0
6.171020417E-1,3.111452553E0,3.243189737E0,-1.141258966E0,4.637012905E0
6.270720417E-1,1.032119078E0,1.849095411E0,-1.143911848E0,2.406856445E0
6.370410417E-1,1.074217496E0,-1.285327928E0,-1.546342957E-1,1.682237461E0
6.470110417E-1,2.953590009E0,-1.734675049E0,-1.734214581E0,3.839308750E0
6.569810417E-1,2.112191757E0,6.545615861E-1,-2.084498466E0,3.038904201E0
6.669510417E-1,-7.265006112E-1,2.872412237E0,-1.470885224E0,3.307878254E0
6.769210417E-1,-2.808783714E0,1.648328338E0,9.721463799E-1,3.398723414E0
6.868910417E-1,-2.339507528E0,-2.455672699E-1,1.315496637E0,2.695205031E0
6.968600417E-1,-1.992751267E0,3.772819421E-1,1.059948170E0,2.288425092E0
7.068300417E-1,-1.042736964E0,-7.042406997E-1,1.861783869E0,2.247108034E0
7.168000417E-1,1.948989170E-1,1.365210834E-1,1.103333341E0,1.128701934E0
7.267700417E-1,-2.124729430E-1,4.574194944E-1,-5.174809241E-1,7.226090590E-1
7.367400417E-1,-2.511057343E-1,-5.321805319E-1,-7.079399407E-2,5.926904740E-1
7.467090417E-1,-2.064177492E-1,-7.339641434E-1,-3.176207542E-1,8.259507216E-1
7.566790417E-1,1.990963408E-1,-3.435253814E-1,-2.965313092E0,2.991777193E0
7.666490417E-1,8.553889951E-2,1.176872018E-1,-2.170464231E0,2.175334953E0
7.766190417E-1,1.224473561E-1,-1.886029057E0,-3.992654264E-1,1.931712152E0
7.865890417E-1,3.884774962E-2,-2.153216699E0,8.617936331E-1,2.319599010E0
7.965590417E-1,-2.397971279E-1,-1.343565611E0,1.106100828E0,1.756738528E0
8.065280417E-1,-3.388622634E-1,3.801242736E-1,2.297839392E0,2.353590442E0
8.164980417E-1,-7.842389421E-1,9.342634392E-1,2.770805463E0,3.027415037E0
8.264680417E-1,-8.546646347E-1,-5.267095846E-1,1.789718106E0,2.052063723E0
8.364380417E-1,-5.915961367E-1,-5.578568253E-1,6.014943033E-1,1.011427518E0
8.464080417E-1,-2.499530106E-1,6.053672066E-1,6.555471343E-1,9.266542007E-1
8.563780417E-1,4.145889686E-2,2.848038411E0,-8.530304110E-1,2.973331888E0
8.663472917E-1,-5.114678668E-1,1.921811678E0,-1.369723130E0,2.414767268E0
8.763172917E-1,-4.495019259E-1,-2.779678613E-1,-1.740299778E0,1.818780204E0
8.862872917E-1,-7.489162778E-1,-1.591386106E0,-1.151357692E-1,1.762566757E0
8.962572917E-1,-9.555910852E-1,9.334717262E-1,1.973702500E0,2.383280375E0
9.062272917E-1,-1.067439404E0,3.382456965E0,3.296525699E-1,3.562178100E0
9.161972917E-1,-7.409334397E-1,7.369523630E-1,-7.313358200E-1,1.275512928E0
9.261662917E-1,4.718871139E-1,-7.600061801E-1,-1.521339093E0,1.764868120E0
9.361362917E-1,7.366651916E-1,-4.551206616E-1,-2.595059795E0,2.735716682E0
9.461062917E-1,1.495551995E0,1.929969128E0,-2.013976952E0,3.165052886E0
9.560762917E-1,1.110280345E0,1.519843083E0,-6.867642492E-1,2.003569459E0
9.660462917E-1,6.541996434E-1,-1.065859413E0,2.344675004E-1,1.272402637E0
9.760162917E-1,-7.892747104E-2,-8.750662279E-1,2.266146898E-2,8.789106844E-1
9.859852917E-1,-3.825293065E-1,2.411596388E-2,1.492183707E0,1.540624050E0
9.959552917E-1,-5.892093398E-1,9.646829939E-1,1.591518545E0,1.952104558E0
1.005925292E0,-1.088004865E0,-3.683459347E-1,8.549956602E-1,1.431939556E0
1.015895292E0,-8.398057634E-1,-1.298352016E0,2.268076479E-1,1.562828649E0
1.025865292E0,-7.083460298E-1,7.249664479E-1,-6.616522121E-1,1.210418976E0
1.035835292E0,2.967505250E-1,2.909522761E0,-1.381744421E0,3.234594444E0
1.045804292E0,-1.101185110E-1,6.152080706E-1,-9.029545230E-1,1.098150230E0
1.055774292E0,-1.484911561E-1,-1.494103348E0,3.995612955E-1,1.553719301E0
1.065744292E0,1.596449941E-1,-8.253005755E-1,-4.783706528E-1,9.671845974E-1
1.075714292E0,6.742976931E-1,2.753705281E-1,6.943586129E-1,1.006300248E0
1.085684292E0,1.740846383E-1,1.412452828E0,2.370606236E0,2.764977827E0
1.095654292E0,4.154467186E-1,-2.124696904E-1,8.130722934E-1,9.374571455E-1
1.105623292E0,4.968674059E-1,-1.155889285E-1,-1.468839283E0,1.554904132E0
1.115593292E0,5.715827255E-1,-2.140624720E-1,-2.863119550E0,2.927453349E0
1.125563292E0,5.415265387E-1,-4.944347084E-2,-4.561050403E-1,7.097375971E-1
1.135533292E0,1.919519934E-1,4.852955103E-2,9.314427423E-1,9.522532580E-1
1.145503292E0,-1.180775948E-1,-6.540002534E-1,8.866115552E-1,1.108033709E0
1.155473292E0,3.938223264E-1,-8.053574771E-1,7.019769502E-1,1.138625632E0
1.165442292E0,7.425238458E-2,-9.866960067E-1,2.717537329E0,2.892073920E0
1.175412292E0,7.343860200E-1,9.262948537E-1,1.337547072E0,1.785042619E0
1.185382292E0,5.743031426E-1,1.321546751E-1,-3.076582682E-1,6.647876110E-1
1.195352292E0,4.814972321E-1,-8.541209167E-1,-4.364578110E-1,1.073246265E0
1.205322292E0,4.383220130E-1,-1.516476257E0,1.089447373E-1,1.582306980E0
1.215292292E0,6.514183422E-1,1.014429643E0,-6.484147006E-1,1.368888228E0
1.225261292E0,-4.839420991E-1,1.121153900E0,-8.704334790E-1,1.499613438E0
1.235231292E0,-1.726146666E-1,-1.373532591E0,-8.818010509E-1,1.641328942E0
1.245201292E0,-5.411866693E-2,-1.334620248E0,7.154536128E-2,1.337631779E0
1.255171292E0,6.998691386E-2,-4.054333618E-1,9.064330316E-1,9.954372003E-1
1.265141292E0,9.290856566E-1,1.744368563E0,-2.753734517E-1,1.995457937E0
1.275110292E0,8.510982717E-1,8.782979840E-1,-1.822736163E0,2.195026819E0
1.285080292E0,1.236164831E0,-9.590468627E-1,-1.920360691E0,2.477026354E0
1.295050292E0,3.530118310E-1,-8.494089380E-1,4.320139271E-1,1.016242555E0
1.305020292E0,-1.688085220E-2,1.060396067E0,1.683926187E0,1.990058337E0
1.314990292E0,-5.783114820E-1,4.309383318E-1,1.423499388E0,1.595776464E0
1.324960292E0,-6.575451279E-1,-1.283494241E0,9.995043325E-1,1.754631578E0
1.334929292E0,-5.045697238E-1,-1.624294528E0,4.607196629E-1,1.762153775E0
1.344899292E0,-6.456885825E-1,6.916019431E-1,1.598605371E-1,9.595740641E-1
1.354869292E0,-3.322616341E-1,1.594700892E0,-3.969850123E-2,1.629430790E0
1.364839292E0,5.429689737E-2,-9.060193411E-1,-1.147200322E-1,9.148660477E-1
1.374809292E0,5.088206861E-1,-9.195989147E-1,-7.947670001E-1,1.317655205E0
1.384779292E0,1.312102676E-1,-5.722129092E-1,-4.621937460E-1,7.471725413E-1
1.394748292E0,6.963056626E-1,1.654686893E0,4.296545756E-1,1.845923439E0
1.404718292E0,4.283996900E-1,1.867769372E0,-2.651981270E-1,1.934533217E0
1.414688292E0,6.678221941E-1,-1.914398870E-1,-6.527071416E-1,9.532378119E-1
1.424658292E0,6.035258453E-1,-2.460534659E-1,-9.219304919E-2,6.582441131E-1
1.434628292E0,9.066191923E-2,1.398951900E0,1.111280876E-1,1.406284272E0
1.444598292E0,-8.321885224E-2,2.976547932E0,-9.890594512E-1,3.137674548E0
1.454567292E0,-1.792563361E-1,7.949444631E-1,-1.439816043E0,1.654430347E0
1.464537292E0,9.551512649E-2,-9.187808892E-1,-6.520955229E-1,1.130712179E0
1.474507292E0,1.784971482E-1,-2.834116191E-1,-6.993445337E-2,3.421610812E-1
1.484477292E0,-6.880038589E-2,1.864711570E0,2.228625315E-1,1.879241986E0
1.494447292E0,-9.583608381E-2,1.465965669E0,-6.220162761E-1,1.595350791E0
1.504417292E0,3.576514504E-1,-7.426402420E-1,-7.962574553E-1,1.146060655E0
1.514386292E0,3.171893394E-2,-9.190492764E-1,-2.149003780E-1,9.443727208E-1
1.524356292E0,-2.556753151E-1,1.572683202E0,-8.146329153E-1,1.789505269E0
1.534326292E0,-7.727297214E-1,2.114442642E0,-1.834500176E0,2.904026482E0
1.544296292E0,-1.001037472E-1,-6.093079376E-1,-1.650785923E0,1.762490025E0
1.554266292E0,4.732754987E-1,-1.619585473E0,-2.647736192E-1,1.707967175E0
1.564236292E0,3.548053182E-1,-3.999834645E-1,1.001612254E0,1.135385702E0
1.574205292E0,-3.479734680E-2,1.297159477E0,1.336026211E0,1.862471369E0
1.584175292E0,1.421457211E-1,-5.929573685E-1,6.051020354E-1,8.590415125E-1
1.594145292E0,4.062380118E-1,-1.284033355E0,-7.207394958E-2,1.348690340E0
1.604115292E0,6.385718632E-1,6.559125853E-1,-6.681373590E-1,1.133314994E0
1.614085292E0,7.747883067E-1,1.261136243E0,3.582764447E-2,1.480555694E0
1.624055292E0,1.279811080E0,-4.606351706E-1,6.006832945E-1,1.486916804E0
1.634024292E0,1.448916796E0,-1.788478788E0,9.564314032E-1,2.492544340E0
1.643994292E0,9.819561075E-1,-1.079351278E0,1.073407876E0,1.811474937E0
1.653964292E0,9.548176447E-1,1.886660556E0,1.224767146E0,2.443607855E0
1.663934292E0,6.917781635E-1,1.112630998E0,7.849009931E-1,1.527276771E0
1.673904292E0,2.808720637E-1,-1.032126826E0,2.205025953E-1,1.092152139E0
1.683874292E0,-1.480580053E-1,-4.759344104E-1,-8.419727415E-1,9.784440880E-1
1.693843292E0,-2.009428915E-1,1.980748395E0,-1.075042757E0,2.262622191E0
1.703813292E0,3.149450684E-1,1.779422913E0,-6.936376512E-1,1.935631548E0
1.713783292E0,7.823445904E-1,-6.507088557E-1,-7.904687119E-1,1.288536324E0
1.723753292E0,5.931247816E-1,-1.057515728E0,-1.541403814E0,1.961137996E0
1.733723292E0,-1.252779475E-1,1.022067276E0,-5.575279194E-1,1.170962622E0
1.743693292E0,-2.078147952E-2,2.256590501E0,1.475848925E0,2.696435167E0
1.753662292E0,5.118233044E-1,7.083922228E-1,1.440266864E0,1.684681357E0
1.763632292E0,5.142339653E-1,-8.741066998E-1,-1.813227421E-1,1.030231542E0
1.773602292E0,-2.175054587E-3,-1.073692051E-1,-6.967372602E-1,7.049650253E-1
1.783572292E0,-8.474073630E-2,3.368322490E0,7.815973163E-3,3.369397347E0
1.793542292E0,9.957077354E-4,2.761265146E0,1.706509888E-2,2.761318058E0
1.803511292E0,8.775903247E-2,-5.338569286E-1,2.328168315E-1,5.889894270E-1
1.813481292E0,2.503860334E-1,-1.265478970E0,4.957725513E-1,1.381998774E0
1.823451292E0,-2.583756324E-1,1.787685029E0,-1.265138662E0,2.205255442E0
1.833421292E0,1.545697571E-1,1.688419480E0,-7.398324090E-1,1.849865980E0
1.843391292E0,1.155711237E0,-5.642241508E-2,-9.366327310E-1,1.488668138E0
1.853361292E0,7.464944342E-1,-4.205586469E-1,-3.225635810E0,3.337491558E0
1.863330292E0,-4.875091565E-1,4.712908441E-1,-2.863615978E0,2.942800827E0
1.873300167E0,-3.768128126E-1,-1.062970888E0,-4.023849159E-1,1.197417482E0
1.883270167E0,1.687996142E-2,-2.306669272E0,1.729448515E0,2.883053976E0
1.893240167E0,3.648877087E-1,-1.889450847E0,2.720701842E0,3.332474464E0
1.903210167E0,-5.951928321E-2,1.045638572E0,1.778817726E0,2.064242009E0
1.913180167E0,4.263312009E-1,2.216708690E-1,5.196631050E-1,7.077753950E-1
1.923149167E0,3.925097362E-1,-1.648423648E-1,-2.390721828E-1,4.882544488E-1
1.933119167E0,-3.056760621E-1,-8.567232201E-1,-2.253996384E-1,9.371326095E-1
1.943089167E0,-1.237440109E0,1.363437958E0,-7.170703679E-1,1.975958249E0
1.953059167E0,-1.102150888E0,6.540882540E-1,-5.427449888E-1,1.391811821E0
1.963029167E0,-8.858424271E-1,-1.421271014E-1,-7.817212772E-1,1.189960114E0
1.972999167E0,-6.263013350E-1,-1.109147520E0,-7.718657953E-1,1.489375167E0
1.982968167E0,-9.767106434E-1,8.200067988E-1,-5.370275813E-1,1.383753394E0
1.992938167E0,-3.586061545E-1,8.267892766E-1,6.080753446E-2,9.032587881E-1
2.002908167E0,-7.463294696E-2,-1.271623224E-2,8.948403418E-2,1.172142129E-1
2.012878167E0,-1.389129966E-1,-6.358493266E-1,5.478537011E-1,8.507319581E-1
2.022848167E0,-1.036407572E0,9.008968878E-1,7.161535245E-1,1.548751668E0
2.032818167E0,-1.408323525E0,9.378100678E-1,5.754075354E-1,1.787164431E0
2.042787167E0,-4.500244111E-1,2.456739816E-1,-3.186738378E-1,6.036809511E-1
2.052757167E0,2.437178322E-1,2.685228539E-1,-1.734186514E0,1.771695733E0
2.062727167E0,-1.098880211E-1,1.467484483E0,-7.638165182E-1,1.658011387E0
2.072697167E0,-6.653720280E-2,-3.115481284E-1,1.543275508E0,1.575813672E0
2.082667167E0,2.457948911E-1,-3.090051743E-1,1.864157839E0,1.905514045E0
2.092637167E0,6.038360036E-1,-8.795030951E-1,2.281465434E0,2.518576610E0
2.102606167E0,-6.063865225E-1,6.533778173E-1,2.532931960E-1,9.266955433E-1
2.112576167E0,-5.308948023E-1,-4.960923940E-2,-5.755297422E-1,7.845666651E-1
2.122546167E0,-3.608855819E-1,-1.200871915E-1,5.294069052E-2,3.840078821E-1
2.132516167E0,-6.137742602E-1,-4.903255776E-1,-3.171161395E-1,8.471721551E-1
2.142486167E0,-9.014020872E-1,-4.175853378E-1,-5.433706409E-1,1.132322785E0
2.152455167E0,-6.421551101E-1,-1.227907393E0,-2.873982507E-1,1.415174020E0
2.162425167E0,-4.220196103E-1,-4.447813225E-1,1.182599366E-1,6.244328538E-1
2.172395167E0,-3.549627545E-1,-7.482760808E-1,5.862219608E-1,1.014678194E0
2.182365167E0,-4.087125900E-1,-9.797366506E-1,1.101644665E0,1.529885896E0
2.192335167E0,4.338206436E-1,-1.312745522E0,1.241453930E0,1.858146662E0
2.202305167E0,3.842665143E-1,-8.615729007E-1,6.181845957E-1,1.127883332E0
2.212274167E0,5.595205774E-1,-5.185012633E-1,-4.955000710E-1,9.096302309E-1
2.222244167E0,8.877649185E-1,3.675685474E-1,4.156271052E-1,1.046890194E0
2.232214167E0,8.982814282E-1,-7.912159860E-1,6.914513773E-1,1.382402716E0
2.242184167E0,3.212257454E-1,-4.979950780E-1,-1.685687953E-1,6.161172907E-1
2.252154167E0,1.088125172E-1,-6.789073455E-1,-1.468890738E-1,7.030872974E-1
2.262124167E0,-1.484512009E-2,1.370833809E0,7.037357926E-2,1.372719254E0
2.272093167E0,-3.772619154E-1,1.876024178E0,-2.185122031E-1,1.926016836E0
2.282063167E0,-6.547394876E-1,7.093894655E-1,-2.411233860E-1,9.950164308E-1
2.292033167E0,-4.583795341E-1,-4.039850065E-1,-7.854634953E-1,9.951223971E-1
2.302003167E0,-3.937923229E-1,1.342388859E0,-1.078959807E0,1.766701590E0
2.311973167E0,-3.993471412E-1,1.956009411E0,-1.057397615E0,2.259101739E0
2.321943167E0,-7.001377085E-1,9.311407337E-1,-8.515820557E-1,1.443055049E0
2.331912167E0,-3.842265705E-1,-7.494218427E-1,-9.891629469E-1,1.299117582E0
2.341882167E0,-2.838375887E-1,1.055759517E0,-1.002331461E0,1.483192602E0
2.351852167E0,4.489046328E-2,8.382936734E-1,-9.947984934E-1,1.301681789E0
2.361822167E0,-6.465059867E-2,-1.298309916E-1,-9.037263554E-1,9.152907253E-1
2.371792167E0,-8.108645492E-2,-9.008249670E-1,4.554068828E-1,1.012648045E0
2.381762167E0,-4.149209809E-2,6.475627613E-1,1.021703871E0,1.210346200E0
2.391731167E0,-6.277002814E-1,8.333747032E-1,4.511898708E-1,1.136702837E0
2.401701167E0,-1.127618874E0,9.857926118E-1,-4.003413141E-1,1.550349821E0
2.411671167E0,-6.583934127E-1,7.869112659E-1,-1.867801824E0,2.131054875E0
2.421641167E0,-1.568489834E-1,-5.753739139E-1,-1.208213679E0,1.347381549E0
2.431611167E0,-1.447636292E-1,-1.626159790E0,7.082931125E-1,1.779615493E0
2.441580167E0,-5.514734931E-1,-1.239476402E0,9.619985372E-1,1.663089279E0
2.451550167E0,-4.726149095E-1,-4.502125087E-1,1.759010283E0,1.876212497E0
2.461520167E0,-3.891868731E-1,1.000593961E0,1.463334129E0,1.814938421E0
2.471490167E0,-3.419581814E-1,3.231273696E-1,1.368353713E-1,4.899700130E-1
2.481460167E0,-9.802628269E-1,-7.963831705E-1,-1.184309092E0,1.731395214E0
2.491430167E0,-8.448255980E-1,-8.930221501E-1,-1.286769851E0,1.779605434E0
2.501399167E0,-9.741521211E-1,-1.401548941E0,4.801558077E-1,1.773093733E0
2.511369167E0,-1.457886425E0,-1.452770257E0,2.520695491E0,3.254209583E0
2.521339167E0,-1.424433042E0,-4.051088414E-1,2.338866380E0,2.768288029E0
2.531309167E0,-7.393759608E-1,1.147995836E0,1.188647726E0,1.810374178E0
2.541279167E0,-1.105022528E-1,3.246023297E-1,2.410339236E-1,4.191357449E-1
2.551249167E0,-3.765279436E-1,-3.896888566E-1,-3.419182742E-1,6.407330204E-1
2.561218167E0,-6.393282006E-1,-2.302756315E-1,-8.716257262E-1,1.105214378E0
2.571188167E0,-6.634348820E-1,1.424446345E0,-8.622888923E-1,1.792410490E0
2.581158167E0,-1.023845268E0,1.239127323E0,-2.932495594E-1,1.633918896E0
2.591128167E0,-1.749453009E0,9.509326816E-3,8.630314887E-2,1.751606261E0
2.601098167E0,-1.774045521E0,-1.106799278E0,-2.668727696E-1,2.107952378E0
2.611068167E0,-9.903530015E-1,7.686600593E-1,-2.671446651E-1,1.281797030E0
2.621037167E0,-4.231730467E-1,1.639093831E0,-8.770899493E-1,1.906565182E0
2.631007167E0,-9.043132697E-1,2.159005442E-1,-5.315247667E-1,1.070940760E0
2.640977167E0,-4.531009236E-1,-9.453465441E-1,7.110565066E-2,1.050731435E0
2.650947167E0,-3.236895063E-1,8.916518551E-1,-4.127239627E-1,1.034484894E0
2.660917167E0,-3.495220299E-1,4.669393462E-1,-2.083292770E-1,6.193537681E-1
2.670886167E0,-7.872377598E-1,-2.418996039E-1,1.932995939E-1,8.459452948E-1
2.680856167E0,-1.393030571E0,-7.160266399E-1,5.522209865E-1,1.660775824E0
2.690826167E0,-8.874496805E-1,3.953700113E-1,-3.761396885E-2,9.722649803E-1
2.700796167E0,-1.257714745E0,-5.695129573E-1,4.048448396E-1,1.438780988E0
2.710766167E0,-1.311302137E0,-7.657618868E-1,-2.601081258E-1,1.540636492E0
2.720736167E0,-1.322807411E0,-6.156068507E-1,-7.026043564E-1,1.619396222E0
2.730705167E0,-7.422280133E-1,9.808446980E-1,-6.839862370E-1,1.407407517E0
2.740675167E0,-8.721051979E-1,-1.601455888E-1,3.368662798E-1,9.485214686E-1
2.750645167E0,-1.266917970E0,-1.202428151E0,6.698780751E-1,1.870735480E0
2.760615167E0,-1.058998875E0,-6.053303692E-1,1.663693652E0,2.062954202E0
2.770585167E0,-1.889247437E-1,8.230499822E-1,1.448760529E0,1.676905156E0
2.780555167E0,1.363329493E-2,6.189043880E-1,6.469306773E-1,8.954037131E-1
2.790524167E0,-2.735684528E-1,-1.398627672E-1,6.682683367E-1,7.355160513E-1
2.800494167E0,1.762502094E-1,3.374635729E-1,-2.053542137E-2,3.812709049E-1
2.810464167E0,4.503095360E-1,1.138002652E0,-6.090547532E-1,1.367031970E0
2.820434167E0,4.613226205E-1,6.866949597E-1,-4.853159755E-1,9.591142393E-1
2.830404167E0,3.047461721E-1,6.523504615E-2,2.025276697E-1,3.716763345E-1
2.840374167E0,4.268543075E-1,1.028873727E0,-9.708541453E-1,1.477614130E0
2.850343167E0,3.650130949E-1,-1.175845832E-1,-5.211173075E-1,6.470115469E-1
2.860313167E0,4.198756556E-1,-7.465166536E-1,6.088764131E-2,8.586559178E-1
2.870283042E0,6.762256663E-1,-2.175026813E-1,2.828537947E-1,7.645880180E-1
2.880253042E0,7.825355751E-1,1.369769908E0,-5.927603173E-1,1.685228863E0
2.890223042E0,9.020534670E-1,-1.777503857E-1,-5.498329836E-1,1.071266525E0
2.900192042E0,3.494907839E-1,-1.629788864E0,1.503963507E0,2.245052735E0
2.910162042E0,3.889399014E-1,-1.155123299E-1,2.125620764E0,2.163996530E0
2.920132042E0,-2.650284481E-1,9.651221198E-1,9.405170363E-1,1.373416572E0
2.930102042E0,2.649654809E-1,-6.321687967E-1,-8.272441900E-1,1.074326321E0
2.940072042E0,-2.092464676E-1,-1.741101139E0,4.296054590E-1,1.805485561E0
2.950042042E0,4.304372254E-1,-3.877958205E-1,5.334888464E-1,7.875735856E-1
2.960011042E0,3.185942426E-1,-7.245033485E-1,2.730690640E-1,8.372419645E-1
2.969981042E0,5.574368490E-1,-8.339246339E-1,1.999069476E-1,1.022804440E0
2.979951042E0,7.319346479E-1,-1.060645158E0,1.249121969E0,1.794715067E0
2.989921042E0,5.869710622E-1,-3.595786196E-1,6.276453906E-1,9.315420269E-1
2.999891042E0,3.608778709E-1,-8.081334427E-1,1.127080053E-1,8.921970597E-1
3.009861042E0,3.143055657E-1,-6.046006367E-1,6.408548355E-4,6.814178815E-1
3.019830042E0,4.658162788E-1,-9.233800167E-1,1.218135234E0,1.597957731E0
3.029800042E0,4.753955895E-1,-7.844332159E-3,1.612521744E-1,5.020605180E-1
3.039770042E0,5.347106952E-1,-2.527093515E-1,-5.241227764E-1,7.902418798E-1
3.049740042E0,3.760214286E-1,-1.280949533E-1,-7.936607069E-1,8.875233797E-1
3.059710042E0,4.375020141E-1,2.397758952E-1,-2.124632585E-1,5.422555933E-1
3.069680042E0,4.970460383E-2,8.188624987E-1,-4.139115322E-1,9.188738193E-1
3.079649042E0,7.690652713E-2,2.589793208E-1,-8.615989208E-1,9.029604659E-1
3.089619042E0,-1.180653339E-3,-1.303695202E-1,-8.006376046E-1,8.111831973E-1
3.099589042E0,1.909971797E-1,3.845210874E-1,-3.864407283E-1,5.776442035E-1
3.109559042E0,1.861687317E-1,1.368044980E0,-7.289869934E-1,1.561290460E0
3.119529042E0,3.586947033E-1,1.054917518E0,-1.078798424E0,1.550909056E0
3.129498042E0,4.695982579E-1,5.812807712E-1,1.198679209E-1,7.568210999E-1
3.139468042E0,3.476445986E-1,1.782800850E0,-2.625452453E-1,1.835256288E0
3.149438042E0,-6.876256172E-2,1.173071620E0,-5.294460815E-1,1.288851609E0
3.159408042E0,-2.141441137E-1,8.476854712E-2,-1.497384220E-1,2.747089424E-1
3.169378042E0,-3.077101988E-1,6.887903094E-2,-7.946746141E-1,8.549489047E-1
3.179348042E0,-8.088338660E-1,9.509829676E-1,-5.761401916E-1,1.374961217E0
3.189317042E0,-6.554584028E-1,-7.672754386E-1,-3.319353229E-1,1.062317455E0
3.199287042E0,-5.004890251E-1,-1.420259446E0,-3.406786644E-1,1.543919723E0
3.209257042E0,-4.640187351E-1,3.413253665E-2,-4.267666358E-1,6.313542413E-1
3.219227042E0,-7.055286951E-1,2.422533605E-1,6.576948166E-2,7.488544952E-1
3.229197042E0,-6.861845709E-1,-1.601498280E0,1.393122518E-1,1.747871251E0
3.239167042E0,-3.912236776E-1,-1.786711175E0,7.604572928E-1,1.980830150E0
3.249136042E0,1.755589772E-1,5.676550046E-1,1.556123595E0,1.665705196E0
3.259106042E0,7.730505873E-1,9.996785796E-1,1.267095725E0,1.789551913E0
3.269076042E0,4.916659421E-1,-4.922601289E-1,-4.748962373E-1,8.423668258E-1
3.279046042E0,1.630540122E-1,-1.066020796E0,-1.477848673E-1,1.088497733E0
3.289016042E0,-1.456151117E-1,6.447730547E-1,7.580599344E-1,1.005778761E0
3.298985042E0,1.002610099E-1,3.511179909E-1,2.835145301E-1,4.622949301E-1
3.308955042E0,3.873618475E-1,-7.468163234E-1,1.022062306E0,1.323780638E0
3.318925042E0,5.654154844E-1,-1.812195387E-1,1.928559657E0,2.017889378E0
3.328895042E0,5.917434134E-1,1.147309080E0,9.771282077E-3,1.290958509E0
3.338865042E0,3.349100938E-1,1.971040848E-1,-5.127826864E-1,6.433979131E-1
3.348835042E0,7.662466850E-2,2.190586254E-1,-1.878610986E0,1.892891243E0
3.358804042E0,-4.662803284E-1,8.971073073E-1,-1.420704419E0,1.743737340E0
3.368774042E0,-8.192053648E-1,7.521536618E-2,-5.568671840E-1,9.934061816E-1
3.378744042E0,-6.530885263E-1,-6.908368349E-1,-3.913114589E-1,1.028058760E0
3.388714042E0,-5.475647390E-1,-6.959946638E-1,5.500715500E-1,1.042503921E0
3.398684042E0,-2.082411485E-1,1.104381747E0,2.195921838E-1,1.145095693E0
3.408654042E0,2.858615111E-2,2.496234834E-2,-7.363112158E-1,7.372886092E-1
3.418623042E0,9.685889888E-2,-1.120977314E0,6.157889915E-1,1.282640974E0
3.428593042E0,1.579739146E-1,5.051228338E-1,9.139110357E-1,1.056095742E0
3.438563042E0,-3.653942968E-1,1.856697961E0,1.767291695E-1,1.900545582E0
3.448533042E0,-4.816263459E-1,-8.744160175E-2,2.682117820E-3,4.895070628E-1
3.458503042E0,-3.940353113E-1,-1.248395160E0,1.564865182E0,2.040234629E0
3.468473042E0,-9.598058313E-2,1.073416939E0,4.654219937E-1,1.173905375E0
3.478442042E0,-5.401374595E-1,1.697303739E0,-4.641087091E-1,1.840648080E0
3.488412042E0,-2.916195567E-1,3.399860618E-1,-6.178635836E-1,7.631434308E-1
3.498382042E0,-2.908076160E-1,2.967596430E-1,-8.268512571E-1,9.253747114E-1
3.508352042E0,6.204825880E-2,1.286003574E0,-1.844486051E0,2.249396357E0
3.518322042E0,-1.426125574E-1,-2.922803834E-1,-1.414513972E0,1.451418596E0
3.528291042E0,-7.535256562E-2,-1.204688685E0,-6.277839696E-1,1.360538698E0
3.538261042E0,-4.181087366E-1,5.790208223E-1,-1.416885602E-1,7.281179001E-1
3.548231042E0,-6.858035517E-1,8.833669353E-1,2.091367775E-1,1.137717823E0
3.558201042E0,-6.490819410E-1,-5.097842342E-1,1.954174554E-1,8.481599575E-1
3.568171042E0,-5.541493251E-1,-1.071819480E0,-1.768706721E-1,1.219492397E0
3.578141042E0,-5.606711633E-1,2.726471874E-1,9.731404066E-2,6.309981495E-1
3.588110042E0,-3.521120907E-1,2.793451729E-1,-4.276168209E-1,6.203811696E-1
3.598080042E0,-2.127116190E-1,-3.329042065E-1,-2.160686517E-1,4.502855825E-1
3.608050042E0,-1.287984738E-1,-1.194075988E0,1.022868637E0,1.577550874E0
3.618020042E0,-5.337930478E-1,8.140326986E-1,4.684923667E-1,1.080309840E0
3.627990042E0,-8.304537266E-1,-3.135429060E-1,-6.132846290E-1,1.078925661E0
3.637960042E0,-9.054129848E-1,-1.054307361E0,5.491202080E-1,1.494278986E0
3.647929042E0,-9.157787825E-1,3.521687356E-1,6.628584927E-1,1.184084025E0
3.657899042E0,-8.872638121E-1,3.559089071E-1,-2.385465181E-1,9.852982613E-1
3.667869042E0,-5.124823953E-1,-1.084013263E0,1.048048502E0,1.592522723E0
3.677839042E0,2.978964513E-2,-3.708391875E-1,1.266904521E0,1.320400012E0
3.687809042E0,-2.013615521E-1,5.664425844E-1,4.538965470E-1,7.532766766E-1
3.697778042E0,-2.070237765E-2,-5.498221663E-1,3.159373409E-1,6.344678134E-1
3.707748042E0,4.527483365E-1,-1.473208030E0,1.124107329E0,1.907600651E0
3.717718042E0,3.577773848E-1,4.653968507E-1,3.336403710E-1,6.752146199E-1
3.727688042E0,7.404265592E-1,4.787010205E-1,-5.650024152E-1,1.047193337E0
3.737658042E0,1.009713206E0,-1.430092124E0,-8.605873525E-2,1.752737957E0
3.747628042E0,1.350791162E0,-1.197729329E0,7.938752997E-1,1.972163862E0
3.757597042E0,1.156262556E0,3.774918571E-1,-5.456124634E-1,1.333092705E0
3.767567042E0,5.402311246E-1,-3.339903268E-1,-3.974060118E-1,7.492200909E-1
3.777537042E0,7.242712871E-1,-4.683616814E-1,-8.594956774E-1,1.217647068E0
3.787507042E0,7.020397346E-1,5.735709250E-1,-8.852666956E-1,1.267099253E0
3.797477042E0,3.289954525E-1,4.325653195E-2,-1.018669751E0,1.071352975E0
3.807447042E0,3.734081617E-1,-9.299473169E-1,-1.714801240E0,1.986146762E0
3.817416042E0,3.561029981E-1,-9.008550802E-1,9.134520292E-3,9.687273405E-1
3.827386042E0,8.417115902E-1,1.022241523E0,8.547120702E-1,1.576067529E0
3.837356042E0,1.207857729E0,-1.774223569E-1,5.768249005E-1,1.350231815E0
3.847326042E0,9.901801432E-1,-1.546971533E0,2.126493754E0,2.809902725E0
3.857296042E0,1.034718531E0,-4.371819887E-1,4.047722756E0,4.200693995E0
3.867266417E0,1.468509500E0,1.835556183E0,1.724229875E0,2.915262478E0
3.877235417E0,1.080745839E0,6.105583647E-1,5.062735659E-1,1.340561826E0
3.887205417E0,8.682847734E-1,3.846260449E-1,7.807290047E-1,1.229387417E0
3.897175417E0,1.202617966E0,1.334124697E0,-1.083231198E0,2.097514841E0
3.907145417E0,1.106858189E0,1.673542409E0,-2.679991772E0,3.347870240E0
3.917115417E0,1.337746755E0,1.220194039E-1,-2.760607919E0,3.070083256E0
3.927084417E0,1.308983570E0,-1.192516536E0,-9.084386265E-1,1.990174468E0
3.937054417E0,1.666521657E0,6.547443116E-1,-9.215474993E-1,2.013761242E0
3.947024417E0,1.684853994E0,5.422716567E-1,-1.251702930E0,2.167844956E0
3.956994417E0,9.384177397E-1,-5.557790172E-1,-1.118518560E0,1.562242599E0
3.966964417E0,5.672298023E-1,-5.065036538E-1,-8.997286141E-1,1.178052282E0
3.976934417E0,-6.865952281E-2,-4.056885928E-2,-7.002643007E-1,7.047907869E-1
3.986903417E0,1.483889395E-1,-1.074372666E0,1.303660119E-1,1.092378689E0
3.996873417E0,-4.368732557E-2,-1.265126967E0,2.507910554E0,2.809282858E0
4.006843417E0,3.966345448E-2,1.100375234E0,2.398577562E0,2.639237232E0
4.016813417E0,7.692392260E-1,2.489270800E-1,-2.426027316E-1,8.441266276E-1
4.026783417E0,3.035207053E-1,-1.437393250E0,-1.079930445E0,1.823313999E0
4.036752417E0,-6.960534649E-2,-8.588726565E-1,-3.582717669E-1,9.332019092E-1
4.046722417E0,-6.953723739E-1,-1.623549592E-1,-1.840668404E-1,7.374160786E-1
4.056692417E0,-8.708329169E-1,-1.750932647E0,8.911261904E-1,2.149004651E0
4.066662417E0,-8.883660123E-1,-1.514158713E0,1.494491603E0,2.305509907E0
4.076632417E0,-1.223411908E0,9.197842714E-1,1.395109402E0,2.071007012E0
4.086602417E0,-6.457170146E-1,-1.462143052E-1,7.001286453E-1,9.635918254E-1
4.096571417E0,-8.800410390E-1,-9.684798834E-1,4.080894595E-1,1.370752538E0
4.106541417E0,-9.538391863E-1,-1.874383450E-2,1.839024752E0,2.071755913E0
4.116511417E0,-1.102778221E0,1.585400311E0,9.082836753E-1,2.134149288E0
4.126481417E0,-1.198107424E0,6.391632360E-1,-1.189785594E-1,1.363138636E0
4.136451417E0,-7.146719863E-1,-4.309415478E-1,4.739220911E-1,9.597233007E-1
4.146421417E0,-1.010744728E0,7.958461037E-1,-4.981090987E-1,1.379524773E0
4.156390417E0,-9.018553195E-1,1.583704326E0,-1.990681061E0,2.698939328E0
4.166360417E0,-5.422392412E-1,-5.627038747E-2,-1.488346179E0,1.585043880E0
4.176330417E0,-7.957567144E-1,-3.641555277E-1,-8.580707109E-1,1.225611415E0
4.186300417E0,-9.898085526E-1,1.073619253E0,-8.958770531E-1,1.713176863E0
4.196270417E0,-6.290669218E-1,4.037876630E-1,-1.488690580E0,1.665823914E0
4.206240417E0,-7.075415260E-1,-7.100776827E-1,-7.813985109E-1,1.270987395E0
4.216209417E0,-9.790267255E-1,3.542503443E-1,-1.404635686E-1,1.050579197E0
4.226179417E0,-1.179934132E0,4.308345437E-1,-3.734242415E-1,1.310461225E0
4.236149417E0,-7.762490874E-1,-1.272142164E0,-1.428159034E-1,1.497098766E0
4.246119417E0,-5.930570635E-1,-1.043081877E0,2.673440552E-1,1.229312542E0
4.256089417E0,-8.034455837E-1,2.936208576E-2,8.064573383E-1,1.138753870E0
4.266058417E0,-3.886052945E-1,-1.203322775E0,4.511998111E-1,1.342602341E0
4.276028417E0,-3.886734876E-1,-7.749823612E-1,9.503479600E-3,8.670380939E-1
4.285998417E0,-5.008036784E-1,-1.264802447E-1,1.474389460E0,1.562250254E0
4.295968417E0,-8.171668062E-1,1.086055403E0,1.249948765E0,1.846523719E0
4.305938417E0,-7.429537258E-1,1.194904831E-1,-1.369137239E-1,7.648552687E-1
4.315908417E0,-9.525233435E-1,-1.938486475E-1,7.285519606E-1,1.214769928E0
4.325877417E0,-7.987948546E-1,1.556224167E0,4.267280442E-1,1.800556497E0
4.335847417E0,-7.350853470E-1,1.437522473E0,-8.706901717E-1,1.834372564E0
4.345817417E0,-2.699110194E-1,-2.752301949E-1,-1.487225268E0,1.536373202E0
4.355787417E0,-1.811421728E-1,-6.041971788E-1,-1.086009210E0,1.255899169E0
4.365757417E0,-2.240471226E-1,7.818598562E-1,-1.313280542E0,1.544735489E0
4.375727417E0,6.627236048E-2,-2.734848011E-1,-1.063572859E0,1.100169618E0
4.385696417E0,1.629124547E-1,-8.976008123E-1,-7.013501287E-2,9.149571609E-1
4.395666417E0,1.789460865E-1,5.859676069E-1,4.460612780E-1,7.578590911E-1
4.405636417E0,2.336657010E-2,2.272026274E-1,1.749785131E-1,2.877229753E-1
4.415606417E0,3.240606217E-1,-8.647920853E-1,6.786167389E-1,1.146037223E0
4.425576417E0,5.248985557E-1,1.760625869E-2,1.753086469E0,1.830065748E0
4.435545417E0,4.700757196E-1,1.809291075E0,5.129773986E-1,1.938466195E0
4.445515417E0,3.089481274E-1,5.253957152E-2,-7.207950443E-1,7.859738214E-1
4.455485417E0,-8.872654567E-2,-1.011102577E0,-1.468838114E-1,1.025561151E0
4.465455417E0,-4.874714054E-2,2.555028588E-2,1.163863717E0,1.165164303E0
4.475425417E0,-1.268954336E-1,-7.500884253E-1,1.055317175E0,1.300934063E0
4.485395417E0,-3.655044803E-1,-1.607651013E0,2.870201113E0,3.310013555E0
4.495364417E0,-3.618403957E-1,-7.564434716E-1,2.862054772E0,2.982363612E0
4.505334417E0,-3.761078577E-1,7.588077933E-2,1.435755737E0,1.486139142E0
4.515304417E0,-5.923620488E-1,-1.353116161E0,1.880530043E0,2.391277772E0
4.525274417E0,-7.844827710E-1,-8.590705848E-1,1.292238752E0,1.738762917E0
4.535244417E0,-5.319212079E-1,7.602356833E-1,-1.121532800E0,1.455587265E0
4.545214417E0,1.758906422E-2,-1.544879399E0,-1.041976753E0,1.863512084E0
4.555183417E0,3.428410379E-1,-1.653830276E0,-1.373162463E0,2.176756695E0
4.565153417E0,-2.265654088E-1,-5.611394522E-1,-1.469922772E0,1.589617037E0
4.575123417E0,-6.430405978E-2,9.655711859E-2,-1.892665939E0,1.896217985E0
4.585093417E0,3.314273826E-1,-1.449784961E0,-1.336482879E0,1.999476689E0
4.595063417E0,1.098544179E-1,-1.747965185E0,-1.179581033E0,2.111601690E0
4.605032417E0,1.382962433E-1,-4.013274470E-1,-8.654422957E-1,9.639397999E-1
4.615002417E0,-2.788091294E-2,-2.717376530E-1,-4.941388392E-1,5.646165866E-1
4.624972417E0,1.451107163E-1,-7.098604587E-1,-4.797277915E-1,8.689636038E-1
4.634942417E0,-1.938693685E-2,3.043814886E-1,1.923657936E-1,3.605947066E-1
4.644912417E0,-2.334305150E-1,2.144526567E0,8.658621258E-1,2.324478699E0
4.654882417E0,-2.972389685E-1,1.149818121E0,2.873041105E-1,1.221874121E0
4.664851417E0,-2.767802918E-1,-1.080109370E-1,1.265811676E0,1.300212634E0
4.674821417E0,2.447269154E-1,3.182651174E-1,9.084000349E-1,9.931639197E-1
4.684791417E0,-1.466614344E-1,1.370078056E0,-4.718632865E-1,1.456460922E0
4.694761417E0,-4.086541544E-1,6.182845831E-3,2.438405871E-2,4.094276832E-1
4.704731417E0,-4.496075777E-2,-4.277244097E-1,1.437637371E0,1.500590167E0
4.714701417E0,-3.944194002E-1,1.261120748E0,2.294628686E-1,1.341135866E0
4.724670417E0,-1.160775364E0,-2.322894126E-2,-7.230175710E-1,1.367732956E0
4.734640417E0,-1.275927506E0,-1.394952989E0,1.218514718E0,2.249147163E0
4.744610417E0,-1.046627190E0,4.381918028E-1,1.584215958E0,1.948635607E0
4.754580417E0,-1.166734481E0,1.359537573E0,1.516475379E-2,1.791603118E0
4.764550417E0,-8.883480321E-1,-4.206001621E-1,-1.023723500E0,1.419181640E0
4.774520417E0,-4.954161270E-1,-9.360632122E-2,-1.613863680E0,1.690785397E0
4.784489417E0,-5.462452052E-1,1.050300849E0,-6.774151361E-1,1.363967362E0
4.794459417E0,1.163621222E-1,-5.892999351E-1,-6.456238246E-1,8.818416410E-1
4.804429417E0,2.294866594E-1,-2.123983252E0,1.329330565E0,2.516165482E0
4.814399417E0,7.649361869E-1,-3.614272168E-1,3.321158849E0,3.427222360E0
4.824369417E0,7.151720694E-1,1.085357246E0,1.325770195E0,1.856646991E0
4.834338417E0,-3.104393502E-1,3.061058325E-1,-5.158746940E-1,6.754258440E-1
4.844308417E0,1.571043971E-1,4.058321419E-1,-1.146949477E0,1.226733313E0
4.854278417E0,1.515653343E-2,4.440510052E-1,-7.905172437E-1,9.068233171E-1
4.864248417E0,-3.141800333E-1,-1.116577869E0,-4.903650463E-1,1.259330421E0
4.874218417E0,-7.100761387E-2,-1.630521520E0,-1.861987352E-1,1.642654096E0
4.884188417E0,-1.573139285E-1,7.003677964E-1,6.572884351E-1,9.732886567E-1
4.894157417E0,-1.868445671E-2,7.104191601E-2,3.131786245E-1,3.216782765E-1
4.904127417E0,1.494163775E-1,-1.312939650E0,-5.941887921E-1,1.448860276E0
4.914097417E0,2.190022546E-1,-3.558054113E-1,-1.115393223E0,1.191075783E0
4.924067417E0,4.837982576E-1,1.605851533E0,-5.371644062E-1,1.761069419E0
4.934037417E0,3.361448796E-1,8.164525688E-2,-9.068984699E-1,9.706308066E-1
4.944007417E0,1.612377025E-1,-6.547580525E-1,-1.933506986E0,2.047719456E0
4.953976417E0,-3.220608923E-2,-8.974014223E-2,-8.981539589E-1,9.032004535E-1
4.963946417E0,1.269576790E-1,9.018362430E-1,-4.570704156E-1,1.018989807E0
4.973916417E0,-5.360396577E-2,2.756123105E-1,-4.728391868E-1,5.499203828E-1
4.983886417E0,2.855682915E-1,-1.356195012E0,3.592398319E0,3.850472678E0
4.993856417E0,1.432783597E0,1.442771226E0,3.039783815E0,3.657149613E0
5.003826417E0,1.595667729E0,2.401626300E0,3.888778478E-1,2.909500020E0
5.013795417E0,1.029942964E0,1.101408145E0,5.321779007E-1,1.599092158E0
5.023765417E0,1.031737547E0,2.338449766E0,-6.160164481E-1,2.629126460E0
5.033735417E0,1.657355270E-1,1.245513944E0,-1.220812089E0,1.751900513E0
5.043705417E0,-8.834582980E-1,-1.795944806E0,4.018791318E-3,2.001482566E0
5.053675417E0,-1.142668072E0,-7.976403219E-1,1.134244646E0,1.796783605E0
5.063645417E0,-1.015637020E0,1.507330627E0,-1.028762630E0,2.088520223E0
5.073614417E0,-5.216436300E-1,-8.608504772E-1,-8.813169014E-1,1.337869613E0
5.083584417E0,6.245804264E-1,-9.729913026E-1,7.689568055E-1,1.388563053E0
5.093554417E0,5.862148345E-1,1.090836087E-1,5.845268530E-1,8.349962321E-1
5.103524417E0,1.230802934E0,-1.617193669E0,3.910044801E-1,2.069559308E0
5.113494417E0,9.205208744E-1,-1.437452891E0,7.493534303E-1,1.864178119E0
5.123463417E0,6.388251939E-1,-4.330930308E-1,1.299161271E0,1.511121176E0
5.133433417E0,4.618896908E-1,-7.196022123E-2,-1.945047051E-1,5.063125914E-1
5.143403417E0,2.787393649E-1,-1.297238414E0,-4.254527664E-1,1.393389103E0
5.153373417E0,4.608754547E-1,-8.792271066E-1,-3.314523429E-1,1.046569226E0
5.163343417E0,4.620981440E-1,6.596524644E-1,-7.316884071E-1,1.088137856E0
5.173313417E0,7.450687368E-1,-1.204068880E0,-1.131456109E0,1.812485094E0
5.183282417E0,8.363999064E-1,-1.968901352E0,-9.618927026E-1,2.345500993E0
5.193252417E0,7.728301473E-1,-7.662539300E-1,1.444893765E-1,1.097856412E0
5.203222417E0,5.489592634E-1,2.302937579E-1,-3.347601128E-1,6.829757103E-1
5.213192417E0,1.152652851E-1,-6.191368148E-1,-5.809261376E-1,8.567914908E-1
5.223162417E0,-1.158587775E-1,-1.180323045E0,1.736769814E0,2.103082293E0
5.233132417E0,-9.307111826E-2,1.042984813E0,1.303330336E0,1.671870066E0
5.243101417E0,-5.727892254E-2,5.912605065E-1,8.445484400E-2,6.000020685E-1
5.253071417E0,-1.105110602E-1,-2.053857887E-1,5.420509243E-1,5.900976370E-1
5.263041417E0,-2.232952620E-1,7.188756958E-1,-4.734011042E-1,8.892421748E-1
5.273011417E0,-7.602027196E-2,1.273309853E0,-7.464929724E-1,1.477954269E0
5.282981417E0,3.562326601E-1,-2.222038427E-1,-7.098519802E-1,8.247218256E-1
5.292951417E0,7.602399226E-1,-6.263709900E-1,1.091157099E0,1.470009922E0
5.302920417E0,9.091745717E-1,1.639533249E0,-3.952524823E-1,1.915957254E0
5.312890417E0,1.392789373E0,1.493923546E0,-9.105711061E-1,2.236248988E0
5.322860417E0,9.940083884E-1,4.830411163E-1,-1.096584485E0,1.556881154E0
5.332830417E0,6.844737487E-1,4.822789317E-1,-1.360779229E0,1.597753858E0
5.342800417E0,5.531459795E-1,-5.884631985E-1,-7.053122020E-1,1.072252169E0
5.352770417E0,1.020805081E-1,-2.353998975E0,7.226527047E-1,2.464540228E0
5.362739417E0,5.671872273E-3,-2.183251214E0,3.113222505E0,3.802469250E0
5.372709417E0,2.488788771E-1,-5.830621254E-1,2.081726886E0,2.176117866E0
5.382679417E0,1.164773471E0,-1.480413846E0,2.564204623E0,3.181739735E0
5.392649417E0,8.792655520E-1,-7.977698377E-1,2.849956883E0,3.087361148E0
5.402619417E0,7.697990969E-1,1.024581871E0,8.108094209E-1,1.516499448E0
5.412589417E0,1.393358015E0,-7.372976410E-1,9.865463179E-1,1.859658035E0
5.422558417E0,3.918401934E-3,-1.509742018E0,9.717797595E-1,1.795464346E0
5.432528417E0,-2.625888436E-1,-1.505367132E0,1.440874974E0,2.100286598E0
5.442498417E0,-2.496345931E-1,1.950698385E-1,-3.580074728E-1,4.780575515E-1
5.452468417E0,-1.231838769E0,7.477536321E-2,-6.730700701E-1,1.405717406E0
5.462438417E0,-5.678179226E-1,4.270926180E-1,-6.995433390E-1,9.970888530E-1
5.472408417E0,1.741221518E-1,2.939228663E-1,-2.065286270E0,2.093350556E0
5.482377417E0,1.253655169E0,4.248674601E-1,-2.745108705E0,3.047586823E0
5.492347417E0,1.213481289E0,-3.688142967E-1,-1.417552770E0,1.902108483E0
5.502317417E0,3.367883291E-1,-1.653686434E0,6.262806505E-1,1.800092402E0
5.512287417E0,1.980161773E-1,3.702822402E-1,4.678971201E-1,6.286867733E-1
5.522257417E0,4.014380325E-2,1.176730223E0,-1.034877648E0,1.567570506E0
5.532226417E0,1.043230981E-2,1.736994347E-1,-8.145264959E-1,8.329068011E-1
5.542196417E0,-1.393837340E-2,1.362658525E-1,-7.324426979E-1,7.451409038E-1
5.552166417E0,4.741398999E-1,9.310854775E-1,-1.241837507E0,1.622926125E0
5.562136417E0,7.100227189E-1,5.360215679E-1,-9.388488257E-1,1.293401910E0
5.572106417E0,3.818377271E-1,-1.543632773E-1,9.874017656E-1,1.069855279E0
5.582076417E0,5.765935335E-1,1.096609628E0,4.892248392E-1,1.332048693E0
5.592045417E0,1.031420190E0,1.128854683E-1,-5.399552822E-1,1.169667664E0
5.602015417E0,7.093776979E-1,-1.598990994E0,-1.103124011E-1,1.752757183E0
5.611985417E0,5.637533037E-1,-1.369213253E-1,1.048164861E0,1.198004513E0
5.621955417E0,8.834015800E-1,4.314520097E-1,-1.668076140E-1,9.971830164E-1
5.631925417E0,4.595085949E-1,-1.559139588E0,-5.045346040E-1,1.701945819E0
5.641895417E0,1.077803374E-1,-2.014817490E0,3.142204814E0,3.734241183E0
5.651864417E0,7.597283643E-2,1.177012936E0,1.663063322E0,2.038850395E0
5.661834417E0,5.877536024E-1,1.454842803E-1,3.779733753E-1,7.137813708E-1
5.671804417E0,6.571155037E-1,-1.439377502E0,2.438543866E0,2.906906356E0
5.681774417E0,-1.604193481E-1,2.658717263E-1,3.147018242E-1,4.421078830E-1
5.691744417E0,3.038942693E-1,1.495640288E0,-1.734590557E0,2.310431994E0
5.701714417E0,3.509778039E-1,3.585424930E-2,-8.538636392E-1,9.238798950E-1
5.711683417E0,-6.719623882E-2,-5.981888723E-1,-4.788395995E-1,7.691765880E-1
5.721653417E0,1.343074007E-1,7.807436228E-2,-1.615088671E0,1.622542912E0
5.731623417E0,3.804870202E-1,-5.611745355E-1,-2.440281073E0,2.532717700E0
5.741593417E0,4.024776309E-1,-1.014761180E0,-8.659855020E-1,1.393434385E0
5.751563417E0,4.052499785E-1,-3.917441529E-1,9.206686628E-1,1.079500724E0
5.761533417E0,8.837107515E-1,-8.447937307E-1,7.304669237E-1,1.424149945E0
5.771502417E0,1.345119801E0,-9.737917864E-1,7.461275214E-1,1.820528495E0
5.781472417E0,1.159866122E0,1.062997493E-1,1.499635398E0,1.898814205E0
5.791442417E0,1.049356670E0,2.089548706E0,5.635400265E-1,2.405190341E0
5.801412417E0,1.018314825E0,3.293996778E-1,4.765837437E-1,1.171580683E0
5.811382417E0,2.218241757E-1,-9.295725104E-1,1.609865938E0,1.872159009E0
5.821352417E0,-2.522173448E-1,9.030112410E-1,5.035265440E-1,1.064228298E0
5.831321417E0,1.489795631E-1,1.250728199E0,-1.516600510E0,1.971444406E0
5.841291417E0,4.139005686E-1,6.762655735E-1,-9.178298396E-1,1.212872797E0
5.851261417E0,6.503806807E-1,3.983862975E-1,3.171500534E-1,8.260089759E-1
5.861231417E0,7.983714431E-1,1.164515974E0,-1.781757706E-1,1.423109631E0
5.871201042E0,1.065447477E0,-3.784981629E-1,3.397565585E-1,1.180624286E0
5.881171042E0,1.112894269E0,-6.431177080E-1,1.588997810E0,2.043782788E0
5.891140042E0,8.723851334E-1,1.475798347E0,6.279108542E-1,1.825735091E0
5.901110042E0,9.310553643E-1,5.246446404E-1,3.942719042E-2,1.069425357E0
5.911080042E0,1.121436028E0,-1.253898852E0,5.249378783E-1,1.762226112E0
5.921050042E0,1.097910341E0,-3.685529262E-1,3.175201821E-1,1.200856961E0
5.931020042E0,6.768917372E-1,4.455581251E-1,-9.824532670E-1,1.273545794E0
5.940990042E0,1.810973685E-1,-1.246386349E0,-1.660088843E-1,1.270367717E0
5.950959042E0,1.151568192E-1,-1.814019426E0,6.172531343E-1,1.919616890E0
5.960929042E0,2.286513481E-1,8.620006245E-1,-5.596943128E-1,1.052893271E0
5.970899042E0,1.689488643E-1,-5.074468097E-1,-1.509043568E-1,5.557140527E-1
5.980869042E0,8.692558497E-2,-2.128756334E0,4.629111993E-1,2.180239979E0
5.990839042E0,5.626270569E-1,-2.648651281E-1,1.093686604E-1,6.313986420E-1
6.000808042E0,6.114316098E-1,-6.776542872E-2,3.396062851E-2,6.161120767E-1
6.010778042E0,2.496697861E-1,-1.518059975E0,2.976215225E-1,1.566977875E0
6.020748042E0,3.769951727E-1,-1.634301160E0,9.843904495E-1,1.944759677E0
6.030718042E0,4.747750537E-1,8.860765350E-1,-1.138042413E0,1.518447731E0
6.040688042E0,4.713079106E-1,-8.523910180E-1,-1.145713960E0,1.503782588E0
6.050658042E0,1.909134183E-1,-2.272444057E0,-1.392455935E-2,2.280492013E0
6.060628042E0,4.712761895E-1,-8.353063309E-1,8.384071094E-1,1.273877700E0
6.070597042E0,6.220918514E-1,4.058911988E-1,-6.279196250E-1,9.726402173E-1
6.080567042E0,1.014776967E-1,-1.098610837E0,2.448170722E-2,1.103559173E0
6.090537042E0,1.038174235E-1,-9.703986472E-1,-2.657635528E-1,1.011475090E0
6.100507042E0,5.080583919E-1,1.129360760E0,-1.046686100E0,1.621459481E0
6.110477042E0,5.610593453E-1,1.201322150E0,-3.776295590E-1,1.378610381E0
6.120446042E0,3.390736403E-1,-5.955222496E-1,1.759807259E-1,7.075216599E-1
6.130416042E0,7.920709951E-1,-2.054387060E-1,3.649984038E-1,8.959940614E-1
6.140386042E0,1.194577679E0,7.072163478E-1,-2.779497349E-1,1.415777825E0
6.150356042E0,1.372069326E0,-6.361182985E-1,1.035281106E0,1.832765040E0
6.160326042E0,1.432313042E0,-4.810483852E-1,1.167518227E0,1.909457256E0
6.170296042E0,1.123167535E0,1.697270118E0,5.949284649E-1,2.120417658E0
6.180265042E0,5.487063713E-1,-3.611021116E-1,1.180119562E0,1.350613045E0
6.190235042E0,5.404676445E-1,-9.573815757E-1,1.011319801E0,1.493804705E0
6.200205042E0,7.404008315E-1,-4.618958303E-1,2.440200967E0,2.591548168E0
6.210175042E0,2.814802106E-1,3.469816706E-1,1.599048005E0,1.660295730E0
6.220145042E0,1.336583451E0,4.632339656E-1,5.816190326E-1,1.529484138E0
6.230115042E0,7.761629871E-1,-3.435975945E-1,4.526908511E-1,9.619861206E-1
6.240084042E0,4.105912273E-1,5.462805077E-1,-1.005710567E0,1.215919937E0
6.250054042E0,2.853126951E-1,-6.758863816E-1,-1.698541887E0,1.850208172E0
6.260024042E0,3.038871796E-1,-1.936912112E0,-6.398192936E-1,2.062363856E0
6.269994042E0,9.306995612E-1,-1.356440303E0,7.346780884E-1,1.801633665E0
6.279964042E0,9.683155766E-1,-1.291854590E-1,-3.155081552E-1,1.026581382E0
6.289934042E0,9.824050274E-1,-1.386660175E0,-8.527462363E-2,1.701533967E0
6.299903042E0,8.767477410E-1,-1.221344478E0,1.261782360E0,1.962769385E0
6.309873042E0,8.933535410E-1,7.142607808E-1,6.219759303E-1,1.301961240E0
6.319843042E0,1.282988311E0,3.365940920E-1,1.622485399E-2,1.326505874E0
6.329813042E0,1.121564813E0,-9.773498172E-1,3.066081083E-1,1.518923575E0
6.339783042E0,7.408321367E-1,-7.357133380E-1,1.196164906E-1,1.050911259E0
6.349753042E0,5.961806096E-1,1.388180744E0,-1.148667973E0,1.897871231E0
6.359722042E0,7.693112198E-2,1.464927496E0,-1.478171439E0,2.082527735E0
6.369692042E0,-4.625445789E-1,-6.650927138E-1,-8.212981564E-1,1.153614523E0
6.379662042E0,-3.497485730E-1,-8.903242448E-1,-2.781999958E-1,9.961910273E-1
6.389632042E0,-4.424376123E-1,4.692592290E-1,-7.503457028E-1,9.894311186E-1
6.399602042E0,1.097423341E-1,-5.427350485E-1,-3.933731872E-1,6.792254244E-1
6.409572042E0,1.100951770E-1,-6.516569817E-1,-2.246196198E-1,6.980198732E-1
6.419541042E0,-4.071161174E-1,8.693070129E-1,1.013380945E-2,9.599692233E-1
6.429511042E0,-2.164948406E-1,4.730493942E-1,-4.696530390E-1,7.008706888E-1
6.439481042E0,-5.047672866E-1,-4.808220980E-1,-4.066527987E-1,8.070603460E-1
6.449451042E0,-7.589170631E-2,-7.225486243E-1,9.537229729E-1,1.198926009E0
6.459421042E0,-5.954271593E-1,3.258419394E-1,1.046065711E0,1.246980330E0
6.469391042E0,5.889882054E-3,3.054462665E-1,-1.250093776E-1,3.300900740E-1
6.479360042E0,7.988489779E-2,2.908463538E-2,-1.753036183E-1,1.948303660E-1
6.489330042E0,-1.064160651E0,5.164708176E-1,4.817135060E-1,1.277195325E0
6.499300042E0,-1.032652344E0,-1.786537805E-1,-8.956823409E-2,1.051812961E0
6.509270042E0,-6.980239400E-1,-6.473633713E-1,-2.448123944E-1,9.829800933E-1
6.519240042E0,-5.372987460E-1,6.252927634E-1,4.464407623E-2,8.256355588E-1
6.529210042E0,-1.051968329E0,9.465384990E-1,-3.124108851E-1,1.449197383E0
6.539179042E0,-9.465092629E-1,-1.080380973E0,-4.217584956E-1,1.496991336E0
6.549149042E0,-7.162768277E-1,-8.238954896E-1,-6.001979756E-1,1.245830599E0
6.559119042E0,-5.744339740E-1,6.548010296E-1,6.100481951E-1,1.063436683E0
6.569089042E0,-9.877319871E-1,-3.947893828E-1,4.609196377E-1,1.159275656E0
6.579059042E0,-7.472599078E-1,-7.814762789E-1,-8.771408200E-3,1.081286031E0
6.589029042E0,-6.547749364E-1,-1.823954138E-1,9.009898585E-1,1.128619081E0
6.598998042E0,-9.508764752E-1,1.164741969E0,1.284259057E-1,1.509066976E0
6.608968042E0,-5.510712046E-1,5.189558843E-1,-4.968092626E-1,9.054358762E-1
6.618938042E0,-7.411545376E-1,-6.529208574E-1,2.075117778E0,2.298201359E0
6.628908042E0,-7.018812751E-1,-1.442598733E-1,2.465614720E0,2.567626177E0
6.638878042E0,-1.051910149E0,1.401092565E0,-8.415037948E-1,1.943631646E0
6.648848042E0,-1.001114290E0,9.650487372E-1,-4.048161882E-1,1.448248954E0
6.658817042E0,-6.743405970E-1,-1.663445145E-2,-6.331628233E-1,9.251524775E-1
6.668787042E0,-1.247128799E0,2.928405467E-1,-1.683279485E0,2.115305097E0
6.678757042E0,-7.158048843E-1,-6.441234291E-1,-1.533505980E0,1.810776688E0
6.688727042E0,-7.510964122E-1,-1.668363238E0,-5.897478318E-1,1.922338217E0
6.698697042E0,-3.093198276E-1,-5.113740921E-1,8.102738160E-1,1.006839548E0
6.708667042E0,-4.892395303E-1,-8.359837309E-1,5.493260300E-1,1.113545331E0
6.718636042E0,-7.671059424E-1,-1.137051310E0,1.658353390E0,2.152085773E0
6.728606042E0,-2.172936434E-1,-1.241767341E-1,1.169313907E0,1.195797392E0
6.738576042E0,-2.105694184E-1,4.258731812E-1,2.935249633E-1,5.584481628E-1
6.748546042E0,-8.504391443E-1,1.102863809E-1,-2.358486128E-1,8.894011424E-1
6.758516042E0,-7.160070518E-1,-1.073657260E0,-9.253025812E-1,1.587951786E0
6.768486042E0,-8.659406977E-1,-1.063490121E0,7.172913927E-1,1.547698766E0
6.778455042E0,-1.105590531E-1,-3.356301785E-3,-2.543375087E-1,2.773484042E-1
6.788425042E0,8.861250669E-1,-6.653368351E-1,-1.492311176E0,1.858731660E0
6.798395042E0,1.211916848E-1,-5.704587445E-1,-1.420203897E0,1.535281640E0
6.808365042E0,4.063220290E-1,1.330554387E-1,-8.336357814E-1,9.368831075E-1
6.818335042E0,4.153980771E-2,-1.601956410E0,-5.615888107E-1,1.698049436E0
6.828305042E0,-1.421953677E-1,-1.900908466E0,4.524663180E-1,1.959183067E0
6.838274042E0,3.692023326E-1,-8.339626408E-1,2.391563242E0,2.559566133E0
6.848244042E0,3.634203134E-1,7.126726770E-1,2.025833936E0,2.178067907E0
6.858214042E0,4.218885230E-1,2.543696684E-1,1.190239338E0,1.288162853E0
6.868184042E0,-2.786057925E-1,-3.731257412E-1,1.431518260E0,1.505353292E0
6.878154042E0,-1.378579945E-1,4.823160616E-1,5.336858976E-1,7.324303702E-1
6.888124042E0,-1.644332059E-1,6.019851771E-1,-9.076627010E-1,1.101488090E0
6.898093042E0,-5.408573614E-1,-6.628546920E-1,-6.876530260E-1,1.097620022E0
6.908063042E0,-2.080556091E-1,-5.052187282E-1,3.726161563E-1,6.613440101E-1
6.918033042E0,2.994964688E-1,1.765526128E0,-1.096243007E0,2.099649822E0
6.928003042E0,1.918609596E-1,5.326813459E-4,-3.629343367E-1,4.105267888E-1
6.937973042E0,-3.627442656E-2,-7.678914428E-1,8.882095993E-2,7.738619159E-1
6.947942042E0,-3.598953925E-1,7.730086336E-1,-3.997495759E-1,9.417360376E-1
6.957912042E0,-2.238272490E-1,6.978461847E-1,-7.568168163E-2,7.367602404E-1
6.967882042E0,-6.056824812E-1,-1.124305842E0,5.382899952E-1,1.385882756E0
6.977852042E0,-6.753529693E-1,-5.467842454E-1,9.240290576E-1,1.268425931E0
6.987822042E0,-2.658184435E-1,9.596377239E-1,5.374532586E-1,1.131556455E0
6.997792042E0,-4.483492204E-1,-7.496560237E-1,1.265192456E0,1.537437195E0
7.007761042E0,-5.418318364E-1,-9.066452855E-1,1.183081761E0,1.585960235E0
7.017731042E0,-4.875114588E-1,3.336137661E-1,6.575878125E-1,8.839611409E-1
7.027701042E0,-6.093637785E-1,-4.424286953E-1,-1.345151961E-2,7.531588865E-1
7.037671042E0,-7.985748531E-1,-1.096369015E0,4.392369926E-2,1.357083676E0
7.047641042E0,-8.804996069E-1,-3.486916888E-1,-1.443005115E-1,9.579603797E-1
7.057611042E0,-1.061788874E0,8.342798522E-1,-1.172054497E0,1.788052076E0
7.067580042E0,-1.016327868E0,-5.602404428E-1,-9.509315121E-1,1.500354102E0
7.077550042E0,-1.104939352E0,-1.403665340E0,-6.458834410E-1,1.899561207E0
7.087520042E0,-7.635136324E-1,-1.344631559E-1,-6.621427935E-1,1.019542293E0
7.097490042E0,-7.502987789E-1,4.676015434E-1,-6.737138486E-1,1.111525893E0
7.107460042E0,-8.296927846E-1,-1.249540629E0,-1.394473225E-1,1.506382241E0
7.117430042E0,-5.514746625E-1,-1.309334841E0,1.209889491E0,1.866096088E0
7.127399042E0,-7.536180239E-1,1.541740321E0,7.761155516E-1,1.883416760E0
7.137369042E0,-5.175510542E-1,3.537767199E-1,5.855670726E-1,8.578495543E-1
7.147339042E0,-4.555344982E-1,-5.989548576E-1,1.754106224E-1,7.726755380E-1
7.157309042E0,-9.704141423E-1,1.995096293E-1,-4.287628752E-1,1.079511604E0
7.167279042E0,-8.915153226E-1,1.106342318E0,-9.277888173E-1,1.696933995E0
7.177249042E0,-7.854746781E-1,-9.543503791E-2,-1.275848422E0,1.501288617E0
7.187218042E0,-1.090766213E0,-1.967070588E-1,-4.524902916E-1,1.197168351E0
7.197188042E0,-9.175844758E-1,1.568546881E0,-7.025312662E-1,1.948294323E0
7.207158042E0,-3.329207980E-1,4.775920960E-1,-4.086724269E-1,7.112971394E-1
7.217128042E0,-2.421400706E-1,-1.044122681E0,1.775789453E0,2.074187111E0
7.227098042E0,3.612985050E-1,2.791963613E-1,1.076703951E0,1.169520678E0
7.237068042E0,5.244277087E-1,6.929921186E-1,1.005937439E-1,8.748609029E-1
7.247037042E0,2.504263609E-1,-1.380589011E0,1.328866881E0,1.932518193E0
7.257007042E0,-3.565341571E-1,-5.208638307E-1,1.913968515E0,2.015363791E0
7.266977042E0,-6.565578255E-1,2.132143041E0,1.401045495E-1,2.235336979E0
7.276947042E0,-6.265685528E-1,-9.013541400E-2,3.173359948E-1,7.081064029E-1
7.286917042E0,3.933727852E-1,-1.511400289E0,6.383855563E-1,1.687189705E0
7.296887042E0,6.099189717E-1,-2.508040363E-1,-8.600149101E-1,1.083757105E0
7.306856042E0,4.680818921E-1,2.203888670E-1,-1.013480932E0,1.137899605E0
7.316826042E0,5.957667729E-2,-1.033189265E0,-2.494474822E-1,1.064543791E0
7.326796042E0,-3.831627427E-2,-1.063974563E0,-1.715830350E-1,1.078401940E0
7.336766042E0,9.308700076E-1,8.287206119E-1,-9.037316179E-1,1.539489416E0
7.346736042E0,1.156251812E0,-4.057532045E-1,-7.278473711E-1,1.425242334E0
7.356706042E0,1.261527129E0,-1.673783607E0,1.607052258E0,2.641139758E0
7.366675042E0,1.511090679E0,-3.963397720E-1,1.310526504E0,2.039107641E0
7.376645042E0,1.239059934E0,-1.771340892E-1,-1.186008292E-1,1.257263760E0
7.386615042E0,7.867941754E-1,-8.510631153E-1,9.200213760E-1,1.479794862E0
7.396585042E0,8.943667173E-2,1.642474106E-1,1.240057615E0,1.254080946E0
7.406555042E0,2.026204942E-1,1.826304719E0,-1.560334175E0,2.410619573E0
7.416525042E0,-1.222748907E-1,-4.922341087E-1,-1.649413581E0,1.725633428E0
7.426494042E0,2.033581205E-1,-1.300418422E0,-6.490041000E-1,1.467531574E0
7.436464042E0,3.277639192E-1,-4.998638481E-2,-2.273812598E-1,4.020324150E-1
7.446434042E0,8.949063423E-1,9.637664428E-1,-1.121606475E0,1.728497672E0
7.456404042E0,9.703001216E-1,-1.374630699E-1,-7.525506878E-1,1.235601456E0
7.466374042E0,1.206299519E0,-5.033122435E-1,-6.941738409E-1,1.479986171E0
7.476344042E0,1.420841975E0,5.194119671E-1,-1.241504216E0,1.957016461E0
7.486313042E0,1.033802857E0,-3.833414117E-1,-3.479590327E-1,1.156189636E0
7.496283042E0,8.882063102E-1,-1.361923822E0,1.136469512E0,1.983761553E0
7.506253042E0,7.919693998E-1,-4.692785248E-1,2.964512608E0,3.104154131E0
7.516223042E0,1.034022420E0,1.446483916E0,1.151736007E0,2.118493312E0
7.526193042E0,2.861681427E-1,2.333974600E-2,1.557894716E0,1.584131591E0
7.536163042E0,7.249964149E-1,-3.053301993E-1,1.955723482E0,2.108008698E0
7.546133042E0,1.321268716E0,1.268500811E0,-1.174155986E0,2.175657971E0
7.556102042E0,1.020820796E0,-4.143854490E-1,-1.155951265E0,1.596876240E0
7.566072042E0,1.109931631E0,-1.194820339E0,-2.425717413E-1,1.648752534E0
7.576042042E0,1.583989816E0,2.848968118E-1,-5.613391346E-1,1.704491583E0
7.586012042E0,1.771982185E0,-3.220792562E-1,-5.919960862E-1,1.895815201E0
7.595982042E0,1.727934817E0,-1.963120210E0,4.797172666E-1,2.658896077E0
7.605951042E0,1.687597946E0,-8.765946901E-1,7.511467713E-1,2.044658052E0
7.615921042E0,1.930504002E0,8.149670836E-1,1.153912926E-1,2.098650090E0
7.625891042E0,1.802533156E0,-1.253946799E0,8.141189450E-1,2.341857811E0
7.635861042E0,1.709724103E0,-1.781154274E0,1.180898411E0,2.736820803E0
7.645831042E0,1.477867676E0,-3.575665927E-1,1.119854649E0,1.888391159E0
7.655801042E0,1.206781695E0,8.240980956E-1,-1.428299367E-1,1.468284755E0
7.665771042E0,1.041214422E0,-3.560381305E-1,-2.138472944E-1,1.120991208E0
7.675740042E0,1.426103592E0,-1.064437955E0,-6.544817716E-1,1.896087024E0
7.685710042E0,1.797991624E0,-9.850541085E-2,-1.086651819E0,2.103161756E0
7.695680042E0,2.268587234E0,6.290925765E-1,-1.502618063E0,2.792867084E0
7.705650042E0,2.590755075E0,1.458105549E-1,-1.196069012E0,2.857245817E0
7.715620042E0,3.217784754E0,-2.380530131E-1,-2.086286545E-1,3.233316235E0
7.725589042E0,3.224714289E0,1.129249370E0,3.253379095E-1,3.432175861E0
7.735559042E0,3.487201647E0,2.359214106E-1,9.088777524E-1,3.611411498E0
7.745529042E0,3.458289505E0,-1.205017883E0,3.352986413E0,4.965314923E0
7.755499042E0,3.320146404E0,2.385219598E-1,2.325589693E0,4.060619692E0
7.765469042E0,3.612835507E0,-1.393976212E-3,5.929380727E-1,3.661168926E0
7.775439042E0,3.436824376E0,-3.527607661E-1,2.010312502E0,3.997193804E0
7.785408042E0,3.753375090E0,8.787502661E-1,6.486503434E-1,3.909063042E0
7.795378042E0,3.247837981E0,1.840537719E0,-6.648307586E-1,3.791837362E0
7.805348042E0,2.179482830E0,-5.281403983E-1,1.055457509E-1,2.245042893E0
7.815318042E0,2.204871440E0,-6.076020125E-1,-2.248254418E-1,2.298082843E0
7.825288042E0,2.962187463E0,1.520329864E0,-1.916916096E0,3.841942839E0
7.835258042E0,2.894722581E0,-4.740659326E-2,-7.608204049E-1,2.993411748E0
7.845228042E0,2.412550068E0,-1.670166812E0,3.177795061E0,4.325301893E0
7.855197042E0,2.431275046E0,1.192043496E0,1.559973986E0,3.124993581E0
7.865167042E0,3.473060156E0,1.630899250E0,3.214056569E-1,3.850361127E0
7.875137542E0,2.999462001E0,-1.402751128E0,2.219319472E0,3.986208968E0
7.885107542E0,2.916057901E0,-8.157807237E-1,1.014104830E0,3.193321230E0
7.895077542E0,3.277144226E0,1.705718175E0,-5.115185183E-1,3.729718483E0
7.905047542E0,2.323469931E0,-8.476696837E-1,1.339540973E0,2.812725801E0
7.915016542E0,2.091361051E0,-8.946225330E-1,1.691843317E0,2.834867604E0
7.924986542E0,2.708812698E0,3.636389261E-1,-2.573301136E-1,2.745199135E0
7.934956542E0,2.838548672E0,-8.228120005E-1,5.766869062E-1,3.011136985E0
7.944926542E0,2.689413098E0,-1.337158232E0,1.067608023E0,3.187588719E0
7.954896542E0,2.572306525E0,3.060260180E-1,-3.321358824E-1,2.611652164E0
7.964866542E0,1.374114828E0,-4.532621241E-1,-9.546865940E-1,1.733512217E0
7.974835542E0,7.879241498E-1,-1.275478586E0,-1.044932520E0,1.827444681E0
7.984805542E0,7.739680155E-1,7.840940773E-2,-5.376128876E-1,9.456226209E-1
7.994775542E0,1.073665007E0,3.231533897E-1,1.320658559E0,1.732432882E0
8.004745542E0,1.163589191E0,-1.483633031E0,3.237407425E0,3.746453471E0
8.014715542E0,1.254101458E0,-1.457678995E0,4.831975293E0,5.200536871E0
8.024685542E0,1.292171217E0,1.803278676E0,1.393798456E0,2.619960796E0
8.034654542E0,2.322138958E0,1.218805033E0,-1.425545329E-1,2.626430438E0
8.044624542E0,3.036498265E0,-1.168626567E0,3.490803532E0,4.771972240E0
8.054594542E0,1.389649126E0,1.000357734E0,6.297936577E-1,1.824412327E0
8.064564542E0,3.218701013E0,2.686658767E0,-1.805967518E0,4.565050955E0
8.074534542E0,2.417323297E0,2.154874384E-1,5.918118989E-1,2.498024836E0
8.084504542E0,1.980602946E0,7.318506673E-1,2.797740662E-1,2.129945294E0
8.094473542E0,4.750539659E0,2.188409920E0,-9.124971789E-1,5.309370597E0
8.104443542E0,4.509375342E0,-2.656828612E-2,-6.044231737E-1,4.549780129E0
8.114413542E0,3.758266286E0,-1.359375021E0,9.568968415E-2,3.997702144E0
8.124383542E0,3.584003179E0,2.450217247E-2,9.021049225E-1,3.695872351E0
8.134353542E0,3.520729289E0,-8.030071887E-1,1.033970160E0,3.756254726E0
8.144323542E0,3.889085457E0,-1.704423309E0,1.597326584E0,4.536683450E0
8.154292542E0,2.220156501E0,-1.619834564E0,3.248176827E0,4.254833910E0
8.164262542E0,1.879664655E0,-1.514712444E-1,1.238053190E0,2.255849829E0
8.174232542E0,3.897674724E0,5.684075412E-1,-4.624410832E-1,3.965956019E0
8.184202542E0,2.894828416E0,-1.082277810E0,2.848465843E0,4.202988754E0
8.194172542E0,1.993777161E0,-6.858585155E-1,2.183787696E0,3.035535863E0
8.204142542E0,3.665532077E0,-1.513164394E0,2.025768448E0,4.453036008E0
8.214111542E0,2.455921206E0,-1.637497248E0,1.738157358E0,3.425512693E0
8.224081542E0,2.932672180E0,-5.236193311E-1,2.074333082E0,3.630096563E0
8.234051542E0,2.933148436E0,-3.922467211E-1,3.497920178E0,4.581775072E0
8.244021542E0,3.194416064E0,6.619141674E-1,1.941601871E0,3.796345899E0
8.253991542E0,3.351955549E0,-3.857700527E-2,1.125318872E0,3.536019903E0
8.263961542E0,2.252251283E0,1.131579486E-1,5.556550562E-2,2.255776604E0
8.273930542E0,2.469682336E0,-2.528324354E-1,-1.370178044E-2,2.482628208E0
8.283900542E0,2.709369353E0,9.309983540E-1,-9.375419730E-1,3.014369781E0
8.293870542E0,1.091132248E0,9.445589241E-1,-4.898844051E-1,1.524056388E0
8.303840542E0,1.169329110E-1,-2.530060977E-1,-4.034181190E-1,4.903382198E-1
8.313810542E0,4.702710897E-1,-8.819235501E-1,-2.588807952E-1,1.032454993E0
8.323780542E0,1.788067144E0,-4.192082325E-1,5.449324322E-1,1.915690740E0
8.333749542E0,8.746944912E-1,7.996894786E-1,6.236353701E-1,1.339221711E0
8.343719542E0,1.467370316E0,-4.080783498E-1,2.093832961E0,2.589177486E0
8.353689542E0,1.421085804E0,-7.750580826E-1,3.046953671E0,3.450235726E0
8.363659542E0,3.057904336E0,7.390982911E-1,2.284943942E0,3.888189043E0
8.373629542E0,3.124007694E0,-5.701906496E-1,3.158878734E0,4.479180316E0
8.383599542E0,2.182296072E0,-2.455642294E0,2.645799594E0,4.218157265E0
8.393568542E0,3.175852032E0,-4.048205736E-1,1.072154233E0,3.376304270E0
8.403538542E0,4.561831591E0,1.301898060E0,6.193709958E-1,4.784231020E0
8.413508542E0,4.229750673E0,-1.168549091E0,4.349685252E-2,4.388415398E0
8.423478542E0,3.663756570E0,-1.989597279E0,2.243810534E-2,4.169186132E0
8.433448542E0,3.102456904E0,9.040915141E-1,-2.061572118E0,3.833105778E0
8.443418542E0,2.727560041E0,-6.273477674E-3,-5.817991269E-1,2.788926919E0
8.453387542E0,2.713181445E0,-1.877440959E0,-3.517345798E-1,3.318110204E0
8.463357542E0,1.127877175E0,-1.419051119E0,-3.075892711E-1,1.838592983E0
8.473327542E0,6.733156532E-1,8.184172332E-2,1.366698951E-1,6.919036759E-1
8.483297542E0,1.191799229E0,-1.225570554E-1,-1.188423193E0,1.687529353E0
8.493267542E0,2.063768479E0,-1.178863872E0,5.345197105E-1,2.436097634E0
8.503237542E0,2.460364505E0,-6.409349424E-1,9.470530540E-1,2.713134826E0
8.513206542E0,1.372795842E0,-1.841811535E-1,-1.685226023E-1,1.395310356E0
8.523176542E0,2.272945017E0,4.874598572E-1,8.474954367E-3,2.324643626E0
8.533146542E0,1.902013005E0,4.231749836E-1,-1.913110144E0,2.730699720E0
8.543116542E0,2.563052137E0,-8.909630531E-1,-2.920632178E0,3.986620591E0
8.553086542E0,1.526505401E0,-2.188418399E0,2.488037038E-1,2.679794229E0
8.563056542E0,-2.083446260E-1,-1.176469730E0,1.614391099E0,2.008419062E0
8.573026542E0,3.541195129E-1,-1.349044745E0,3.218361290E0,3.507587738E0
8.582995542E0,-6.442628852E-1,1.800030255E-1,1.691412377E0,1.818887458E0
8.592965542E0,-7.603719234E-3,-5.440629512E-2,1.771902809E0,1.772754192E0
8.602935542E0,7.140194370E-1,-7.724665967E-1,2.412278173E0,2.631656205E0
8.612905542E0,5.356385753E-1,-3.290380275E-1,-1.494071773E0,1.620933425E0
8.622875542E0,5.020109457E-1,5.199873331E-1,1.505647506E0,1.670142577E0
8.632844542E0,6.479302588E-1,-2.926084122E-1,5.205780188E0,5.254101319E0
8.642814542E0,-2.034388559E0,5.481489855E-1,5.039549695E0,5.462258255E0
8.652784542E0,1.011702940E0,-1.212509043E0,6.916694199E0,7.094672626E0
8.662754542E0,-8.351639512E-1,6.704812154E-1,3.134077184E0,3.312021087E0
8.672724542E0,-4.511736448E-1,1.933999321E0,1.075152100E0,2.258287642E0
8.682694542E0,-5.624341719E-2,1.682831004E0,3.285515392E-1,1.715526048E0
8.692664542E0,-2.076696234E0,2.002583653E0,-3.254819264E0,4.349351328E0
8.702633542E0,-7.379993800E-1,2.733523616E-1,-4.895369051E0,4.958225766E0
8.712603542E0,-3.113692767E-1,-1.477972926E0,-2.171966380E0,2.645523153E0
8.722573542E0,-1.453477039E0,-9.708804578E-2,-4.815211326E-1,1.534237333E0
8.732543542E0,-1.232956172E0,6.982063732E-1,6.000687522E-1,1.538751302E0
8.742513542E0,-1.596328465E0,-5.215853772E-1,1.899364509E0,2.535330631E0
8.752483542E0,-2.387271532E0,-3.039379773E-1,4.668674254E-1,2.451409565E0
8.762452542E0,1.896865263E-1,-8.020415211E-1,2.155376076E0,2.307573966E0
8.772422542E0,4.600706220E-2,-1.611768915E0,2.435504483E0,2.920889894E0
8.782392542E0,-3.070556396E-1,6.044304827E-1,1.774273270E0,1.899385430E0
8.792362542E0,1.555709466E-1,2.103168918E0,1.010942071E0,2.338701710E0
8.802332542E0,-7.532658754E-1,1.347439976E0,-1.630255179E0,2.245158328E0
8.812302542E0,1.075077402E0,4.231086177E-1,-1.272638885E0,1.718843232E0
8.822271542E0,1.240340620E0,8.522278807E-1,-1.601947639E0,2.197947555E0
8.832241542E0,4.332378224E-1,9.571280989E-1,-9.289950979E-1,1.402433991E0
8.842211542E0,7.064626417E-1,2.506467462E-1,-1.997888339E-1,7.757762780E-1
8.852181542E0,8.545840893E-2,1.122337084E0,-3.637576831E0,3.807743278E0
8.862151542E0,8.612824403E-1,1.828790955E0,-8.777593385E0,9.007354186E0
8.872121167E0,4.452051360E-1,1.986649990E-2,-9.896281514E0,9.906310620E0
8.882090167E0,1.927762681E-1,-1.034234747E0,-8.141480057E0,8.209171804E0
8.892060167E0,9.768792625E-1,-9.107304427E-1,-7.666335897E0,7.781801149E0
8.902030167E0,6.191020969E-2,-2.573076019E-1,-9.868897834E0,9.872445722E0
8.912000167E0,-4.607844939E-1,-4.887082377E0,1.753836316E1,1.821236061E1
8.921970167E0,2.536837607E0,-4.090359191E0,3.310760862E1,3.345564724E1
8.931940167E0,1.346036791E0,5.534203674E0,7.014920406E0,9.035946749E0
8.941909167E0,2.612522066E-1,8.590964295E0,-1.428110152E1,1.666801670E1
8.951879167E0,1.653563935E0,4.478335690E-1,-1.591790558E1,1.600982656E1
8.961849167E0,4.232299474E0,-6.690832046E0,-7.627029744E0,1.099323315E1
8.971819167E0,7.863554880E-1,-5.558411731E0,1.297336940E0,5.761716677E0
8.981789167E0,3.604300327E0,-1.244348887E0,7.422519869E0,8.344650154E0
8.991759167E0,3.635701337E0,2.756175730E-1,6.535467433E0,7.483757334E0
9.001728167E0,2.846104445E0,-1.664589153E0,2.226453660E0,3.978475016E0
9.011698167E0,-4.225855842E-2,-6.016331162E0,3.225917646E0,6.826754068E0
9.021668167E0,-1.340541724E0,-3.472457016E0,4.787252280E0,6.064057571E0
9.031638167E0,-1.437279375E0,-2.266556203E-2,3.221045161E0,3.527239383E0
9.041608167E0,-1.939608994E0,-1.188387232E0,2.344630566E0,3.266747580E0
9.051578167E0,3.821873906E-1,-2.879509295E0,3.239665035E0,4.351214833E0
9.061548167E0,5.132946466E-1,-9.996706858E-1,3.069840258E0,3.269056757E0
9.071517167E0,-7.869305617E-1,3.489337635E-1,1.899159272E0,2.085142782E0
9.081487167E0,4.413128272E-1,-1.003566101E0,-3.016900152E-1,1.137065871E0
9.091457167E0,1.025946173E0,-1.382493157E0,-3.638252184E0,4.025013271E0
9.101427167E0,1.647718766E0,-3.712213030E-1,-4.114355287E0,4.447550091E0
9.111397167E0,1.036307877E0,2.105374780E-1,-1.755098496E0,2.049056070E0
9.121367167E0,6.549324457E-1,-1.395910470E0,-3.901595575E-1,1.590511562E0
9.131336167E0,7.545270467E-1,-1.472202017E0,-9.657150275E-1,1.915540487E0
9.141306167E0,-7.640860748E-1,-2.222385752E0,-3.604393297E-1,2.377549678E0
9.151276167E0,3.437690641E-1,-1.675574024E0,9.344172210E-1,1.949066706E0
9.161246167E0,1.322679284E-1,4.412279695E-2,5.172197875E0,5.174076969E0
9.171216167E0,-1.325667284E0,6.356721559E-1,3.276954483E0,3.591643569E0
9.181186167E0,-1.309552285E-1,1.581830878E0,-2.673369800E0,3.109058425E0
9.191155167E0,3.862884083E-1,1.586764466E0,-3.700394053E0,4.044744288E0
9.201125167E0,4.097867601E-1,-3.379093062E0,-1.226257017E0,3.617996874E0
9.211095167E0,1.692038760E-1,-4.263480336E0,2.220619892E0,4.810098464E0
9.221065167E0,4.492039006E-1,-1.354245551E0,2.281170149E0,2.690632343E0
9.231035167E0,1.465962745E-1,1.287783466E0,-1.766612833E0,2.191072255E0
9.241005167E0,2.709527009E-1,-1.657752880E-1,-4.673919207E0,4.684700371E0
9.250974167E0,-9.771824406E-1,-1.308769416E0,-4.268280900E0,4.570118680E0
9.260944167E0,-1.872460008E0,4.452541868E0,-4.530815036E0,6.622652071E0
9.270914167E0,-1.682360449E0,1.324104908E1,-3.709966530E0,1.385350386E1
9.280884167E0,-1.294088080E0,8.830349888E0,-4.929360670E-1,8.938273271E0
9.290854167E0,1.545492187E-4,3.194951377E0,8.790798737E0,9.353387448E0
9.300824167E0,1.429676533E0,-6.645407367E0,1.434670961E1,1.587556269E1
9.310793167E0,-1.590459761E0,-1.037975854E1,6.694474277E0,1.245331022E1
9.320763167E0,-5.668256867E-1,-3.843138621E0,-8.331243255E0,9.192421878E0
9.330733167E0,5.248538611E-1,5.165102279E0,-1.014456832E1,1.139587731E1
9.340703167E0,1.210817882E0,6.117421335E0,-3.785078108E0,7.294911927E0
9.350673167E0,1.436834402E0,4.279241506E0,-2.856299357E0,5.341801848E0
9.360643167E0,1.242423545E0,2.715365965E0,-1.023807115E0,3.156740344E0
9.370612167E0,1.053574632E0,2.703634696E0,-1.119305595E0,3.110065127E0
9.380582167E0,1.671463139E-1,2.210922870E-1,-1.707931931E0,1.730274883E0
9.390552167E0,-8.575913854E-2,-1.770976610E0,1.329436984E0,2.216103670E0
9.400522167E0,4.760242748E-1,-4.345982210E0,2.077299374E0,4.840385643E0
9.410492167E0,9.796841718E-1,-3.965239593E-1,9.076650399E-1,1.393150441E0
9.420462167E0,1.118920848E0,1.456067210E0,-1.883426753E0,2.630477508E0
9.430432167E0,6.826831850E-1,9.666763097E-1,1.221029606E0,1.700421335E0
9.440401167E0,1.213214071E0,-1.157794015E0,3.422702765E0,3.811465543E0
9.450371167E0,1.329150470E0,-2.270249305E0,1.782166427E0,3.177544658E0
9.460341167E0,7.946389461E-1,-4.961467731E-1,-1.214516392E0,1.533839217E0
9.470311167E0,3.610072406E-1,8.017380506E-1,-3.165901825E0,3.285733479E0
9.480281167E0,3.621989762E-1,-5.960058144E-1,-1.286081634E0,1.463016404E0
9.490251167E0,3.559441000E-1,-2.498394211E0,-1.436628141E0,2.903888815E0
9.500220167E0,3.173140678E-1,-3.632337141E-1,-6.599296224E-1,8.173946753E-1
9.510190167E0,3.819866118E-1,2.418157256E0,-1.917743477E0,3.109845387E0
9.520160167E0,4.255895182E-1,2.460911512E0,-2.167408476E0,3.306791709E0
9.530130167E0,-1.760011180E-1,-1.250199026E0,8.217431295E-1,1.506398277E0
9.540100167E0,-1.397599293E0,-4.929260682E0,6.111802161E-1,5.159887200E0
9.550070167E0,-6.005499780E-1,3.573528770E-1,-4.442264217E-1,8.280691206E-1
9.560039167E0,-2.400575117E-1,3.898039883E0,-3.802737284E0,5.450977288E0
9.570009167E0,4.079843558E-1,9.518156111E-1,-1.968800195E0,2.224540042E0
9.579979167E0,5.048492572E-1,-4.132013586E0,3.769374241E0,5.615744939E0
9.589949167E0,-5.721271013E-1,-2.585812716E0,2.815690445E0,3.865471446E0
9.599919167E0,-2.650212488E-1,2.402468299E0,4.891435629E-1,2.466039662E0
9.609889167E0,2.295907764E-1,2.604741907E0,-1.102490172E0,2.837759135E0
9.619858167E0,8.925063526E-1,-1.461758597E0,1.803457893E0,2.487120053E0
9.629828167E0,6.593006082E-1,-1.378028516E0,7.062179357E-1,1.682968703E0
9.639798167E0,4.598507667E-1,8.710249248E-1,4.840857214E-1,1.097490835E0
9.649768167E0,1.174666010E0,7.915255961E-1,8.801796180E-1,1.667653790E0
9.659738167E0,1.335347934E0,-1.217575071E0,1.812902901E0,2.559738285E0
9.669708167E0,1.058543523E0,-7.802217588E-1,2.022475880E0,2.412399028E0
9.679677167E0,-1.365218143E-1,-3.164907798E-1,-1.404770172E-1,3.722074849E-1
9.689647167E0,-2.995514692E-1,1.263305560E-1,1.271643689E0,1.312542633E0
9.699617167E0,4.551534791E-1,1.538343966E-1,7.818013841E-1,9.176290728E-1
9.709587167E0,2.636031528E-1,-8.102325931E-1,1.209039890E0,1.479101394E0
9.719557167E0,3.689522910E-1,-2.204917780E-1,-4.578410786E-1,6.279815845E-1
9.729527167E0,2.230133166E-1,-6.583815721E-1,-7.478781778E-1,1.021040157E0
9.739497167E0,8.663205475E-1,-6.896469265E-1,4.027310711E-1,1.178268429E0
9.749466167E0,1.302144813E0,-8.943374813E-2,-1.972468738E0,2.365208750E0
9.759436167E0,1.581684698E0,-4.489354768E-1,-7.275257742E-1,1.797933063E0
9.769406167E0,1.683663062E0,-3.316491017E-1,-4.808071876E-1,1.782102126E0
9.779376167E0,1.309458510E0,-3.500277776E-1,-7.231695986E-1,1.536286205E0
9.789346167E0,1.877024052E0,9.096864223E-2,-1.044595721E0,2.150040652E0
9.799316167E0,1.753307494E0,9.485037482E-1,-2.111937110E0,2.904139268E0
9.809285167E0,1.684624929E0,-5.634754148E-1,-6.315016294E-1,1.885274517E0
9.819255167E0,1.323345355E0,-6.302678668E-1,-2.111137211E-1,1.480894836E0
9.829225167E0,1.653807764E0,3.974299854E-1,-6.004055518E-1,1.803750964E0
9.839195167E0,2.209262553E0,4.121231613E-1,8.049563581E-1,2.387182705E0
9.849165167E0,1.664217854E0,5.838120309E-1,9.120621461E-1,1.985526357E0
9.859135167E0,1.874600381E0,3.190793422E-1,1.500582063E0,2.422330436E0
9.869104167E0,1.591212736E0,6.092395252E-1,-1.502588242E-1,1.710470252E0
9.879073667E0,2.153357909E0,4.235839963E-2,-1.128900876E0,2.431699345E0
9.889043667E0,3.116072145E0,-3.099091539E-1,4.600636053E-1,3.165060477E0
9.899013667E0,3.332328785E0,1.699623915E0,-1.228391835E0,3.937268480E0
9.908983667E0,3.512046466E0,4.174490976E-1,-1.705245720E0,3.926397471E0
9.918953667E0,3.060392327E0,1.736283910E-1,-4.075257879E-1,3.092284799E0
9.928922667E0,3.442223695E0,1.650856090E-1,-1.051019472E-1,3.447782424E0
9.938892667E0,3.173478647E0,-4.587409651E-1,1.636672499E0,3.600014842E0
9.948862667E0,2.549570796E0,1.041232110E0,4.890090770E-1,2.797070866E0
9.958832667E0,1.903735010E0,1.341509145E0,5.621688545E-1,2.395806252E0
9.968802667E0,1.641457860E0,4.689993203E-2,3.040534013E0,3.455637509E0
9.978772667E0,2.188570426E0,-5.973059428E-1,1.882173110E0,2.947743292E0
9.988741667E0,2.374671806E0,4.470833713E-1,8.811081558E-1,2.572022805E0
9.998711667E0,1.856189692E0,1.091148328E0,-3.280749911E-1,2.177998633E0
1.000868167E1,2.580942863E0,8.111386192E-1,-8.211244941E-2,2.706650028E0
1.001865167E1,2.218878592E0,-1.299459186E0,1.142785674E0,2.813889742E0
1.002862167E1,1.372649516E0,-6.262300721E-1,2.372186154E-1,1.527286308E0
1.003859167E1,1.382557330E0,3.262670320E-1,3.032307565E-1,1.452537035E0
1.004856067E1,1.795789562E0,5.736413839E-1,2.079562247E0,2.806867244E0
1.005853067E1,1.653641703E0,3.390127927E-2,3.083299963E0,3.498916810E0
1.006850067E1,1.332423596E0,7.596302041E-1,3.469696838E-1,1.572507121E0
1.007847067E1,1.701649098E0,7.126995742E-2,4.564862788E-2,1.703752581E0
1.008844067E1,1.582184927E0,-1.509347624E-1,7.278526336E-1,1.748101800E0
1.009841067E1,1.778925754E0,6.229190862E-1,-9.062055749E-1,2.091366436E0
1.010838067E1,2.561153546E0,9.441522503E-1,4.855656517E-1,2.772490750E0
1.011834967E1,1.303138401E0,2.949724415E-1,-2.845611817E-1,1.366072289E0
1.012831967E1,1.352560968E0,2.187317660E-1,-1.694278682E0,2.178955027E0
1.013828967E1,2.377141523E0,1.657665172E-1,-9.328601074E-1,2.559005342E0
1.014825967E1,1.997123961E0,4.645387718E-1,5.455808884E-1,2.121782009E0
1.015822967E1,1.793733389E0,2.409008995E-1,-4.766182423E-2,1.810465234E0
1.016819967E1,1.873059201E0,2.854408953E-1,-4.511354917E-1,1.947652564E0
1.017816867E1,2.214137523E0,6.046605706E-3,7.966422021E-1,2.353100153E0
1.018813867E1,2.541631447E0,6.393909851E-1,4.195067328E-1,2.654184836E0
1.019810867E1,1.635961039E0,-5.535102975E-1,-4.920905596E-1,1.795799345E0
1.020807867E1,1.393971388E0,-1.714455085E0,-1.950397253E-2,2.209726877E0
1.021804867E1,1.793654744E0,-1.405030373E-1,-2.269538283E-2,1.799292506E0
1.022801867E1,1.568244142E0,1.121988882E0,-1.412176255E0,2.390081696E0
1.023798767E1,1.614001236E0,-8.290144345E-1,4.779829824E-1,1.876361546E0
1.024795767E1,1.450406374E0,-4.518558687E-1,4.382499826E-1,1.581112084E0
1.025792767E1,1.931451251E0,6.916750333E-1,-4.348890030E-1,2.097152053E0
1.026789767E1,2.758536251E0,1.317991059E0,6.719152451E-1,3.130190533E0
1.027786767E1,1.250113949E0,-2.645613652E-1,1.560073974E0,2.016583349E0
1.028783767E1,1.832422368E0,-8.130831107E-1,1.444073401E0,2.470672756E0
1.029780767E1,2.067977451E0,1.932349530E0,8.092107922E-1,2.943692842E0
1.030777667E1,1.889998731E0,1.658592833E0,-3.198561448E-1,2.534824125E0
1.031774667E1,2.861372986E0,-1.052720427E0,1.293433923E0,3.311894772E0
1.032771667E1,2.048473186E0,1.192027709E0,-6.344597358E-1,2.453510059E0
1.033768667E1,2.061336476E0,1.777247457E0,-1.344758443E0,3.035801683E0
1.034765667E1,2.946388871E0,-1.056077313E0,1.448033136E0,3.448667370E0
1.035762667E1,1.440700435E0,-2.176237187E-1,1.818168318E-1,1.468344369E0
1.036759567E1,2.586351829E0,1.268340597E0,4.005880666E-1,2.908328464E0
1.037756567E1,2.633568388E0,-1.391307250E0,1.336996849E0,3.264809167E0
1.038753567E1,1.931868158E0,-2.148504720E0,9.526751518E-1,3.042330859E0
1.039750567E1,2.158598768E0,-3.080707893E-1,9.002671427E-1,2.359011908E0
1.040747567E1,1.364423653E0,-1.043533866E0,8.554739624E-1,1.918971218E0
1.041744567E1,1.669556216E0,-1.910368969E0,2.116961038E-1,2.545926707E0
1.042741467E1,1.873149102E0,-2.417081953E0,2.621371681E0,4.027724198E0
1.043738467E1,1.466440317E0,2.117545760E-1,4.374728876E-1,1.544885022E0
1.044735467E1,2.121245732E0,-8.343245834E-1,-3.773617566E-1,2.310450791E0
1.045732467E1,2.874093604E0,-1.525083066E0,3.687634259E-1,3.274489100E0
1.046729467E1,2.243085041E0,7.478109348E-1,-1.245776777E0,2.672566458E0
1.047726467E1,3.431485868E0,-5.763536149E-1,-1.234388155E-1,3.481740354E0
1.048723367E1,1.967414405E0,-2.222464104E0,-6.961642331E-1,3.048722810E0
1.049720367E1,1.689335739E0,-9.395770964E-1,-6.776893705E-1,2.048395284E0
1.050717367E1,1.689825589E0,1.502442062E-2,4.677228731E-1,1.753425488E0
1.051714367E1,8.041874492E-1,-1.523135358E-1,1.204731077E-1,8.273032312E-1
1.052711367E1,2.747433558E0,-7.633618972E-1,3.228689227E0,4.307614962E0
1.053708367E1,1.996832478E0,7.074008274E-1,2.273374642E0,3.107408588E0
1.054705367E1,2.056548922E0,2.027591025E0,1.802706526E0,3.404448509E0
1.055702267E1,2.523964670E0,1.358069045E0,2.846612275E0,4.039548320E0
1.056699267E1,3.142999451E0,8.605920303E-1,6.850013137E-1,3.329908556E0
1.057696267E1,4.002227033E0,1.068162339E0,2.125121412E0,4.655634546E0
1.058693267E1,2.867720724E0,2.312616768E0,9.713458961E-1,3.809925368E0
1.059690267E1,3.302359466E0,7.483792841E-1,-7.868481159E-1,3.476316952E0
1.060687167E1,2.875374144E0,4.696088925E-1,3.634863138E-1,2.936057098E0
1.061684167E1,1.470265857E0,7.153354990E-1,1.811710069E0,2.440426180E0
1.062681167E1,1.370701077E0,9.662523866E-2,3.036248589E-1,1.407247645E0
1.063678167E1,1.068494022E0,1.554847147E0,9.129544312E-1,2.095880464E0
1.064675167E1,4.698731866E-1,4.563117394E-1,2.750977555E0,2.827875302E0
1.065672167E1,-1.191137762E-1,-2.714444152E-1,-3.016999555E-1,4.229574746E-1
1.066669167E1,2.187382565E0,1.026084313E0,-3.502873939E-1,2.441350602E0
1.067666067E1,1.314488577E0,1.423738247E0,-8.286147773E-2,1.939530056E0
1.068663067E1,1.283223808E0,-1.652478400E0,-1.580032275E0,2.621802851E0
1.069660067E1,1.954844061E0,-9.624303541E-1,-1.375092044E0,2.576541406E0
1.070657067E1,1.472639681E0,-1.792671534E-1,1.444379210E-1,1.490525630E0
1.071654067E1,4.691776603E-1,-1.429237846E0,-8.739301139E-1,1.739713292E0
1.072651067E1,7.665693873E-1,-9.621654752E-1,-6.317530596E-1,1.382932737E0
1.073647967E1,-1.600602195E-1,-1.578813130E0,3.890386462E-2,1.587382652E0
1.074644967E1,2.328118613E-1,-9.539618316E-1,-3.698720580E-1,1.049309239E0
1.075641967E1,7.230789667E-1,6.714521456E-1,8.319833583E-1,1.290692637E0
1.076638967E1,-6.371140793E-2,-2.728313747E-1,1.689145997E0,1.712223788E0
1.077635967E1,4.512933666E-1,-1.442936118E0,9.178421187E-1,1.768661781E0
1.078632967E1,3.662316547E-1,6.321547633E-1,7.959118849E-1,1.080380025E0
1.079629867E1,5.766563545E-1,1.996942844E0,-7.184029484E-1,2.199185319E0
1.080626867E1,8.020276339E-1,1.181219423E-1,-1.102422929E0,1.368406896E0
1.081623867E1,1.533677157E-1,1.419905982E0,-1.321893491E0,1.946036242E0
1.082620867E1,1.357057184E0,2.365554242E0,-1.614657732E0,3.169317066E0
1.083617867E1,8.058870886E-1,-9.220331106E-1,-1.024373125E0,1.596539807E0
1.084614867E1,-4.370543001E-1,-6.749698305E-1,-2.433207697E-1,8.401224496E-1
1.085611867E1,-4.529287597E-1,-9.585808396E-2,-1.102697164E-1,4.759124331E-1
1.086608767E1,-8.705073731E-1,-7.960446167E-1,4.882577097E-1,1.276661940E0
1.087605829E1,-1.265164390E0,6.404975706E-1,8.931890881E-1,1.675907163E0
1.088602829E1,-4.884977379E-1,-7.771388143E-2,1.265263208E0,1.358514068E0
1.089599829E1,-4.988821006E-1,-3.612857142E-1,2.465123554E0,2.540914177E0
1.090596829E1,-3.886833548E-1,8.090160799E-1,2.720624074E0,2.864852024E0
1.091593829E1,-5.257801697E-2,-4.277784964E-1,1.952633228E0,1.999633820E0
1.092590729E1,-4.472354720E-1,-1.321904308E0,1.962354224E0,2.407962763E0
1.093587729E1,-1.452345749E0,1.162630247E0,5.741872215E-1,1.946974122E0
1.094584729E1,-4.880102263E-1,-1.925387835E0,-2.409087932E-1,2.000827164E0
1.095581729E1,-6.564320373E-1,-1.997175271E0,-6.941621464E-1,2.213927092E0
1.096578729E1,-1.441057407E0,2.298306584E-2,-1.016203980E0,1.763475319E0
1.097575729E1,-8.424040467E-1,-3.969303408E-1,-1.567606941E0,1.823345770E0
1.098572629E1,-5.680171665E-1,-2.297362551E0,-1.797985484E0,2.972081761E0
1.099569629E1,-8.751198030E-1,-1.180294686E0,-1.006286518E0,1.780882582E0
1.100566629E1,-1.145524291E0,-7.515651396E-1,-7.399762505E-1,1.557125850E0
1.101563629E1,-9.076942760E-1,-1.701219912E0,-1.086419100E0,2.213224921E0
1.102560629E1,-9.068789548E-1,-7.179658690E-1,3.324902236E-1,1.203517418E0
1.103557629E1,-1.040708273E0,4.463238180E-1,7.544603884E-1,1.360694358E0
1.104554629E1,-2.405163354E-1,-1.009141713E-1,-3.719846570E-1,4.543174690E-1
1.105551529E1,-6.574585160E-1,-5.623276064E-1,-2.298540473E-2,8.654434505E-1
1.106548529E1,-9.102679279E-1,7.602918166E-1,-8.618866038E-1,1.466110455E0
1.107545529E1,-8.328784939E-2,-4.822596359E-1,1.431663855E0,1.513001195E0
1.108542529E1,2.491378904E-1,-5.438296473E-1,1.953084633E0,2.042635542E0
1.109539529E1,-6.411167908E-1,2.100173390E0,-5.971925068E-1,2.275609346E0
1.110536529E1,6.079587657E-2,9.890641290E-1,-6.500180072E-1,1.185102274E0
1.111533429E1,-1.050311301E0,5.810232013E-2,-1.527455866E0,1.854629648E0
1.112530429E1,-8.607195727E-1,9.049837992E-1,-1.993555552E0,2.352466280E0
1.113527429E1,-8.901190806E-1,-1.214357933E0,-1.818503948E0,2.360917995E0
1.114524429E1,-8.840813188E-1,-1.725454282E0,-1.008128976E0,2.185203947E0
1.115521429E1,-9.599669221E-1,7.854772362E-1,-5.474952668E-1,1.355825227E0
1.116518429E1,-8.511397138E-1,-5.735761875E-1,-2.515197355E-1,1.056735839E0
1.117515329E1,5.645331396E-2,-1.110234225E0,7.115657991E-1,1.319898821E0
1.118512329E1,-6.941266246E-1,-1.224661312E-1,2.047476236E0,2.165402655E0
1.119509329E1,-6.486773137E-1,-1.269302172E0,1.436611769E0,2.023799307E0
1.120506329E1,-5.859990357E-1,-7.230509001E-1,1.060213634E0,1.410762355E0
1.121503329E1,-1.624097184E0,1.010193043E0,1.170404413E0,2.242326501E0
1.122500329E1,-1.016474853E0,-1.687783303E0,-1.947023410E-1,1.979833984E0
1.123497229E1,-9.723110522E-1,-1.264216848E0,-2.131640473E0,2.662240434E0
1.124494229E1,-1.037869449E0,5.274159282E-2,-1.680842950E0,1.976154775E0
1.125491229E1,-8.614082468E-2,-2.082194663E0,-8.601453030E-1,2.254507662E0
1.126488229E1,-8.925070287E-2,-2.230149392E0,-1.015985295E0,2.452296499E0
1.127485229E1,-2.232517368E-1,-4.075506386E-1,-8.388193381E-1,9.589352131E-1
1.128482229E1,2.299569217E-1,-1.315514179E0,7.541598415E-1,1.533693192E0
1.129479229E1,1.606247681E-1,-1.599762827E0,1.651403389E0,2.304815518E0
1.130476129E1,-7.031297287E-1,-2.001683182E-1,1.752704646E0,1.899060912E0
1.131473129E1,-3.617519931E-1,2.138685491E0,1.438460074E0,2.602692359E0
1.132470129E1,3.373404890E-1,1.459727274E0,1.244052433E0,1.947374842E0
1.133467129E1,2.183371704E-1,3.817521384E-1,1.921668713E0,1.971348893E0
1.134464129E1,8.275049027E-2,2.890717238E0,3.685704678E-1,2.915293808E0
1.135461129E1,7.766255750E-1,2.245327302E0,-8.696546298E-1,2.530008133E0
1.136458029E1,9.292034049E-1,8.607934669E-1,-1.312833815E0,1.824257928E0
1.137455029E1,7.926945276E-1,8.127363709E-1,-1.336305124E0,1.753458413E0
1.138452029E1,9.530179448E-1,-7.098566580E-1,-1.939350109E0,2.274471042E0
1.139449029E1,4.934066582E-1,-2.197880656E-1,-8.110596818E-1,9.744612519E-1
1.140446029E1,1.290782503E0,1.905621322E0,-4.972097969E-1,2.354724968E0
1.141443029E1,1.457092958E0,-7.604537845E-1,1.199030042E-2,1.643640354E0
1.142440029E1,1.358201192E0,-1.274764348E0,-3.401600164E-1,1.893526725E0
1.143436929E1,1.617209457E0,-7.325742602E-2,8.228242797E-1,1.815977112E0
1.144433929E1,1.157442013E0,-7.377516773E-1,1.231310180E0,1.843929042E0
1.145430929E1,4.218865130E-1,3.906349361E-2,3.126430196E-1,5.265546924E-1
1.146427929E1,4.465674276E-1,9.957971978E-1,1.181594229E0,1.608477370E0
1.147424929E1,1.576352622E0,-1.285117428E0,8.011468971E-1,2.185921029E0
1.148421929E1,1.272851432E0,-4.376775402E-1,-1.671907820E0,2.146389563E0
1.149418829E1,5.992787202E-1,2.199331934E0,-9.424425244E-1,2.466656412E0
1.150415829E1,1.280958889E0,8.119560599E-2,5.280719858E-1,1.387915135E0
1.151412829E1,6.822947837E-1,-8.378592253E-1,-1.364705635E0,1.740676800E0
1.152409829E1,6.330928760E-1,1.460279252E0,-1.839000778E0,2.432107305E0
1.153406829E1,1.954456683E0,5.061367410E-1,-8.591115153E-1,2.194116661E0
1.154403829E1,2.014484198E0,-1.065262120E0,-6.486082435E-1,2.369308469E0
1.155400729E1,2.078370584E0,8.024715838E-1,-1.670070040E0,2.784370462E0
1.156397729E1,2.649379844E0,6.456179774E-1,-7.748034364E-1,2.834846821E0
1.157394729E1,2.708758904E0,-6.524983960E-1,1.696224636E-1,2.791397631E0
1.158391729E1,2.009604989E0,5.190725362E-1,1.100598013E0,2.349311494E0
1.159388729E1,2.281485607E0,1.785708378E0,-3.256197453E-2,2.897411132E0
1.160385729E1,2.661556086E0,8.766926309E-1,3.754181421E-1,2.827261847E0
1.161382729E1,2.592066898E0,1.194345545E0,8.762181294E-1,2.985469862E0
1.162379629E1,3.534643616E0,1.472314868E0,-2.852154851E-2,3.829129149E0
1.163376629E1,3.245687082E0,8.352747560E-3,-1.219303508E0,3.467168218E0
1.164373629E1,3.243519520E0,-2.976139212E-1,-4.032573205E-1,3.282013008E0
1.165370629E1,3.140142793E0,-1.312796393E0,1.148191425E0,3.591973647E0
1.166367629E1,2.457108191E0,-1.137625799E0,1.106079193E0,2.924890477E0
1.167364629E1,1.854085133E0,-1.943962392E-1,2.699561818E0,3.280709617E0
1.168361529E1,1.544710561E0,-1.323626314E0,2.312964385E0,3.080247000E0
1.169358529E1,1.227477623E0,-7.131030321E-2,2.207001143E0,2.526388829E0
1.170355529E1,8.180805798E-1,1.841584078E0,2.399119014E0,3.133123010E0
1.171352529E1,1.398946345E0,-8.287931174E-2,1.667047030E-1,1.411279673E0
1.172349529E1,1.776155197E0,-1.253310622E0,7.003561020E-2,2.174952823E0
1.173346529E1,2.792003959E0,8.079451624E-1,1.512540788E0,3.276559343E0
1.174343429E1,2.760623707E0,5.496353477E-1,-4.181402385E-1,2.845695613E0
1.175340429E1,2.952162996E0,-1.533252795E0,-3.367528439E-1,3.343580860E0
1.176337429E1,2.871309745E0,-5.803118876E-1,3.619455725E-1,2.951641261E0
1.177334429E1,2.421274407E0,1.845618072E-1,-6.316635972E-1,2.509109745E0
1.178331429E1,2.280913310E0,-1.359406303E0,9.087292331E-1,2.806481756E0
1.179328429E1,2.138624387E0,-4.710049152E-2,9.168334740E-1,2.327341046E0
1.180325429E1,2.286367739E0,3.393490076E-2,-1.142904958E0,2.556337372E0
1.181322329E1,2.136239162E0,-8.092944074E-1,-9.446095026E-1,2.471995612E0
1.182319329E1,1.733640238E0,2.436248249E-1,3.792071378E-1,1.791273174E0
1.183316329E1,1.878638030E0,4.254784942E-2,1.971570021E-1,1.889434320E0
1.184313329E1,2.019116509E0,-4.796123090E-1,2.338419068E0,3.126509745E0
1.185310329E1,1.114365283E0,8.474735096E-1,8.733880770E-1,1.650099411E0
1.186307329E1,1.936409544E0,9.774272928E-1,9.723434311E-1,2.377077572E0
1.187304242E1,2.010876905E0,1.089784173E0,-4.212532961E-1,2.325663305E0
1.188301242E1,2.644505020E0,5.826358634E-1,-9.700887448E-1,2.876446336E0
1.189298242E1,1.910788360E0,-1.811935479E0,2.946528912E-1,2.649725017E0
1.190295242E1,1.364987471E0,-1.327205979E0,1.520214089E0,2.436332773E0
1.191292242E1,1.825562415E0,1.388824815E0,4.423646683E-1,2.336064853E0
1.192289242E1,1.946366329E0,5.216537896E-1,6.272314078E-1,2.110422659E0
1.193286242E1,1.769016477E0,-2.563711703E-3,1.955849197E0,2.637190162E0
1.194283142E1,1.412350502E0,2.442659721E-1,1.643640625E-1,1.442711111E0
1.195280142E1,2.352869585E0,-1.291351437E0,1.803536831E0,3.233624733E0
1.196277142E1,2.461854960E0,3.834899309E-1,1.943985781E0,3.160201748E0
1.197274142E1,2.822327619E0,1.150265433E0,-2.026580626E-1,3.054458061E0
1.198271142E1,3.092366656E0,-1.516454914E-1,7.829047537E-1,3.193535305E0
1.199268142E1,2.210322800E0,2.367204326E-1,-9.247254610E-2,2.224885303E0
1.200265042E1,2.670605822E0,-5.499385259E-1,6.840072870E-3,2.726648973E0
1.201262042E1,1.823233030E0,-9.250350711E-1,3.200017405E-1,2.069364559E0
1.202259042E1,1.452312128E0,1.151992115E-1,-3.188545167E-1,1.491358300E0
1.203256042E1,1.539355973E0,-1.153127352E0,1.244732464E0,2.290999434E0
1.204253042E1,1.379191234E0,-5.795909259E-1,1.008636514E0,1.804284268E0
1.205250042E1,2.683973726E0,1.289165163E0,2.047829407E-1,2.984559906E0
1.206247042E1,2.659582651E0,-1.295102718E0,1.554156007E0,3.341567270E0
1.207243942E1,9.439207006E-1,-8.462157735E-1,1.590446166E0,2.033859983E0
1.208240942E1,6.904569121E-1,-3.934269816E-2,-6.029999614E-2,6.942007526E-1
1.209237942E1,1.037978865E0,-1.353100666E0,1.528564498E0,2.290150860E0
1.210234942E1,8.830011919E-2,6.960355943E-1,1.558750164E0,1.709375480E0
1.211231942E1,6.930476671E-1,1.100166489E0,-3.606100684E-1,1.349340948E0
1.212228942E1,1.680716066E0,-1.748279473E-1,6.507547563E-1,1.810760353E0
1.213225842E1,9.571577735E-1,1.229760376E0,-9.538557047E-1,1.827102157E0
1.214222842E1,1.799416005E0,1.350125018E-1,-9.358877957E-1,2.032735178E0
1.215219842E1,1.192448270E0,-7.504307798E-1,4.063768101E-1,1.466363305E0
1.216216842E1,1.095465766E0,1.022321630E0,-1.021279948E0,1.813339321E0
1.217213842E1,2.211255284E0,1.980753073E-1,-3.207227021E-1,2.243155548E0
1.218210842E1,7.576678786E-1,-4.628974584E-1,1.496584906E0,1.740143975E0
1.219207742E1,1.280467138E-2,1.063854987E0,3.481607616E-2,1.064501551E0
1.220204742E1,1.221664760E0,1.449668017E-1,8.744990480E-1,1.509380251E0
1.221201742E1,2.613334098E-1,8.977335441E-1,1.464301844E0,1.737354471E0
1.222198742E1,2.754892266E-1,2.587094718E-1,5.873703539E-1,6.984474479E-1
1.223195742E1,5.632887425E-1,-9.157432607E-1,2.032071161E0,2.298954791E0
1.224192742E1,-2.477403876E-1,7.600704995E-1,1.403507173E-1,8.116531203E-1
1.225189742E1,7.155711418E-1,-1.388781253E0,-1.587431341E-1,1.570335891E0
1.226186642E1,-1.831517512E-1,-1.332612315E0,1.901725030E-1,1.358516001E0
1.227183642E1,1.028938339E0,9.659547633E-1,-2.140729970E-1,1.427448759E0
1.228180642E1,1.248752279E0,-1.635922301E0,4.214123404E-1,2.100764715E0
1.229177642E1,1.935311437E-1,-1.581882918E0,1.753854793E0,2.369770982E0
1.230174642E1,-5.726485267E-1,4.805656976E-1,1.376697689E-1,7.601464925E-1
1.231171642E1,-6.729735911E-2,-1.386206431E0,1.188141941E0,1.826958806E0
1.232168542E1,9.192404804E-1,-7.960773611E-1,2.380958732E0,2.673519536E0
1.233165542E1,4.267327219E-2,1.013711897E0,-1.517872864E-1,1.025900677E0
1.234162542E1,1.473014195E0,2.929288396E-1,-6.839622635E-1,1.650267403E0
1.235159542E1,1.304320415E0,4.171310091E-1,-1.343543392E0,1.918426144E0
1.236156542E1,1.782223145E0,-2.789735824E-1,-2.402311594E0,3.004204819E0
1.237153542E1,1.914940761E0,-1.966389680E0,-1.076521518E0,2.948319024E0
1.238150542E1,6.112237778E-1,-8.317143863E-1,-8.005212450E-1,1.306207331E0
1.239147442E1,1.019790955E0,-5.265332910E-1,-1.279031646E0,1.718468170E0
1.240144442E1,1.167346465E0,-1.907862560E0,2.130143001E0,3.088712761E0
1.241141442E1,9.320264407E-2,-6.030028850E-1,1.821196591E0,1.920691604E0
1.242138442E1,7.131090255E-1,-1.050920069E0,1.175071660E0,1.730245902E0
1.243135442E1,6.274756752E-1,-1.262122376E0,1.794949610E0,2.282218814E0
1.244132442E1,9.350054508E-1,1.059950801E0,1.437739697E0,2.016141446E0
1.245129342E1,2.065057351E0,-5.108937433E-1,1.930969294E0,2.872997859E0
1.246126342E1,7.914902935E-1,-9.292155379E-1,1.800284024E0,2.175068038E0
1.247123342E1,1.005807192E0,1.645962262E0,1.838779753E-1,1.937692181E0
1.248120342E1,1.469555567E0,7.108761200E-1,1.028291345E-2,1.632496297E0
1.249117342E1,1.360269791E0,3.305638584E-1,6.464617306E-1,1.541920600E0
1.250114342E1,7.533339223E-1,1.595245560E0,-9.193518698E-1,1.989353728E0
1.251111342E1,5.260746501E-1,-4.740551153E-1,-1.266503987E0,1.451039330E0
1.252108242E1,7.004764085E-1,2.035228658E-1,-7.688919014E-1,1.059850703E0
1.253105242E1,2.127510146E-1,1.116814681E0,-9.053951508E-1,1.453367953E0
1.254102242E1,8.415597819E-2,-1.915846640E0,-1.094834998E0,2.208215173E0
1.255099242E1,-3.556641280E-1,-6.097292295E-1,-3.589061898E-1,7.918840561E-1
1.256096242E1,-7.052799692E-1,9.967020544E-1,7.947535515E-2,1.223581281E0
1.257093242E1,7.883881263E-2,-1.690970620E0,-1.664661366E-1,1.700972713E0
1.258090142E1,5.518269572E-1,-1.252969437E0,6.450122058E-1,1.513435214E0
1.259087142E1,4.472337178E-1,-9.861223948E-1,1.044290496E0,1.504326433E0
1.260084142E1,1.102017937E0,-2.125447687E0,6.987492871E-1,2.494037283E0
1.261081142E1,9.682104729E-1,-7.370327622E-2,1.171128298E0,1.521316924E0
1.262078142E1,9.244039372E-1,7.610999018E-2,1.380715311E0,1.663337050E0
1.263075142E1,8.169266318E-1,-2.510792939E0,6.907824558E-1,2.729217966E0
1.264072142E1,5.032338177E-1,-9.665251592E-1,1.457891541E0,1.820127167E0
1.265069042E1,4.415798988E-1,1.036742325E0,8.132868862E-1,1.389698894E0
1.266066042E1,7.637913752E-1,-6.383861411E-1,-2.937951046E-1,1.037896764E0
1.267063042E1,6.397062231E-1,2.879861882E-1,-1.058316797E-1,7.094789926E-1
1.268060042E1,5.747648533E-1,1.133269623E0,-8.473165119E-1,1.527285156E0
1.269057042E1,7.600468913E-1,-3.762443537E-1,-1.652665218E0,1.857561147E0
1.270054042E1,1.203618206E0,1.272580413E0,-1.607961500E0,2.377750592E0
1.271050942E1,1.321074881E0,6.257394907E-1,-4.053015071E-1,1.516923882E0
1.272047942E1,1.380028410E0,-1.075252380E0,-1.088608882E0,2.060513380E0
1.273044942E1,1.619456542E0,2.231232881E0,-1.546050012E0,3.160903399E0
1.274041942E1,1.897743222E0,8.269649854E-1,3.904688752E-1,2.106600666E0
1.275038942E1,2.176934175E0,-1.139836339E0,-1.322911491E0,2.790764070E0
1.276035942E1,2.033539982E0,1.732041755E-1,-5.644171089E-1,2.117510618E0
1.277032942E1,1.157230051E0,-1.294465372E0,2.451171513E0,3.003841503E0
1.278029842E1,5.135016015E-1,-1.017071415E0,1.585906972E0,1.952746548E0
1.279026842E1,1.917835571E-2,1.057242956E0,1.913458638E0,2.186196339E0
1.280023842E1,2.791316765E-1,-5.521046269E-1,2.201450381E0,2.286726435E0
1.281020842E1,6.278113054E-1,-1.135575765E0,4.035181063E-1,1.358862103E0
1.282017842E1,3.555709745E-1,1.095367679E0,2.455538213E-2,1.151895845E0
1.283014842E1,3.529953491E-1,1.403954485E-1,-9.299335760E-1,1.004536238E0
1.284011742E1,4.670267255E-1,-1.568866724E0,-1.512104001E0,2.228433367E0
1.285008742E1,1.953842359E-1,-1.493188843E-1,1.548921579E-1,2.906246883E-1
1.286005742E1,-2.415315582E-1,-1.613316965E-1,3.552160120E-1,4.588505477E-1
1.287002742E1,-3.499297271E-1,-1.347022485E0,4.445053339E-3,1.391739971E0
1.287999704E1,-2.567559902E-1,1.036582696E0,-4.528382009E-1,1.159952482E0
1.288996704E1,-7.124925828E-1,7.092956176E-1,-2.450872135E-1,1.034801283E0
1.289993704E1,-3.978184598E-1,-2.103860351E0,-5.312540406E-1,2.206064088E0
1.290990604E1,-1.528256971E-1,4.037429318E-1,-2.373133403E0,2.412079227E0
1.291987604E1,-1.636439414E-1,7.042860156E-1,-2.492660431E0,2.595410210E0
1.292984604E1,-3.845414430E-1,-1.676823282E0,-1.236241722E-1,1.724787342E0
1.293981604E1,-8.610796150E-2,-2.342163625E-1,-3.228119123E-1,4.080188920E-1
1.294978604E1,5.779056487E-1,-7.213508222E-1,2.813742152E0,2.961666228E0
1.295975604E1,-4.725186132E-1,-1.490679511E0,2.690348361E0,3.111811939E0
1.296972504E1,-1.215412113E-1,1.521150228E0,6.108404928E-1,1.643714206E0
1.297969504E1,-7.122366209E-1,9.026609927E-1,2.225673641E0,2.505134932E0
1.298966504E1,-1.506006232E0,-2.228771203E0,1.467040679E0,3.063932800E0
1.299963504E1,-1.242455266E0,9.268240267E-1,-1.851906168E0,2.415006070E0
1.300960504E1,-1.657105594E0,5.153633550E-1,-9.793577510E-1,1.992671559E0
1.301957504E1,-1.688920440E0,-1.999011881E0,7.343085444E-1,2.718034178E0
1.302954504E1,-1.015304094E0,-8.203897914E-1,-5.561772126E-1,1.418878044E0
1.303951404E1,-1.225989945E0,6.933303800E-1,-9.459222025E-1,1.696622284E0
1.304948404E1,-1.264092010E0,-1.287955667E0,1.434281654E0,2.305194628E0
1.305945404E1,-3.789297605E-1,9.338646591E-2,-3.419913644E-1,5.189093261E-1
1.306942404E1,-4.942974084E-1,1.502161396E0,2.240331441E-1,1.597188040E0
1.307939404E1,-1.000342385E0,-1.602736136E0,1.367366118E0,2.332195984E0
1.308936404E1,-1.381331023E0,-1.023894238E0,-5.117600083E-1,1.793971324E0
1.309933304E1,-9.340696040E-1,1.321121659E0,-1.028157443E0,1.917017525E0
1.310930304E1,-1.216821803E0,-8.291614920E-2,5.702690023E-1,1.346379264E0
1.311927304E1,-8.526181823E-1,-1.475251340E0,-5.621571600E-1,1.794253313E0
1.312924304E1,-6.001054434E-1,8.393268764E-2,-1.772042558E0,1.872780304E0
1.313921304E1,-7.248603210E-1,-7.108164784E-1,8.402127296E-1,1.317816369E0
1.314918304E1,-9.743743884E-1,-7.827647129E-1,-3.883720636E-3,1.249856443E0
1.315915304E1,-1.583688539E0,6.692506689E-1,-5.798403096E-1,1.814436725E0
1.316912204E1,-1.680305299E0,-1.600901864E0,2.524134239E0,3.428930786E0
1.317909204E1,-1.759739139E0,-1.698124981E0,1.591527316E0,2.917750758E0
1.318906204E1,-1.471878227E0,1.240056153E0,-6.423692644E-2,1.925692385E0
1.319903204E1,-1.085992180E0,-1.571743262E-1,2.051201497E0,2.326265326E0
1.320900204E1,-9.083544266E-1,-1.412243498E0,1.433556014E-1,1.685256743E0
1.321897204E1,-8.491697869E-1,1.399486628E0,-8.505330652E-1,1.844738096E0
1.322894104E1,-9.456573236E-1,3.811063135E-1,6.253211224E-1,1.196050292E0
1.323891104E1,-1.300038938E0,-6.003201824E-1,-7.853757870E-1,1.633187279E0
1.324888104E1,-1.870918828E0,1.784455319E0,-7.073569733E-1,2.680479796E0
1.325885104E1,-1.548535224E0,-5.723245910E-1,6.659218490E-2,1.652256426E0
1.326882104E1,-1.651157806E0,-1.147248562E0,-1.259666253E0,2.372606253E0
1.327879104E1,-1.329439031E0,7.594869474E-1,-1.039620910E0,1.850686412E0
1.328876104E1,-9.301415176E-1,-1.236592847E0,1.286965148E0,2.012611340E0
1.329873004E1,-1.029077503E0,-1.728943608E0,1.334224100E0,2.414208039E0
1.330870004E1,-8.824631750E-1,1.588915657E0,1.249065835E0,2.205347973E0
1.331867004E1,-8.294932484E-1,6.480837482E-1,7.767651772E-1,1.308218535E0
1.332864004E1,-9.516889458E-1,-2.101616190E0,7.730808467E-1,2.433137163E0
1.333861004E1,-1.127796264E0,1.763663790E0,2.557332391E-1,2.108988826E0
1.334858004E1,-1.348109629E0,1.596288996E0,-1.120320672E-1,2.092388423E0
1.335855004E1,-1.428667450E0,-1.741497288E0,-7.471501994E-1,2.373212360E0
1.336851904E1,-1.427076130E0,3.937865853E-2,-6.213666505E-1,1.556982169E0
1.337848904E1,-1.057566526E0,-2.863021901E-1,-1.868147979E0,2.165731463E0
1.338845904E1,-8.405360075E-1,-1.043064920E0,-1.532230117E0,2.035243066E0
1.339842904E1,-8.787970439E-1,4.566552633E-1,-5.586511695E-1,1.137061741E0
1.340839904E1,-9.374917600E-1,-5.672451147E-1,4.625808316E-1,1.189385911E0
1.341836904E1,-1.291952970E0,-1.189088606E0,7.863025707E-1,1.923888230E0
1.342833804E1,-1.420762014E0,7.955271381E-1,9.931104022E-1,1.907274600E0
1.343830804E1,-1.616467591E0,-3.460692126E-1,1.203930008E-1,1.657475746E0
1.344827804E1,-1.879328878E0,-1.325593024E-2,3.832171583E-1,1.918048003E0
1.345824804E1,-1.934007361E0,6.528790498E-1,2.779134822E-1,2.060065880E0
1.346821804E1,-2.436473367E0,-4.545105046E-1,-8.143230128E-1,2.608851133E0
1.347818804E1,-2.287127000E0,2.050992751E-1,-1.718242326E0,2.867990990E0
1.348815704E1,-2.136869930E0,4.640364960E-1,-2.266749161E-1,2.198391341E0
1.349812704E1,-1.518889987E0,-2.378098274E0,1.150828519E0,3.047422595E0
1.350809704E1,-8.846990041E-1,-1.200887117E0,1.899858014E0,2.415425981E0
1.351806704E1,-1.128005448E0,3.468235034E-1,2.524411397E0,2.786635199E0
1.352803704E1,-5.376324758E-2,-2.061313379E0,2.061196727E0,2.915550597E0
1.353800704E1,-6.038971435E-1,-3.959968328E-1,1.893100972E0,2.026163009E0
1.354797704E1,-1.777557944E0,1.548096537E0,8.156012142E-1,2.494297591E0
1.355794604E1,-2.030490805E0,-7.176644450E-1,5.806361157E-1,2.230487271E0
1.356791604E1,-2.153105894E0,-1.075469019E0,2.623841545E0,3.560483542E0
1.357788604E1,-2.500377879E0,1.789575726E0,4.818982780E-1,3.112345862E0
1.358785604E1,-2.392764845E0,-1.260991817E0,1.162008981E0,2.943754208E0
1.359782604E1,-1.953772120E0,-9.284954533E-1,1.957719721E0,2.917532486E0
1.360779604E1,-1.247321026E0,-4.552545628E-1,2.117639315E-1,1.344585595E0
1.361776604E1,-2.001153278E-1,-1.210183313E0,1.687053863E0,2.085842883E0
1.362773504E1,-4.174252702E-1,1.108896967E0,4.239020848E-1,1.258407452E0
1.363770504E1,-1.270082190E0,1.004009612E0,-1.517783986E0,2.219191813E0
1.364767504E1,-1.294794278E0,-1.072128213E0,-1.812910502E0,2.472366400E0
1.365764504E1,-1.952167205E0,3.857001784E-1,-2.563892967E0,3.245499741E0
1.366761504E1,-1.940603898E0,-5.429598740E-1,-1.236732888E-1,2.018921493E0
1.367758504E1,-6.996660575E-1,-1.038277804E0,2.439579408E0,2.742097933E0
1.368755404E1,-3.032732950E-1,1.392689824E-2,1.744939544E0,1.771152919E0
1.369752404E1,-8.296954159E-1,-6.419277996E-2,2.407129115E0,2.546916915E0
1.370749404E1,-1.092583820E0,1.560673021E0,9.835402644E-1,2.144012857E0
1.371746404E1,-2.322156500E0,7.065506423E-1,-2.486031443E-1,2.439964783E0
1.372743404E1,-9.336217804E-1,-1.267465269E0,5.195777357E-2,1.575061093E0
1.373740404E1,-3.770571897E-1,4.304600295E-1,-9.522711092E-1,1.110985250E0
1.374737404E1,-4.564518533E-1,9.292275247E-1,-2.908461199E0,3.087225070E0
1.375734304E1,-2.441983636E-1,-1.764642321E0,-1.677422914E0,2.446904779E0
1.376731304E1,-8.672049388E-2,-4.913318834E-1,-1.776936092E0,1.845651468E0
1.377728304E1,-1.123443597E0,7.301593602E-2,-1.414595833E0,1.807909901E0
1.378725304E1,-6.749768472E-1,-2.701252541E0,2.323077729E0,3.626161768E0
1.379722304E1,-2.118872347E-1,1.436017692E-1,2.097900285E0,2.113457658E0
1.380719304E1,-9.916192891E-1,1.149256203E0,-9.693595970E-1,1.801043215E0
1.381716204E1,-4.046469113E-1,-1.323091293E0,1.229698688E-1,1.389039698E0
1.382713204E1,-3.661910896E-1,-6.983867598E-1,1.030233790E0,1.297390320E0
1.383710204E1,-5.271248831E-1,-1.278921426E0,1.309767535E0,1.904991248E0
1.384707204E1,-8.293994006E-1,-3.104348186E-1,1.469623979E0,1.715828600E0
1.385704204E1,-8.569650024E-1,4.936935738E-1,8.312325758E-1,1.291924903E0
1.386701204E1,-1.354039582E0,-5.398810226E-1,1.289414547E0,1.946146085E0
1.387698192E1,-1.079730470E0,1.051864102E0,9.969666409E-1,1.807257165E0
1.388695092E1,-1.300643540E0,-6.348205090E-2,-4.977085644E-1,1.394065065E0
1.389692092E1,-1.365617800E0,-2.191284704E0,7.158120471E-1,2.679370732E0
1.390689092E1,-9.214537246E-1,-3.920745206E-1,-8.957723880E-1,1.343580131E0
1.391686092E1,-1.058434838E0,-5.637154430E-1,-7.249915910E-1,1.401310891E0
1.392683092E1,-1.892497393E-1,-1.051737802E0,2.279145259E-1,1.092663214E0
1.393680092E1,-2.943054204E-1,5.400678411E-1,-3.942374057E-1,7.305560112E-1
1.394676992E1,-4.897352280E-1,-5.821917674E-1,4.911193371E-2,7.623646304E-1
1.395673992E1,-3.082231823E-1,-1.451292666E0,2.281760718E0,2.721706066E0
1.396670992E1,-1.226167774E0,1.908187665E0,7.446908605E-1,2.387306443E0
1.397667992E1,-1.279062344E0,7.421110690E-1,3.730780864E-1,1.525095596E0
1.398664992E1,-6.254957349E-1,-6.258269066E-1,1.110802574E0,1.420136117E0
1.399661992E1,-6.559481071E-1,3.343601632E-1,-5.975322300E-1,9.482137965E-1
1.400658992E1,-5.296829668E-1,-1.879982159E-1,-1.010173162E0,1.156009166E0
1.401655892E1,-4.482159039E-1,4.660724965E-1,-3.513743913E-1,7.359246098E-1
1.402652892E1,-4.861592171E-1,2.222988600E-1,-4.559682155E-1,7.026197984E-1
1.403649892E1,-1.097445633E-1,-1.434310597E0,-9.402211672E-1,1.718518723E0
1.404646892E1,-2.130446179E-1,7.018456802E-1,9.119259059E-2,7.391153202E-1
1.405643892E1,-2.780168317E-2,1.129675924E0,6.730788410E-2,1.132020750E0
1.406640892E1,-3.219287635E-1,-1.105971605E0,1.380500718E0,1.797941476E0
1.407637892E1,5.446929887E-2,5.603334135E-1,1.187023369E0,1.313759840E0
1.408634792E1,-1.821017374E-1,1.654530188E0,-5.317428678E-1,1.747392818E0
1.409631792E1,-3.636449561E-1,-1.015918344E0,2.446872640E-1,1.106435535E0
1.410628792E1,-3.651461922E-1,8.796849436E-1,-1.596114457E-1,9.657396933E-1
1.411625792E1,-5.668167331E-1,7.772826558E-1,-1.924920350E0,2.151921906E0
1.412622792E1,2.127440710E-1,-1.770310905E0,-8.726419723E-1,1.985135953E0
1.413619792E1,4.682163415E-1,6.956955788E-1,-7.485535312E-1,1.124077964E0
1.414616692E1,-4.101406628E-1,-2.985506451E-1,-4.723421735E-1,6.931485986E-1
1.415613692E1,3.435440559E-1,-1.976740421E0,1.468429978E0,2.486324961E0
1.416610692E1,3.513336435E-1,6.528369498E-1,1.126194200E0,1.348311829E0
1.417607692E1,-2.046285377E-1,2.023469907E-1,-4.235366338E-1,5.120550979E-1
1.418604692E1,-2.240594566E-2,-5.415565422E-1,1.060511257E0,1.190995231E0
1.419601692E1,-2.194438838E-1,-2.809467253E-1,9.598865229E-1,1.023947663E0
1.420598692E1,1.920299441E-1,-1.768916051E0,3.461803097E-1,1.812672144E0
1.421595592E1,2.742709592E-4,-6.847674251E-1,6.985235846E-1,9.781828561E-1
1.422592592E1,-1.085498310E-1,6.561210385E-1,-3.502072871E-2,6.659612109E-1
1.423589592E1,-5.717765972E-1,-1.478776918E0,1.702399296E-1,1.594581853E0
1.424586592E1,2.504333228E-1,-2.307559803E-1,-4.520669532E-1,5.659767679E-1
1.425583592E1,-3.910005333E-1,2.930428603E-1,-1.420017956E0,1.501734507E0
1.426580592E1,-5.884857103E-1,-2.261530814E0,-2.610664845E-1,2.351381033E0
1.427577492E1,5.439424986E-1,-9.052019003E-1,7.583423549E-1,1.300133474E0
1.428574492E1,-5.557073888E-1,3.396206108E-1,-6.947533000E-1,9.522788505E-1
1.429571492E1,5.681406889E-2,-1.597823013E0,-6.729081023E-1,1.734667557E0
1.430568492E1,8.178603590E-1,-3.776883236E-1,6.946907347E-1,1.137602415E0
1.431565492E1,-7.676608432E-3,-6.956195650E-1,-3.104573303E-1,7.617934519E-1
1.432562492E1,-2.077525588E-1,-2.147286453E0,1.160134948E0,2.449472052E0
1.433559492E1,4.412884517E-2,1.225902091E0,1.960932766E0,2.313015479E0
1.434556392E1,-4.260860199E-1,9.120285246E-1,1.041166914E0,1.448231289E0
1.435553392E1,-4.983713463E-2,-1.164119825E0,1.475177080E0,1.879842048E0
1.436550392E1,1.267895624E-2,8.118747836E-1,-4.126461947E-1,9.108118918E-1
1.437547392E1,-3.510917150E-1,3.170649764E-1,-1.132558309E0,1.227389065E0
1.438544392E1,1.242811983E-1,2.741607392E-1,1.775407630E-1,3.494719584E-1
1.439541392E1,3.805680042E-1,3.509267870E-1,-5.687183207E-1,7.690397545E-1
1.440538292E1,5.846076907E-1,-1.382256637E0,-7.685469157E-1,1.686138762E0
1.441535292E1,8.459712868E-1,4.310482594E-1,3.128470874E-1,9.996716062E-1
1.442532292E1,1.015004351E0,1.514323896E0,-8.440175128E-1,2.008924154E0
1.443529292E1,1.021654755E0,-1.102398956E0,-5.305441886E-1,1.593906845E0
1.444526292E1,1.474850805E0,-2.203034976E-1,1.285083514E-1,1.496740768E0
1.445523292E1,9.691706588E-1,9.125495115E-1,-1.092841682E0,1.722306976E0
1.446520292E1,8.817613629E-1,-1.241914691E0,4.392136037E-1,1.585169956E0
1.447517192E1,7.960225435E-1,-1.546819505E-1,1.099434417E0,1.366138512E0
1.448514192E1,2.494743794E-1,6.152653733E-1,1.119274020E-1,6.732879688E-1
1.449511192E1,4.604172065E-2,-1.396855088E0,7.172732663E-1,1.570924860E0
1.450508192E1,3.777212141E-1,3.427196351E-1,6.221706426E-1,8.045038051E-1
1.451505192E1,2.690089219E-1,1.093096328E0,-1.793446290E-1,1.139907838E0
1.452502192E1,7.071803874E-1,-1.654375529E0,1.184609638E0,2.154150061E0
1.453499192E1,6.657950375E-1,-3.683532438E-1,5.275626934E-1,9.258993140E-1
1.454496092E1,-1.846063740E-1,5.803648049E-1,-8.711287129E-1,1.062905478E0
1.455493092E1,-5.070761328E-1,-6.193306500E-1,-5.518426716E-1,9.722278502E-1
1.456490092E1,-5.306685150E-1,6.978070083E-1,-1.247977084E0,1.525119830E0
1.457487092E1,-3.650574241E-1,-2.780696028E-1,-1.477580286E0,1.547201709E0
1.458484092E1,4.996006868E-1,-1.484493449E0,1.269624061E0,2.016250704E0
1.459481092E1,8.264956002E-1,1.062080357E0,8.430918986E-1,1.588053403E0
1.460477992E1,6.960700198E-1,1.326604008E0,-1.441166165E0,2.078786084E0
1.461474992E1,1.434951854E-1,7.297325134E-3,-2.449936581E-1,2.840176257E-1
1.462471992E1,1.326356634E-1,1.442569205E0,4.558255434E-2,1.449370863E0
1.463468992E1,4.013631150E-1,-2.745416853E-1,-9.769943064E-1,1.091321842E0
1.464465992E1,4.402923419E-1,-2.851105276E-1,6.883810043E-2,5.290406822E-1
1.465462992E1,2.432695334E-1,8.552698946E-1,-4.028772515E-1,9.762052747E-1
1.466459992E1,2.356045281E-1,-1.055009319E0,-5.085346842E-1,1.194638725E0
1.467456892E1,4.583206965E-1,-1.406840086E-3,1.069244074E0,1.163332596E0
1.468453892E1,2.837680617E-1,1.022138320E0,2.000414336E-1,1.079494156E0
1.469450892E1,4.038486933E-1,-9.186618984E-1,7.750963819E-1,1.267993632E0
1.470447892E1,2.724325032E-1,7.236575487E-1,1.240549951E0,1.461801593E0
1.471444892E1,3.265657517E-1,-1.128296274E-1,-1.938644350E-1,3.961806837E-1
1.472441892E1,4.105279312E-1,-8.678817540E-1,1.446646176E0,1.736242230E0
1.473438792E1,4.912563812E-1,1.557688017E0,8.046230668E-1,1.820753435E0
1.474435792E1,1.746236968E-1,-6.783433816E-1,6.023848343E-1,9.238564106E-1
1.475432792E1,2.990197928E-1,-8.106579781E-1,1.163017040E0,1.448857422E0
1.476429792E1,-5.520874872E-1,1.225447177E0,-3.609813666E-1,1.391700013E0
1.477426792E1,-2.325433828E-1,-1.089132501E0,-1.598751551E-1,1.125098260E0
1.478423792E1,-4.435941550E-1,7.622488797E-2,-5.891490769E-1,7.414058556E-1
1.479420792E1,-2.428109290E-1,8.507768941E-1,-1.713998417E0,1.928877665E0
1.480417692E1,3.738638060E-1,-2.493641009E0,-3.110870755E-1,2.540628819E0
1.481414692E1,1.394728858E-1,-1.859095904E-1,3.939210713E-1,4.573717001E-1
1.482411692E1,7.164338985E-1,6.251114997E-1,2.185987419E-1,9.756163836E-1
1.483408692E1,7.974684868E-1,-1.626554769E0,1.365476882E-1,1.816667739E0
1.484405692E1,4.513516194E-1,8.250362813E-2,-7.284578204E-1,8.609157503E-1
1.485402692E1,2.327324123E-1,-1.106161347E0,-1.424779928E0,1.818723493E0
1.486399692E1,3.031729604E-1,-2.511533197E0,-1.046463906E0,2.737663155E0
1.487396646E1,3.630533275E-1,-2.958401683E-1,1.921490373E0,1.977739714E0
1.488393646E1,5.653875274E-1,-6.024766356E-1,1.650397668E0,1.845658044E0
1.489390646E1,1.580122322E-1,-2.337038833E0,3.754062138E0,4.424895581E0
1.490387646E1,3.762167986E-1,1.011653970E0,1.994644303E0,2.267948132E0
1.491384646E1,2.586576326E-1,9.863434196E-1,1.524811170E0,1.834346264E0
1.492381646E1,4.045291630E-1,-8.159964859E-2,7.131620890E-1,8.239554063E-1
1.493378546E1,2.454127390E-1,1.191193896E0,-2.355523928E0,2.650974026E0
1.494375546E1,-3.069065356E-1,-2.239621004E-1,-2.945201009E0,2.969605972E0
1.495372546E1,-3.438369649E-1,2.917936027E-1,-2.902249702E0,2.937076896E0
1.496369546E1,4.301040803E-1,8.295763519E-1,-2.290042130E0,2.473353877E0
1.497366546E1,1.472279931E-1,-2.414624953E0,-8.798767322E-1,2.574154776E0
1.498363546E1,-3.629363101E-1,-1.072582541E0,1.150553700E0,1.614289283E0
1.499360546E1,-5.536708767E-1,8.584747535E-1,9.176684564E-1,1.373188166E0
1.500357446E1,-4.658239898E-1,-6.831869227E-1,2.211393571E0,2.360931572E0
1.501354446E1,-8.151803608E-1,1.218541908E0,1.279125786E0,1.945642871E0
1.502351446E1,-5.882178348E-1,3.663572967E-1,-6.652330470E-1,9.606002794E-1
1.503348446E1,-8.295089628E-1,-1.161842920E0,-5.318674135E-1,1.523432649E0
1.504345446E1,-1.074323477E0,1.103908122E0,-9.723463547E-1,1.821604103E0
1.505342446E1,-7.477330937E-1,-1.285866457E0,-1.013872696E0,1.800137541E0
1.506339346E1,-9.785995133E-1,-2.568748494E0,-4.116229320E-1,2.779489031E0
1.507336346E1,-1.022660111E0,-6.428408423E-1,-3.089809084E-1,1.246814843E0
1.508333346E1,-5.857772069E-1,-1.340150545E0,-2.484745055E-1,1.483535641E0
1.509330346E1,-9.775109079E-1,-1.021384906E0,1.015223987E0,1.740527060E0
1.510327346E1,-8.391457589E-1,-4.275104016E-2,1.417809463E0,1.648082804E0
1.511324346E1,-3.841355001E-1,-6.563891333E-1,5.317241567E-1,9.279748680E-1
1.512321346E1,-7.986740365E-1,-4.328223047E-1,1.808163732E0,2.023529453E0
1.513318246E1,-8.885578740E-1,1.467694398E0,1.666337178E0,2.391723548E0
1.514315246E1,-8.134147941E-1,-3.026296628E-1,1.153329374E0,1.443397722E0
1.515312246E1,-8.252065815E-1,-4.300662196E-1,1.226203807E0,1.539317586E0
1.516309246E1,-8.450242572E-1,3.088658352E0,-1.016533763E0,3.359645413E0
1.517306246E1,-7.680729257E-1,1.277746136E0,-1.692088900E0,2.255157656E0
1.518303246E1,-1.165134537E0,4.917002580E-1,-1.091616105E0,1.670608678E0
1.519300246E1,-1.163796255E0,8.704726553E-1,-1.708696747E0,2.243164938E0
1.520297146E1,-7.805613358E-1,-2.090546241E0,-6.672947752E-1,2.329150468E0
1.521294146E1,-5.882569746E-1,-5.585734016E-1,1.863378990E-1,8.323294574E-1
1.522291146E1,-6.120494778E-1,-9.535259217E-2,-6.260093397E-1,8.806726824E-1
1.523288146E1,-3.457852206E-1,-8.737804252E-1,-4.328489095E-1,1.034609989E0
1.524285146E1,-3.074903800E-1,3.035187319E-1,4.169959384E-1,6.004661248E-1
1.525282146E1,-4.886066423E-1,-3.635886401E-1,-3.468457228E-1,7.008816630E-1
1.526279046E1,-5.097724666E-1,-7.557280648E-1,1.389413044E0,1.661764569E0
1.527276046E1,-6.093832936E-1,1.551500494E0,1.400701679E0,2.177261347E0
1.528273046E1,-5.045267102E-1,1.148957410E-1,5.188971198E-1,7.328045125E-1
1.529270046E1,-1.578148156E-1,2.229476085E-1,4.945446360E-1,5.649650867E-1
1.530267046E1,-3.753142444E-1,1.378631364E0,-5.480057287E-1,1.530292618E0
1.531264046E1,-3.386734349E-1,-5.436021906E-1,-1.529219971E0,1.657925437E0
1.532261046E1,6.091848537E-3,-3.273347336E-1,-1.058348957E0,1.107830155E0
1.533257946E1,-1.823196193E-1,5.078689787E-1,-1.180759832E0,1.298216131E0
1.534254946E1,-3.767299649E-1,-1.038209099E0,-7.623383421E-1,1.341999757E0
1.535251946E1,-1.145894200E-1,5.382347390E-1,3.672337943E-1,6.615799492E-1
1.536248946E1,-5.266534513E-1,7.663410535E-1,1.760853910E-1,9.463870947E-1
1.537245946E1,-7.179120746E-1,-1.371822281E0,1.179445378E0,1.946377537E0
1.538242946E1,-3.910700786E-1,1.270744095E0,1.367587727E0,1.907360101E0
1.539239846E1,-9.242978834E-1,1.142048925E0,-5.038358617E-1,1.553207295E0
1.540236846E1,-4.275007537E-1,-5.691220710E-1,6.811222708E-1,9.851824064E-1
1.541233846E1,-4.813873775E-1,1.693310676E0,5.139059365E-1,1.833884992E0
1.542230846E1,-1.097034574E0,-5.323670581E-1,-4.969139278E-2,1.220396975E0
1.543227846E1,-5.479308113E-1,-9.825450683E-1,1.442447290E0,1.829283240E0
1.544224846E1,-1.127022897E0,5.191175598E-1,2.915591294E-1,1.274625583E0
1.545221846E1,-1.414690119E0,-1.884597658E0,1.172639219E0,2.632135863E0
1.546218746E1,-7.206554420E-1,-7.101279688E-1,1.809716753E0,2.073330828E0
1.547215746E1,-1.150562617E0,-3.158455396E-1,3.312324876E-1,1.238251873E0
1.548212746E1,-7.176679534E-1,-1.855592545E0,2.000909595E0,2.821685700E0
1.549209746E1,-3.567725774E-1,-7.918562561E-2,1.596205673E0,1.637507126E0
1.550206746E1,-8.536483886E-1,-5.602535990E-1,-5.830381519E-1,1.175811700E0
1.551203746E1,-6.278433920E-1,-2.435545998E0,1.518200308E-1,2.519746209E0
1.552200746E1,-5.405035683E-1,-1.290901494E-1,-2.335436404E-1,6.027860367E-1
1.553197646E1,-1.344551890E-1,-1.307847894E0,-1.313783988E0,1.858648078E0
1.554194646E1,-6.146887647E-1,-1.763999420E0,-1.089798206E-1,1.871206251E0
1.555191646E1,-7.234440523E-1,5.574217924E-1,-1.062271854E0,1.400896799E0
1.556188646E1,-4.166435706E-1,-5.834299153E-1,-1.244196274E0,1.435968906E0
1.557185646E1,9.783616047E-3,-1.153044614E-1,-9.577306545E-1,9.646962447E-1
1.558182646E1,-1.399887564E-1,-2.544006586E-2,-4.961964744E-1,5.161927839E-1
1.559179546E1,-3.144434138E-1,-2.316185323E0,2.135335329E0,3.165951054E0
1.560176546E1,1.856280104E-1,-4.735469922E-1,3.136368123E0,3.177343154E0
1.561173546E1,-1.697945179E-1,2.732329615E0,3.432216185E-1,2.759031783E0
1.562170546E1,-1.209486873E-1,1.298235072E0,1.159539701E0,1.744871114E0
1.563167546E1,9.698844577E-1,1.020070452E0,-2.242342883E-1,1.425307196E0
1.564164546E1,8.422846173E-1,9.627098510E-1,-2.736613870E0,3.020812656E0
1.565161546E1,1.219726846E0,6.023099899E-1,-3.210245354E0,3.486572262E0
1.566158446E1,9.260159415E-1,1.412831728E0,-1.495174558E0,2.255913556E0
1.567155446E1,7.635483503E-1,-1.233884417E0,2.421098113E-2,1.451228104E0
1.568152446E1,4.503009844E-1,-1.720011109E0,6.800633401E-1,1.903600625E0
1.569149446E1,5.864264672E-1,6.914712578E-1,4.528703606E-1,1.013469321E0
1.570146446E1,7.054933926E-1,-2.529368082E-1,-6.287815046E-1,9.782965483E-1
1.571143446E1,5.971110478E-1,-9.020888427E-1,-1.140039822E0,1.571622308E0
1.572140446E1,1.112411362E0,-1.727163131E0,1.277090955E0,2.418990043E0
1.573137346E1,1.660426666E0,-2.597644265E0,1.797141146E0,3.568541542E0
1.574134346E1,1.428246450E0,4.658964953E-1,1.897079417E0,2.419887969E0
1.575131346E1,1.510852405E0,6.565817991E-1,1.845064341E0,2.473466610E0
1.576128346E1,1.037618531E0,-1.237174353E0,9.046613252E-1,1.850855129E0
1.577125346E1,1.327926941E0,9.383518124E-1,-4.878191686E-1,1.697604673E0
1.578122346E1,1.163738148E0,5.860906908E-1,-4.294569397E-1,1.371940975E0
1.579119246E1,1.028307278E0,-1.352689899E0,-9.080492020E-2,1.701596707E0
1.580116246E1,1.282809678E0,4.269768432E-1,-6.337340963E-1,1.493160675E0
1.581113246E1,9.188507634E-1,-1.133061755E-1,-1.661780443E0,1.902272129E0
1.582110246E1,1.015363078E0,-3.988385797E-1,-9.617412597E-1,1.454297302E0
1.583107246E1,1.249577321E0,1.136342627E0,1.538928688E-2,1.689069234E0
1.584104246E1,8.687512350E-1,-1.700709450E-1,3.815138644E-1,9.639531438E-1
1.585101146E1,1.273805113E0,-7.863250825E-1,1.274233421E0,1.965847759E0
1.586098146E1,1.236620622E0,2.521388971E0,-6.693641049E-1,2.886984796E0
1.587095146E1,1.383863452E0,2.132707298E0,-1.421237100E0,2.912633407E0
1.588092167E1,1.770757632E0,4.530419764E-1,-9.406035751E-1,2.055617841E0
1.589089167E1,1.503953860E0,6.315928459E-1,-9.964257735E-1,1.911452604E0
1.590086167E1,1.237229024E0,-2.313713998E-1,-1.025915036E0,1.623813427E0
1.591083167E1,1.578168913E0,2.122615296E-1,7.497925562E-1,1.760074133E0
1.592080067E1,1.199020394E0,-4.532086220E-1,7.333139330E-1,1.476752276E0
1.593077067E1,1.299316807E0,-1.945016353E0,2.635145382E0,3.523535719E0
1.594074067E1,1.824521172E0,7.778416497E-1,1.523812466E0,2.501183634E0
1.595071067E1,2.448485156E0,1.437107028E0,-9.619137526E-2,2.840705713E0
1.596068067E1,2.100193124E0,-1.812271401E-1,-1.409471333E-1,2.112704553E0
1.597065067E1,1.296729706E0,4.040969807E-1,-2.086946111E0,2.490009311E0
1.598061967E1,9.914060850E-1,-1.625446137E0,-2.122162721E0,2.851058713E0
1.599058967E1,1.367485693E0,-2.285165844E0,5.878901714E-1,2.727199096E0
1.600055967E1,1.328489735E0,1.099241459E0,9.402872407E-1,1.964015493E0
1.601052967E1,1.446627611E0,-2.732292777E-1,1.103394737E0,1.839800432E0
1.602049967E1,1.049128629E0,-1.262191665E0,2.010677369E0,2.595500368E0
1.603046967E1,1.401096366E0,1.456234440E-1,1.757174258E0,2.252096487E0
1.604043967E1,1.748878813E0,-9.211057422E-1,3.198857902E0,3.760279879E0
1.605040867E1,1.770588647E0,1.490112038E0,1.098040441E0,2.561466544E0
1.606037867E1,1.934610355E0,5.670302296E-1,-2.853230739E-1,2.036086876E0
1.607034867E1,1.392280811E0,-1.073598203E0,-9.399165273E-2,1.760651411E0
1.608031867E1,1.754772368E0,6.441348311E-1,-1.182692336E0,2.211989355E0
1.609028867E1,2.298713843E0,-6.343989247E-1,-1.070766689E0,2.614017718E0
1.610025867E1,2.151832517E0,-8.844401917E-1,4.953819573E-2,2.327030654E0
1.611022867E1,2.178615103E0,-5.442462614E-1,-1.586349607E-3,2.245566805E0
1.612019767E1,1.657451310E0,-1.332202425E0,3.549131262E-1,2.155892269E0
1.613016767E1,1.836676071E0,-3.305869550E-2,7.546714729E-1,1.985950881E0
1.614013767E1,1.976098836E0,-5.772570097E-1,6.437743503E-1,2.156997375E0
1.615010767E1,1.666238945E0,-1.801930016E0,1.846676418E0,3.071403229E0
1.616007767E1,2.165718338E0,1.786148965E-1,1.042215319E0,2.410073022E0
1.617004767E1,2.293956110E0,-1.152763948E-1,9.359667331E-1,2.480233256E0
1.618001667E1,2.484292773E0,1.908721223E-1,1.193381047E0,2.762661954E0
1.618998667E1,3.343455452E0,1.676565127E0,5.911535025E-2,3.740729823E0
1.619995667E1,2.786995234E0,6.463336766E-2,-1.210684712E0,3.039288959E0
1.620992667E1,2.472981042E0,-1.280855978E-1,-8.507494122E-1,2.618361266E0
1.621989667E1,1.424675117E0,-8.022771639E-1,6.418377525E-1,1.756503213E0
1.622986667E1,2.566626540E-1,-1.932353330E0,9.526190186E-1,2.169642391E0
1.623983667E1,5.941923004E-1,-2.879908660E-1,1.141948353E0,1.319109271E0
1.624980567E1,9.440630803E-1,2.656024620E-1,1.204427606E0,1.553204953E0
