"Time (s)","Linear Acceleration x (m/s^2)","Linear Acceleration y (m/s^2)","Linear Acceleration z (m/s^2)","Absolute acceleration (m/s^2)"
1.078833360E-3,-1.256256741E0,3.714151382E-1,2.179371294E0,2.542791663E0
1.104983332E-2,-6.723303243E-1,1.469653215E0,9.555759555E-1,1.877507402E0
2.102083334E-2,-8.377210848E-1,1.345783460E0,-2.116247678E-1,1.599279456E0
3.099183337E-2,2.803199038E-2,8.979054523E-1,-2.155859640E0,2.335540790E0
4.096283333E-2,5.216199488E-1,1.991617200E-1,-2.614619901E0,2.673572514E0
5.093383335E-2,3.177230805E-2,8.043049783E-2,-1.523953384E0,1.526405077E0
6.090483337E-2,4.209730683E-1,-1.376493037E-2,-1.006171328E-1,4.330491946E-1
7.087583333E-2,7.947600565E-1,-1.425080475E-1,8.113865411E-1,1.144683454E0
8.084683336E-2,7.508891284E-1,-3.820883533E-1,2.357123727E-1,8.748635982E-1
9.081783338E-2,9.021495806E-1,-3.810276684E-1,-8.538127685E-1,1.299250628E0
1.007888333E-1,3.689751317E-1,-9.080345839E-2,-9.483973289E-1,1.021687530E0
1.107588334E-1,-3.201725157E-1,-1.256081325E-1,-1.765251017E-1,3.865862831E-1
1.207298334E-1,-7.896004003E-1,-7.615559846E-2,-3.664976299E-2,7.941106173E-1
1.307008333E-1,-1.356971961E0,-1.488014057E-1,-5.242882526E-1,1.462324497E0
1.406718334E-1,-1.506240706E0,-3.171544388E-1,5.596311629E-2,1.540285646E0
1.506428333E-1,-1.575491766E0,2.228587309E-1,2.641970837E-1,1.612960141E0
1.606138333E-1,-1.527796905E0,2.204721898E-2,9.897698879E-1,1.820520226E0
1.705848334E-1,-9.884952680E-1,-2.422524834E-1,5.369732022E-1,1.150716898E0
1.805558333E-1,-1.009694787E0,3.463156727E-1,-5.415632665E-2,1.068808222E0
1.905268334E-1,-1.140764146E0,8.571784258E-1,-3.952869809E-1,1.480658464E0
2.004978334E-1,-8.626578516E-1,1.240315185E0,-7.979262507E-1,1.708580296E0
2.104688333E-1,-7.824501327E-1,3.706222558E-1,-4.608939099E-1,9.808222381E-1
2.204388333E-1,-5.245084734E-1,3.500637379E-1,-4.706377101E-1,7.868631478E-1
2.304098334E-1,-2.695099369E-1,6.992138484E-1,-6.481153232E-1,9.907517772E-1
2.403808333E-1,-8.786980066E-2,5.823665991E-1,-4.217351067E-1,7.243841922E-1
2.503518334E-1,-1.102733892E-1,6.648661342E-1,-6.291405237E-1,9.219680012E-1
2.603228334E-1,9.681134457E-2,1.236162200E0,-8.108766639E-1,1.481549994E0
2.702938333E-1,1.407392648E-1,1.572974978E0,-4.527230108E-1,1.642868207E0
2.802654583E-1,-3.248125371E-1,5.544826895E-1,6.180506945E-4,6.426154521E-1
2.902364584E-1,-8.356902737E-1,9.666555521E-1,5.129212654E-1,1.376913002E0
3.002074584E-1,-5.213030663E-1,1.041862732E0,3.401711261E-1,1.213652024E0
3.101784583E-1,-3.477347919E-1,-2.208408567E-1,2.600712883E-1,4.871624416E-1
3.201494584E-1,-3.401180626E-1,8.066096583E-1,-6.915501952E-2,8.781126660E-1
3.301204583E-1,-6.551692580E-1,1.341567033E0,-4.584871960E-1,1.561812847E0
3.400904583E-1,-2.705601151E-1,6.927632001E-1,-3.193339884E-2,7.444080664E-1
3.500614584E-1,-4.394645589E-1,6.113705429E-1,5.896156847E-1,9.563209163E-1
3.600324583E-1,-6.121276843E-1,5.115813759E-1,6.784851766E-1,1.047262117E0
3.700034583E-1,-4.868901922E-1,5.600238034E-1,4.464676595E-1,8.660381577E-1
3.799744584E-1,-1.107477628E-1,3.328811100E-1,2.507040489E-1,4.311930200E-1
3.899454583E-1,2.852845005E-1,-6.940294147E-2,-3.544611365E-1,4.602680869E-1
3.999164584E-1,2.148122678E-1,-5.987139523E-2,-2.989488405E-1,3.729601903E-1
4.098874584E-1,2.859115961E-1,-3.736239240E-1,-1.866355222E-1,5.061354517E-1
4.198584583E-1,2.857322328E-1,-4.890236950E-1,-5.901103592E-1,8.179347891E-1
4.298294584E-1,3.112294552E-1,-1.031150341E0,2.289138150E-1,1.101152275E0
4.398004584E-1,-2.675141361E-1,-8.694286349E-1,4.443182230E-2,9.107382451E-1
4.497714583E-1,-3.601625372E-1,-5.877925229E-1,-2.209101462E-1,7.238911492E-1
4.597414584E-1,-4.357403211E-1,-3.387675020E-1,9.167896199E-1,1.070110394E0
4.697124584E-1,-8.928495111E-1,-3.644549051E-1,9.402615130E-2,9.689419716E-1
4.796834583E-1,-8.951764836E-1,-2.535516429E-1,4.925460577E-2,9.316949010E-1
4.896544584E-1,-3.519326908E-1,-3.157917452E-1,1.370920640E-1,4.923162390E-1
4.996254583E-1,2.478685513E-1,-1.873912749E-1,2.428874910E-2,3.116797265E-1
5.095964583E-1,3.995423651E-1,2.321023017E-1,-5.451353306E-1,7.146174561E-1
5.195674584E-1,7.573193845E-1,3.396057004E-1,-1.638752353E-1,8.460022309E-1
5.295384583E-1,1.130190114E0,7.937171325E-1,4.504168689E-1,1.452649970E0
5.395094584E-1,1.366298416E0,1.103201486E0,-2.738642853E-1,1.777308788E0
5.494804584E-1,1.259520511E0,1.355967263E0,-2.322093058E-1,1.865197120E0
5.594514583E-1,9.488514382E-1,9.061196208E-1,-1.596687484E-1,1.321690557E0
5.694224584E-1,1.122740688E0,4.211886844E-1,-6.273448437E-1,1.353332226E0
5.793924584E-1,7.750736509E-1,5.219400108E-1,-7.204342711E-1,1.179909352E0
5.893634583E-1,4.284913451E-1,5.160974729E-1,-4.223625129E-1,7.926862726E-1
5.993344584E-1,2.247210325E-1,3.009877646E-1,2.965590835E-1,4.785817243E-1
6.093054584E-1,-2.288727749E-1,2.535963741E-1,2.605875975E-1,4.296507465E-1
6.192764583E-1,-5.140835457E-1,-6.547448963E-2,-2.351218039E-1,5.690791363E-1
6.292474584E-1,-7.082285739E-1,-7.393298408E-1,-7.301008880E-2,1.026414536E0
6.392184583E-1,-4.878530459E-1,-4.973457447E-1,-3.912547410E-1,7.990204356E-1
6.491894583E-1,8.314093810E-2,-8.968532458E-1,6.091658503E-1,1.087355137E0
6.591604584E-1,-1.055816747E-1,-5.212219727E-1,6.817075771E-1,8.646068792E-1
6.691314583E-1,1.500041049E-1,2.273835987E-1,-1.436602414E-2,2.727836415E-1
6.791024584E-1,3.913093393E-1,-1.427001286E-1,4.276752931E-1,5.969861657E-1
6.890734584E-1,1.069431623E-1,-1.913138795E-1,3.102848375E-1,3.798875107E-1
6.990434583E-1,4.746601559E-2,3.561758325E-1,-3.029231930E-1,4.699752197E-1
7.090144583E-1,8.214270875E-2,1.655150869E-1,-7.142800766E-1,7.377931258E-1
7.189854584E-1,1.385999878E-1,2.563653231E-2,-6.350514740E-1,6.505056211E-1
7.289564583E-1,8.408420362E-1,5.640615982E-1,-2.297523057E-1,1.038251867E0
7.389274584E-1,9.052929707E-2,1.172442167E0,3.351700026E-1,1.222765358E0
7.488984584E-1,6.739214978E-1,1.544516872E0,-2.168498397E-1,1.699036905E0
7.588694583E-1,9.146602833E-1,6.983928993E-1,-3.043031359E-1,1.190359809E0
7.688404584E-1,3.439275967E-1,1.771107003E-1,-6.526194334E-1,7.586610026E-1
7.788114583E-1,-2.394167300E-1,1.511137164E0,-5.058718622E-1,1.611447250E0
7.887824583E-1,-1.711202279E-2,1.287590216E0,-1.914892960E-1,1.301863870E0
7.987534584E-1,-4.342215434E-2,5.341487047E-1,-6.006803709E-1,8.049951741E-1
8.087244583E-1,8.366561607E-3,1.272727763E0,-6.481258482E-1,1.428276259E0
8.186954584E-1,-9.238052554E-2,8.774726495E-1,-7.197337747E-3,8.823515251E-1
8.286654584E-1,-1.391365430E-1,6.309227550E-1,-5.092895597E-1,8.226775529E-1
8.386364583E-1,-8.708594486E-2,5.120289803E-1,-3.252309054E-1,6.128072945E-1
8.486074583E-1,-3.011610615E-1,6.321278661E-2,-5.658186865E-1,6.440843324E-1
8.585784584E-1,-1.535720028E-2,-3.726260966E-1,-3.220886117E-1,4.927749235E-1
8.685494583E-1,-1.904028102E-1,-5.366562831E-1,-3.698276192E-1,6.789887070E-1
8.785204584E-1,-6.610783079E-1,-3.041122243E-1,4.221034813E-1,8.412372573E-1
8.884914584E-1,-3.778948034E-1,-5.145631635E-1,8.593337095E-1,1.070529848E0
8.984624583E-1,-4.298242179E-1,-3.175301224E-2,-1.405085921E-3,4.309977800E-1
9.084334584E-1,-3.105025732E-1,1.032109576E-1,8.674929142E-3,3.273218662E-1
9.184044583E-1,-2.747684842E-1,-6.912782997E-2,1.439245355E-1,3.177902590E-1
9.283754583E-1,-1.563845866E-1,-1.196656072E-1,-5.623308223E-1,5.958120091E-1
9.383464584E-1,-1.755910090E-1,3.363815457E-2,3.365569621E-1,3.810962039E-1
9.483164583E-1,-1.558769752E-1,-3.135698032E-1,6.187845200E-1,7.109978447E-1
9.582874583E-1,-3.240752032E-1,-5.288631141E-1,7.673418045E-2,6.249872521E-1
9.682584584E-1,-2.147924969E-1,-2.553645721E-1,6.693097258E-1,7.478785934E-1
9.782294583E-1,-2.807102054E-3,-3.933992073E-1,3.046229786E-1,4.975600217E-1
9.882004583E-1,3.967194025E-1,-4.174488053E-1,-9.071288502E-1,1.074491759E0
9.981714584E-1,1.024465073E0,3.428573370E-2,-2.203669399E-1,1.048458767E0
1.008142458E0,1.264137326E-1,-2.953685904E-1,9.899049586E-1,1.040737653E0
1.018113458E0,4.746044612E-1,-1.962337267E-1,9.601186574E-1,1.088845676E0
1.028084458E0,1.107741264E0,-1.792183292E-1,3.987298214E-1,1.190880090E0
1.038055458E0,8.694881304E-1,-5.538734096E-1,-4.436750293E-2,1.031869099E0
1.048026458E0,1.964815025E0,-4.493342569E-1,-2.365666509E-2,2.015678296E0
1.057997458E0,1.133410249E0,1.494361210E-1,-7.778667927E-2,1.145862432E0
1.067968458E0,5.515108421E-1,6.010820746E-1,3.724325538E-1,8.967551932E-1
1.077938458E0,2.923479918E-1,1.834736404E-1,9.332787681E-1,9.950573772E-1
1.087909458E0,3.660967302E-1,1.104027405E-1,1.967400956E-1,4.300258669E-1
1.097880458E0,2.945455948E-1,2.621157673E-1,7.308317900E-2,4.010024113E-1
1.107851458E0,-8.597332205E-1,4.658111259E-1,-2.455900741E-1,1.008184358E0
1.117822458E0,-7.613247272E-1,9.322172061E-1,3.240895289E-1,1.246466318E0
1.127793458E0,-6.161381433E-1,1.155992196E0,2.503608173E-1,1.333650894E0
1.137764458E0,-4.143141861E-1,1.280403695E0,-2.973151284E-1,1.378218471E0
1.147735458E0,-1.426690652E-1,5.062171403E-1,8.546875119E-2,5.328369006E-1
1.157706458E0,-2.947338020E-1,2.280118820E-1,-4.720457196E-1,6.014021897E-1
1.167677458E0,-1.411393605E-2,2.932115525E-1,-1.027582662E0,1.068690014E0
1.177648458E0,3.602080724E-1,-6.053710073E-2,-6.770368212E-1,7.692811276E-1
1.187619458E0,3.417826919E-1,-4.842851114E-1,-4.457847047E-1,7.416680393E-1
1.197590458E0,3.732765993E-1,-2.895696142E-1,-5.975912869E-2,4.761902294E-1
1.207560458E0,4.603328696E-1,-5.899627170E-1,1.758971107E-1,7.687016013E-1
1.217531458E0,6.709727470E-1,-8.031615552E-1,4.108306342E-1,1.124301882E0
1.227502458E0,7.317908795E-1,-9.936845988E-1,-1.104036176E-1,1.238997955E0
1.237473458E0,-1.047253134E-1,-9.361652461E-1,-2.447533375E-1,9.732815397E-1
1.247444458E0,-4.630319443E-1,-2.829151905E-1,4.843248725E-1,7.273308522E-1
1.257415458E0,-5.405528677E-1,-3.688195592E-1,9.764107543E-1,1.175416195E0
1.267386458E0,-1.020842357E0,-2.933255732E-2,6.159591454E-1,1.192637911E0
1.277356875E0,-1.140743754E0,7.951944315E-1,-1.589711756E-1,1.399607920E0
1.287327875E0,-9.878399413E-1,6.986726886E-1,-7.087708300E-1,1.402257952E0
1.297298875E0,-8.172384346E-1,3.795278576E-1,-7.044199169E-2,9.038153173E-1
1.307269875E0,-4.942792455E-1,5.455861509E-1,-1.285451889E-1,7.473286333E-1
1.317240875E0,-6.930473748E-1,1.115195295E0,-5.540622747E-1,1.425117614E0
1.327211875E0,-2.296180756E-1,9.185753596E-1,-7.137181592E-1,1.185706019E0
1.337181875E0,6.439246237E-4,6.548580399E-1,-8.032109642E-1,1.036333595E0
1.347152875E0,2.337278277E-2,7.484608528E-1,-4.880822933E-1,8.938480073E-1
1.357123875E0,3.294960472E-1,5.454794392E-1,-2.500298649E-1,6.845658457E-1
1.367094875E0,1.651699185E-1,8.563071907E-1,-1.194352269E-1,8.802317196E-1
1.377065875E0,2.420658110E-1,1.071759838E0,-2.216007024E-1,1.120879957E0
1.387036875E0,3.447604230E-1,1.070661439E0,-6.893820477E-1,1.319251027E0
1.397007875E0,2.210278945E-1,1.172268797E0,1.530801058E-1,1.202705692E0
1.406978875E0,4.584500296E-1,5.342527851E-1,4.133338273E-1,8.163622485E-1
1.416949875E0,-6.610913180E-2,1.065473497E0,4.189483237E-1,1.146787638E0
1.426920875E0,-1.805804015E-1,1.943471226E-1,6.481047982E-1,7.002998750E-1
1.436891875E0,-1.901646458E-1,2.494381267E-1,-1.120572102E-1,3.330747512E-1
1.446862875E0,-5.970756356E-2,-1.876435822E-1,-3.750012356E-1,4.235575921E-1
1.456833875E0,5.511498497E-1,-6.759372523E-1,-3.528321022E-1,9.408229473E-1
1.466803875E0,3.436206179E-1,-4.665817890E-1,2.896120065E-1,6.478030636E-1
1.476774875E0,2.828091000E-1,-8.243024558E-2,4.618698102E-1,5.478133387E-1
1.486745875E0,3.149253340E-1,-4.845993993E-1,4.913146341E-1,7.585542917E-1
1.496716875E0,9.347355288E-2,-6.956356448E-1,2.552754021E-1,7.468679845E-1
1.506687875E0,4.052041144E-1,-4.535375279E-1,-3.620642710E-1,7.077974286E-1
1.516658875E0,-1.714593664E-1,-7.993094096E-1,-8.431684971E-2,8.218291657E-1
1.526629875E0,-4.760070620E-1,-1.001403508E0,-3.527742147E-1,1.163546886E0
1.536600875E0,-7.137232755E-1,-7.702958179E-1,3.105134636E-1,1.095068570E0
1.546571875E0,-8.606788614E-1,-5.786638498E-1,2.871479899E-1,1.076138431E0
1.556542875E0,-5.771655739E-1,-8.881347549E-1,2.026954848E-1,1.078419632E0
1.566513875E0,-1.031640410E0,-7.772519580E-1,7.876445067E-1,1.512873561E0
1.576484875E0,-2.726897990E-1,-9.253777179E-1,9.734602493E-1,1.370513956E0
1.586455875E0,6.131447344E-1,5.451438090E-1,2.656243891E-1,8.623714709E-1
1.596425875E0,6.308810936E-1,8.493066117E-1,2.895932955E-1,1.096903347E0
1.606396875E0,9.032021526E-1,-2.107397917E-1,8.956156826E-1,1.289307116E0
1.616367875E0,5.236173211E-1,1.878306931E-1,5.248051465E-1,7.647718026E-1
1.626338875E0,5.223378042E-1,4.733999348E-1,2.506426531E-1,7.481751262E-1
1.636309875E0,3.555091768E-1,7.269401756E-1,-7.691357303E-1,1.116422216E0
1.646280875E0,-1.720426627E-1,6.030745134E-1,-1.100826055E0,1.266931549E0
1.656251875E0,3.688362969E-1,-5.619642019E-2,-1.067034996E0,1.130381322E0
1.666222875E0,-4.768375129E-2,-4.125122935E-2,-8.753691137E-1,8.776368778E-1
1.676193875E0,-1.112392213E-1,2.472679326E-1,-2.073071837E-2,2.719289568E-1
1.686164875E0,2.314770151E-2,-1.854269028E-1,-1.603557962E-1,2.462375555E-1
1.696135875E0,-2.944026303E-1,-5.514304429E-2,-2.342014521E-1,3.802157075E-1
1.706106875E0,-5.315713982E-1,-7.607783049E-2,1.737833422E-1,5.644082191E-1
1.716077875E0,-7.764818797E-1,-1.489660048E-1,3.099380976E-1,8.492211752E-1
1.726048875E0,-5.715806059E-1,4.364607346E-1,5.856050795E-1,9.274349956E-1
1.736018875E0,-2.678717664E-1,-9.798237741E-2,2.193770063E-1,3.598362133E-1
1.745989875E0,-2.903345762E-1,1.178067774E-1,-4.304679233E-1,5.324239250E-1
1.755960875E0,2.878138416E-2,-2.609609422E-1,-1.026258268E0,1.059308743E0
1.765931875E0,-1.869995114E-1,-1.065011859E-2,-9.682211441E-1,9.861716008E-1
1.775902875E0,-6.895745672E-2,-3.235843295E-1,-5.076751435E-1,6.059669962E-1
1.785873875E0,2.298565324E-1,-3.765831998E-1,-9.426237881E-2,4.511477894E-1
1.795844875E0,1.575796113E-1,1.138084513E-1,2.042613691E-1,2.819688004E-1
1.805815875E0,2.487787069E-1,7.950035200E-1,4.100517851E-1,9.284739675E-1
1.815786875E0,8.812221766E-2,1.837195158E-1,8.096510875E-1,8.348971609E-1
1.825757875E0,2.144305542E-1,7.387220228E-1,7.501761335E-1,1.074455639E0
1.835728875E0,3.725795382E-1,9.430070731E-1,3.227195263E-2,1.014455189E0
1.845699875E0,4.423658377E-1,1.292612682E0,-9.836917073E-1,1.683503625E0
1.855670875E0,3.849472032E-1,7.697654754E-1,-1.220475290E0,1.493413261E0
1.865641875E0,9.635195442E-2,8.864688832E-1,-1.674809209E0,1.897392069E0
1.875611875E0,-1.123631658E-1,2.174249133E-1,-1.013195588E0,1.042336018E0
1.885582875E0,-5.160153195E-1,8.479310542E-2,-2.676820242E-1,5.874651877E-1
1.895553875E0,-2.714876115E-1,4.254498428E-1,1.052884149E0,1.167595017E0
1.905524875E0,-2.384322781E-1,2.174617508E-1,7.012571579E-1,7.719463491E-1
1.915495875E0,-2.005397625E-1,7.386205736E-1,1.134796039E0,1.368772661E0
1.925466875E0,-4.609053120E-2,6.687209111E-1,1.181905301E0,1.358753891E0
1.935437875E0,2.472516335E-1,3.840851775E-1,-1.368184143E-1,4.768375744E-1
1.945408875E0,5.966439649E-1,-1.021856484E-1,-6.427738917E-1,8.829406568E-1
1.955379875E0,4.085834762E-1,-4.256884092E-1,-1.005708813E0,1.166019423E0
1.965350875E0,4.620857187E-1,-6.777978364E-1,-1.083878485E0,1.359310740E0
1.975321875E0,1.298717760E-1,-4.160060048E-1,-8.111333567E-1,9.207958496E-1
1.985292875E0,-1.259339686E-1,-1.002859173E0,1.354320395E-1,1.019768465E0
1.995263875E0,-3.611121250E-1,-1.424904182E0,7.830076647E-1,1.665489387E0
2.005234875E0,-5.810048557E-1,-6.859851077E-1,1.978253388E-1,9.204765478E-1
2.015204875E0,-8.050500597E-1,-6.410200194E-1,4.493550146E-1,1.122912371E0
2.025175875E0,-4.367164041E-1,-2.628934470E-1,8.725536793E-1,1.010536543E0
2.035146875E0,-1.499000245E-1,2.054770052E-1,6.702464497E-1,7.168829196E-1
2.045117875E0,-8.174378246E-2,3.901800227E-1,5.177218294E-1,6.534205298E-1
2.055088875E0,-2.422533605E-1,1.381340379E-1,1.579724711E-1,3.205042975E-1
2.065059875E0,-3.427241667E-1,6.327213585E-2,3.882638901E-1,5.217394618E-1
2.075030875E0,-9.728034608E-2,-2.433599460E-1,7.133199638E-1,7.599426951E-1
2.085001875E0,1.831257311E-1,-1.129331231E-1,1.921979785E-1,2.884943442E-1
2.094972875E0,9.263180964E-2,-1.358109391E-1,-1.524988925E-1,2.242346440E-1
2.104943875E0,8.510468893E-2,-1.702320358E-1,-8.442268431E-2,2.082040915E-1
2.114914875E0,1.068881692E0,5.755110312E-1,7.373748243E-2,1.216206494E0
2.124885875E0,5.468642060E-1,1.091016766E0,-1.420002168E-1,1.228634244E0
2.134856875E0,2.167853010E-1,1.042262097E0,-6.067854488E-1,1.225354939E0
2.144826875E0,-2.729473688E-1,9.552245378E-1,-2.000379252E-1,1.013394965E0
2.154797875E0,-7.277687991E-1,3.898935091E-1,-4.918151557E-2,8.270932202E-1
2.164768875E0,-1.114589450E0,3.554463923E-1,3.316540718E-3,1.169898620E0
2.174739875E0,-1.208781370E0,-4.606114894E-2,-4.025919074E-1,1.274893829E0
2.184710875E0,-8.815762985E-1,-2.874403507E-2,-6.975956315E-1,1.124563317E0
2.194681875E0,-7.634598380E-1,-7.809128997E-1,-6.247112578E-1,1.258157397E0
2.204652875E0,-2.310722416E-1,-8.133544216E-1,-4.172959006E-1,9.429080891E-1
2.214623875E0,-4.890272764E-1,-4.383970401E-1,3.865336990E-1,7.620682006E-1
2.224594875E0,-3.347224713E-1,-1.530385906E-1,3.894906360E-1,5.358758238E-1
2.234565875E0,-2.509951671E-1,-5.743825185E-1,2.446697223E-1,6.728871559E-1
2.244536875E0,-2.307467709E-1,-1.044511813E0,-4.290569901E-2,1.070555883E0
2.254507875E0,8.055709004E-3,-1.044588704E0,-1.711491716E-1,1.058547351E0
2.264478875E0,-4.624959008E-1,-1.136278308E0,3.016946930E-1,1.263348938E0
2.274449875E0,-3.013418135E-1,-1.934188771E-1,-3.292216301E-2,3.595853437E-1
2.284419375E0,-1.731372980E-1,-8.950683832E-2,2.210107183E-1,2.946756449E-1
2.294390375E0,3.754414579E-1,-7.806398347E-1,7.496691799E-1,1.145582262E0
2.304361375E0,3.754616307E-1,-3.337611160E-1,5.539505929E-1,7.478162729E-1
2.314332375E0,7.560716618E-2,6.507693744E-1,1.715327489E-1,6.772301722E-1
2.324303375E0,3.007606368E-1,1.011707472E0,-1.861279839E-1,1.071752115E0
2.334274375E0,5.970904729E-1,7.206570500E-1,-6.166181266E-2,9.379050035E-1
2.344245375E0,1.390466420E0,9.813250467E-1,-8.392800987E-1,1.897573924E0
2.354216375E0,1.770794908E0,1.766856077E0,-1.391337948E0,2.862396948E0
2.364187375E0,1.081350587E0,1.055533815E0,-5.960049373E-1,1.624405310E0
2.374158375E0,7.880516191E-1,1.018995734E0,-5.393764079E-2,1.289297068E0
2.384129375E0,-1.314793948E-2,1.275093839E0,-1.015738542E0,1.630264381E0
2.394100375E0,1.299851388E-1,1.559754423E0,-1.031369319E0,1.874420622E0
2.404071375E0,8.087897927E-2,1.228060006E0,-7.525220364E-1,1.442554055E0
2.414042375E0,-1.705785930E-1,6.396140563E-1,-9.516606599E-1,1.159250279E0
2.424012375E0,-3.360513607E-1,7.180603015E-1,-4.379377413E-1,9.057210271E-1
2.433983375E0,-4.141581385E-1,1.074013647E-1,1.263653469E-1,4.461280284E-1
2.443954375E0,-2.687084664E-1,4.827008083E-1,2.037573391E-1,5.888305049E-1
2.453925375E0,-2.061407008E-1,-1.193264687E-1,-4.351117820E-1,4.960393709E-1
2.463896375E0,3.797814806E-1,-3.633182064E-1,4.060072660E-2,5.271456261E-1
2.473867375E0,1.239175124E0,-2.750457153E-1,9.881595647E-1,1.608621913E0
2.483838375E0,1.215393840E0,-8.658130091E-1,1.109766448E0,1.859676295E0
2.493809375E0,7.685125633E-1,-6.854106188E-1,1.477239393E0,1.800731935E0
2.503780375E0,1.699485920E-1,-4.168558976E-1,1.363144428E0,1.435553585E0
2.513751375E0,5.939806312E-2,-2.644906139E-1,6.171888149E-1,6.740960228E-1
2.523722375E0,9.814332202E-2,-5.524019578E-1,2.385348237E-1,6.096547357E-1
2.533693375E0,-7.420957200E-2,-3.442513132E-1,-1.413067371E-1,3.794517376E-1
2.543664375E0,6.280596659E-2,-4.561167347E-1,-1.087704903E-1,4.730941605E-1
2.553635375E0,-5.656815693E-3,-1.712913174E0,1.916629583E-1,1.723611972E0
2.563605375E0,-1.984623930E-1,-1.277302332E0,-1.175179249E-1,1.297959565E0
2.573576375E0,-2.775390411E-1,-8.576827481E-1,-4.590181231E-1,1.011605285E0
2.583547375E0,-2.669630360E-1,-1.414884393E0,4.696232182E-1,1.514500933E0
2.593518375E0,2.253899905E-1,-1.433698686E0,1.602184451E0,2.161778802E0
2.603489375E0,-3.006597358E-1,-1.012139288E0,1.051859132E0,1.490379096E0
2.613460375E0,-1.760733312E-1,1.521302256E-1,-2.770820081E-1,3.618284990E-1
2.623431375E0,1.328528034E0,3.339067116E-1,-1.120038251E0,1.769453620E0
2.633402375E0,1.731306176E0,-1.122273642E-1,-1.575970214E0,2.343863940E0
2.643373375E0,1.571164534E0,-5.496572748E-1,-9.771866798E-1,1.930174842E0
2.653344375E0,1.195212906E0,2.341131592E-1,-4.337289155E-2,1.218697694E0
2.663315375E0,7.286411306E-1,7.022424138E-1,3.301677096E-1,1.064459028E0
2.673286375E0,5.785603541E-1,8.954326648E-1,1.115474499E0,1.542989015E0
2.683257375E0,1.216880129E-1,8.975715762E-1,2.414385509E-1,9.374088120E-1
2.693228375E0,1.502010830E-2,1.384029805E0,-4.293025732E-3,1.384117963E0
2.703198375E0,-4.345307880E-1,1.684959975E0,-5.481267661E-1,1.824376626E0
2.713169375E0,-2.991980781E-1,1.504288905E0,-1.080678304E0,1.876238310E0
2.723140375E0,-1.601988716E-1,5.723757541E-1,-1.328265787E0,1.455186477E0
2.733111375E0,-6.143355198E-1,4.774921086E-1,-1.123113302E0,1.366305359E0
2.743082375E0,-8.295156871E-1,-3.349799681E-1,-5.564070082E-1,1.053516309E0
2.753053375E0,-1.772397484E0,-7.066184700E-1,-2.609670818E-2,1.908240954E0
2.763024375E0,-2.322043649E0,-6.784246579E-1,1.085176567E0,2.651368496E0
2.772995375E0,-2.180267234E0,-8.631139344E-1,9.773451394E-1,2.540420122E0
2.782966375E0,-1.699582107E0,-1.903099126E-1,9.398013371E-1,1.951415833E0
2.792937375E0,-9.527332585E-1,-4.455335668E-1,5.177721155E-1,1.172300637E0
2.802908375E0,-6.123355528E-1,-1.557546222E-1,-1.064123082E-1,6.407323239E-1
2.812879375E0,2.256978464E-1,1.966257825E-1,-1.047607622E0,1.089533361E0
2.822850375E0,5.916263960E-1,5.642858389E-1,-1.414820366E0,1.634061495E0
2.832821375E0,1.220645517E0,9.695581099E-1,-4.089396447E-1,1.611598597E0
2.842792375E0,9.949539562E-1,7.482377815E-1,-8.478667349E-1,1.506210859E0
2.852762375E0,3.287580190E-1,3.065937826E-1,-4.493029743E-1,6.355743429E-1
2.862733375E0,-1.425863271E-1,-5.625255346E-2,-4.720164835E-2,1.603845568E-1
2.872704375E0,-8.392819990E-1,2.716236323E-1,2.134105074E-1,9.075889577E-1
2.882675375E0,-1.033603906E0,4.044153616E-1,1.938732058E-1,1.126710095E0
2.892646375E0,-1.010315103E0,6.445149001E-1,-1.811455715E-1,1.212002386E0
2.902617375E0,-3.027639294E-1,-6.602851331E-2,7.070371306E-1,7.719632540E-1
2.912588375E0,-3.920596833E-1,-5.798221833E-1,1.054106802E0,1.265324349E0
2.922559375E0,-6.758938368E-1,-3.367879272E-2,1.144675494E0,1.329755138E0
2.932530375E0,-7.382889634E-1,-3.397606516E-1,6.945007002E-1,1.069036537E0
2.942501375E0,-4.687126605E-1,-8.121785465E-1,5.000749326E-1,1.062732557E0
2.952472375E0,-8.906698152E-3,-7.299020827E-1,1.418090129E-1,7.436035071E-1
2.962443375E0,3.093310835E-1,-2.336866048E-1,-5.204349375E-1,6.489589144E-1
2.972414375E0,1.314396776E0,-3.327957407E-1,-1.372072542E-1,1.362797755E0
2.982385375E0,1.098077498E0,-6.881705046E-1,1.268974435E-1,1.302096692E0
2.992356375E0,9.408206530E-1,-4.196225077E-2,9.593409777E-2,9.466296439E-1
3.002326375E0,6.275194562E-1,2.478631791E-1,-2.398457694E-1,7.160606236E-1
3.012297375E0,4.314514250E-2,-3.240427512E-1,2.744028139E-1,4.268045363E-1
3.022268375E0,7.221245550E-2,-4.086961082E-1,1.232184924E0,1.300202613E0
3.032239375E0,-5.318199049E-1,-7.334861335E-1,5.189158309E-1,1.044082353E0
3.042210375E0,-5.541497637E-1,7.562613308E-2,-4.814462882E-1,7.379646340E-1
3.052181375E0,-3.659385630E-1,2.671271235E-1,-8.957782352E-1,1.003835932E0
3.062152375E0,-3.650456201E-1,-8.590615216E-1,-3.973463702E-1,1.014460024E0
3.072123375E0,-2.649704511E-1,-1.180990797E0,1.714929879E-1,1.222439547E0
3.082094375E0,-7.751196246E-1,-3.682134953E-1,-2.262667805E-1,8.874616986E-1
3.092065375E0,-5.474753132E-1,-2.102024326E-1,1.837101603E-1,6.145434925E-1
3.102036375E0,3.819086976E-1,-4.606787324E-2,5.435612601E-1,6.659094126E-1
3.112007375E0,4.072236331E-1,-3.462993005E-1,4.000624019E-1,6.676857182E-1
3.121978375E0,-2.692269317E-1,2.377910578E-1,-2.723866940E-2,3.602355799E-1
3.131949375E0,3.647903891E-1,4.378389233E-1,-4.711341387E-1,7.394202644E-1
3.141919375E0,6.494496578E-1,3.931463152E-1,-1.119449437E-2,7.592589808E-1
3.151890375E0,1.102516631E-1,-3.833267936E-1,-2.669546306E-1,4.799579510E-1
3.161861375E0,-5.771468628E-1,-3.793720293E-1,9.668897331E-2,6.974026064E-1
3.171832375E0,-1.169509204E0,-1.485280484E-1,-5.436741114E-3,1.178915568E0
3.181803375E0,-1.759767790E0,-2.006343412E-1,6.812795609E-1,1.897677173E0
3.191774375E0,-1.982934962E0,-6.511658156E-1,6.422909117E-1,2.183709137E0
3.201745375E0,-2.107723314E0,-1.569761056E-1,-4.434540045E-1,2.159581099E0
3.211716375E0,-1.787838957E0,-9.627382100E-2,-7.925093901E-1,1.957985679E0
3.221687375E0,-1.559473757E0,-6.832030025E-1,2.889869392E-1,1.726915803E0
3.231658375E0,-1.535728068E0,-9.977045596E-1,8.074846941E-1,2.001476110E0
3.241629375E0,-1.217491309E0,-6.037682855E-1,-3.907015944E-1,1.414025801E0
3.251600375E0,-1.475781974E0,-3.646063480E-1,-4.820403653E-1,1.594751748E0
3.261571375E0,-6.878777052E-1,-5.319551218E-1,1.920746022E-1,8.905305395E-1
3.271542375E0,-8.915400271E-1,-7.750048730E-1,1.647353607E-1,1.192733798E0
3.281513750E0,-1.151381374E0,-9.991599315E-1,4.281857550E-2,1.525068217E0
3.291483750E0,-1.126765765E0,-2.366692695E-1,1.031887382E-1,1.155967711E0
3.301454750E0,-8.681046060E-1,3.887664583E-1,-8.381749749E-2,9.548666604E-1
3.311425750E0,-4.645514164E-2,1.361260748E0,-1.103666047E0,1.753073771E0
3.321396750E0,6.441787583E-1,1.233053235E0,-1.008810176E0,1.718454109E0
3.331367750E0,1.277420738E0,5.665443259E-1,-3.170763785E-1,1.432938814E0
3.341338750E0,1.772437610E-1,1.550743864E0,1.220477629E0,1.981360019E0
3.351309750E0,-1.359595680E-1,1.791480164E0,1.119902596E0,2.117089513E0
3.361280750E0,4.432825349E-1,1.857044993E0,3.351483679E-1,1.938411706E0
3.371251750E0,-9.971600376E-2,1.954652857E0,-9.031644380E-1,2.155531738E0
3.381222750E0,6.056367267E-1,2.050632270E0,-1.475778174E0,2.598039601E0
3.391193750E0,5.340637374E-1,1.868383037E0,-1.421085073E0,2.407397356E0
3.401164750E0,7.251194988E-1,9.378197157E-1,-9.226947230E-1,1.502221574E0
3.411135750E0,5.715214759E-1,9.448357898E-1,4.727941632E-2,1.105254184E0
3.421106750E0,5.565376204E-1,6.083150804E-2,-5.137802213E-1,7.598715096E-1
3.431077750E0,2.052378541E-1,-3.768273211E-1,1.624023217E-1,4.587983443E-1
3.441048750E0,2.202175435E-1,-1.082632443E0,1.091540676E0,1.553077532E0
3.451018750E0,6.834998218E-1,-1.281931280E0,1.812852615E0,2.323134610E0
3.460989750E0,7.791849744E-1,-1.196836166E0,1.241553333E0,1.892353221E0
3.470960750E0,1.117417383E0,-5.806796774E-1,-2.338050109E-1,1.280810399E0
3.480931750E0,1.257655688E0,-1.318210330E0,-1.867986596E-1,1.831466637E0
3.490902750E0,1.786525526E0,-1.778994605E0,2.544152766E-1,2.534013100E0
3.500873750E0,1.349595845E0,-7.838531721E-1,2.564851910E-1,1.581650844E0
3.510844750E0,1.404821920E0,-6.355400088E-1,8.517510402E-1,1.761509456E0
3.520815750E0,1.460835907E0,-8.585738638E-1,9.252540493E-1,1.930617953E0
3.530786750E0,1.756018117E0,-1.238996345E0,3.217506427E-1,2.173070419E0
3.540757750E0,2.138673504E0,-5.972907400E-1,-1.043208761E0,2.453357924E0
3.550728750E0,1.161816242E0,-2.277095810E-1,-1.028156859E-1,1.188376917E0
3.560699750E0,1.133212321E0,-2.989660898E-1,1.259920607E0,1.720741358E0
3.570670750E0,1.724164825E-1,-2.674627537E-1,7.706495744E-1,8.337652755E-1
3.580641750E0,-2.412348486E-1,-1.763178179E-1,-1.013404334E-1,3.155187926E-1
3.590612750E0,-9.721251838E-2,5.497423518E-1,6.091775447E-1,8.262954726E-1
3.600583750E0,9.346408769E-3,4.266616783E-1,6.084220845E-1,7.431722384E-1
3.610553750E0,-2.104735972E-1,2.220895296E-1,-2.409988403E-1,3.894911236E-1
3.620524750E0,1.339661425E-1,6.835047188E-1,-8.301800770E-1,1.083662580E0
3.630495750E0,1.150433686E0,1.045616352E0,-7.652186805E-1,1.732735078E0
3.640466750E0,9.944008827E-1,1.032598696E0,-3.780985057E-2,1.434058146E0
3.650437750E0,1.533965425E0,9.752629459E-1,-2.563185453E-2,1.817923191E0
3.660408750E0,1.411675587E0,3.040645695E-1,-6.868642366E-1,1.599082770E0
3.670379750E0,1.226237867E0,6.951123190E-1,-5.181434137E-1,1.501769969E0
3.680350750E0,1.280326512E0,1.998005283E-1,-1.248018014E-1,1.301818620E0
3.690321750E0,5.238692265E-1,2.399001485E-1,-8.632180148E-1,1.037851815E0
3.700292750E0,1.041801336E-1,-2.278782731E-1,-1.650254411E0,1.669167945E0
3.710263750E0,-6.535948221E-1,-8.607864502E-1,-1.131901667E0,1.565037025E0
3.720234750E0,-6.926173852E-1,-1.432454399E0,5.725377220E-1,1.690989027E0
3.730205750E0,-1.050288278E0,-5.395605952E-1,1.232239303E0,1.706647240E0
3.740176750E0,5.995581441E-2,-8.697864845E-1,2.096580568E0,2.270632799E0
3.750147750E0,3.760625052E-1,4.955135196E-2,1.766052670E0,1.806327871E0
3.760117750E0,6.097572231E-1,5.897820380E-1,6.903368980E-1,1.093714659E0
3.770088750E0,7.011364129E-1,6.702824101E-1,5.315177500E-2,9.714401114E-1
3.780059750E0,4.267061171E-1,2.146039242E-1,-1.048206961E-1,4.889993180E-1
3.790030750E0,5.490831513E-1,9.100106505E-1,-7.743292272E-1,1.314989522E0
3.800001750E0,8.181635372E-1,1.247125145E0,-1.005117660E0,1.798603405E0
3.809972750E0,3.712709313E-1,7.781816652E-1,-8.014550453E-1,1.177174158E0
3.819943750E0,7.055445557E-1,7.826033297E-1,-3.485379070E-1,1.109837720E0
3.829914750E0,4.257840112E-1,7.573073977E-1,-1.485941219E-1,8.814117834E-1
3.839885750E0,6.008772028E-1,1.381584207E0,-3.115308791E-1,1.538466712E0
3.849856750E0,9.780872972E-1,9.686558846E-1,7.699134099E-1,1.577249391E0
3.859827750E0,7.968956789E-1,3.403915662E-1,8.634308535E-1,1.223283279E0
3.869798750E0,1.008155142E0,4.613397601E-1,3.243052912E-1,1.155155871E0
3.879769750E0,6.909118254E-1,4.174403268E-1,-4.057154900E-1,9.034492990E-1
3.889740750E0,6.914012374E-1,5.651696455E-1,-3.556007588E-1,9.611994065E-1
3.899711750E0,5.587517416E-1,-4.724550247E-3,-1.281943560E-1,5.732884292E-1
3.909681750E0,-2.010301977E-2,-6.341279063E-1,2.073118615E-1,6.674582690E-1
3.919652750E0,-3.694522280E-1,-3.467790645E-1,-4.181513482E-1,6.569636355E-1
3.929623750E0,-3.953897457E-1,-1.972353548E-1,-5.803665590E-1,7.294245533E-1
3.939594750E0,-4.459329316E-1,-1.521246707E-1,-2.150810570E-1,5.179362470E-1
3.949565750E0,-5.849045100E-1,6.374809921E-2,-4.219116926E-1,7.240073082E-1
3.959536750E0,-4.691589493E-1,-1.726972219E-1,8.245983249E-1,9.643115926E-1
3.969507750E0,-4.195586269E-1,-4.375860313E-1,9.168077463E-1,1.099112105E0
3.979478750E0,-1.498835061E-1,-1.049936568E0,1.051767915E-1,1.065783289E0
3.989449750E0,7.251007877E-2,-1.306409479E0,6.820777059E-2,1.310196832E0
3.999420750E0,2.502136137E-1,-1.255224123E0,4.503244829E-1,1.356829610E0
4.009391750E0,2.109602317E-1,-8.222647011E-1,9.740268445E-1,1.292033959E0
4.019362750E0,2.116855788E-1,-6.169046402E-1,1.069282665E0,1.252496522E0
4.029333750E0,7.322184572E-1,-4.981941757E-1,1.200297133E0,1.491661662E0
4.039304750E0,7.591181342E-1,-6.207962546E-1,5.475730348E-1,1.123158297E0
4.049275750E0,7.968907819E-1,-5.046606115E-1,7.654005289E-1,1.214724339E0
4.059246750E0,5.897673469E-1,-3.806613404E-1,3.244450396E-1,7.733001767E-1
4.069216750E0,3.878279071E-1,-7.895252636E-1,-2.724334717E-1,9.208586341E-1
4.079187750E0,2.652563068E-1,-5.249419713E-1,-2.007314050E-1,6.214644628E-1
4.089158750E0,9.516896036E-1,-3.051848960E-1,-2.654951656E-1,1.034088297E0
4.099129750E0,1.822384892E-1,5.667121410E-3,-4.665762341E-1,5.009354903E-1
4.109100750E0,-2.257626043E-1,-3.274630800E-1,-3.182089841E-1,5.093699833E-1
4.119071750E0,-7.872866571E-2,-2.025475502E-1,2.619973612E-1,3.403914367E-1
4.129042750E0,-9.098194465E-3,2.275248089E-1,-2.429868937E-1,3.330059253E-1
4.139013750E0,-2.232790726E-1,6.491710380E-1,-3.413604498E-1,7.666834663E-1
4.148984750E0,-2.710377413E-1,1.001139799E-1,-3.644856030E-1,4.651172121E-1
4.158955750E0,-3.361418829E-1,2.353355196E-1,3.793381155E-2,4.120839069E-1
4.168926750E0,-3.988170180E-1,4.413949075E-1,1.414353758E-1,6.114641803E-1
4.178897750E0,1.894921795E-2,9.035997632E-1,-2.994224650E-1,9.521057806E-1
4.188868750E0,-1.126335264E-1,4.263298488E-1,-2.312690735E-2,4.415634780E-1
4.198839750E0,3.417288975E-1,2.246441782E-1,8.230663544E-1,9.190657593E-1
4.208810750E0,-7.840261035E-2,-1.871223029E-1,-1.300087470E-1,2.409647274E-1
4.218780750E0,1.282905719E0,4.485948765E-1,-2.005863941E0,2.422926866E0
4.228751750E0,1.717738296E0,-9.959562421E-3,-4.412279695E-1,1.773529297E0
4.238722750E0,5.493330467E-1,-1.166602845E0,4.039700961E-1,1.351266382E0
4.248693750E0,8.486083080E-1,2.299455562E-1,-1.631829250E-1,8.942257468E-1
4.258664750E0,3.030991211E-1,9.823351532E-2,-2.221713907E-1,3.884314966E-1
4.268635750E0,1.262747882E-1,-2.826544046E-2,8.284878927E-1,8.385323164E-1
4.278607375E0,2.885149227E-1,-9.241056561E-2,6.640033776E-1,7.298500248E-1
4.288578375E0,-3.242053769E-1,5.603284433E-1,1.479257852E-1,6.640475350E-1
4.298549375E0,-4.095545525E-1,7.917062750E-1,-4.571692336E-1,1.001767171E0
4.308520375E0,-3.296217258E-1,8.034147397E-1,-3.308465713E-1,9.292928386E-1
4.318491375E0,-2.319462541E-1,-1.116499516E-1,-1.235154140E-1,2.855185353E-1
4.328462375E0,1.533367985E-1,5.495061243E-1,-3.028080028E-1,6.458806708E-1
4.338433375E0,1.133343152E-1,1.009240239E0,2.920263219E-1,1.056735492E0
4.348404375E0,4.954816523E-1,7.348745549E-1,1.391169548E-1,8.971600784E-1
4.358375375E0,5.743890236E-1,3.613585120E-1,3.637085080E-2,6.795774889E-1
4.368346375E0,6.549283527E-1,-1.104799238E-1,-8.052481341E-1,1.043820635E0
4.378317375E0,5.882150573E-1,-2.732979825E-1,-4.891932642E-1,8.124030962E-1
4.388287375E0,6.602825019E-1,-7.679598552E-1,3.770582861E-1,1.080698049E0
4.398258375E0,3.164890987E-1,-1.347221875E0,1.351688563E0,1.934485488E0
4.408229375E0,6.182256724E-1,-5.396942040E-1,1.165167646E0,1.425162608E0
4.418200375E0,7.358324019E-1,9.102939481E-1,9.602736086E-1,1.514004557E0
4.428171375E0,6.525000040E-1,-5.098231182E-1,1.204912925E0,1.462016082E0
4.438142375E0,-1.900543161E-1,-7.821185955E-1,5.852828979E-2,8.070041520E-1
4.448113375E0,-2.859868059E-1,4.085885194E-1,-1.416179844E0,1.501432110E0
4.458084375E0,-1.191835043E-1,-1.633320290E-1,-6.009464192E-1,6.340494130E-1
4.468055375E0,-3.185586476E-1,-4.097866139E-1,-9.335722983E-2,5.273710774E-1
4.478026375E0,1.971211148E-1,-4.772231367E-1,-4.006798679E-1,6.535617895E-1
4.487997375E0,-1.316985923E-1,-3.594192830E-1,-5.339279723E-1,6.569671375E-1
4.497968375E0,2.778750367E-2,-5.856562427E-1,4.223683602E-1,7.226066784E-1
4.507939375E0,-2.441912739E-1,-4.793243337E-1,6.262917602E-1,8.256043629E-1
4.517910375E0,2.972008154E-2,-9.118767893E-1,6.779583424E-1,1.136675009E0
4.527881375E0,6.457999720E-1,-2.481672344E-1,5.556188035E-1,8.873312994E-1
4.537852375E0,4.057365400E-1,6.819022894E-3,2.553999478E-1,4.794765607E-1
4.547823375E0,4.953250200E-1,-2.180184057E-1,-3.288047236E-1,6.332388546E-1
4.557794375E0,8.231200026E-1,-4.707239565E-1,8.065766215E-2,9.516371369E-1
4.567764375E0,9.003258341E-1,-4.599282423E-1,1.646295261E-1,1.024316102E0
4.577735375E0,3.964124968E-1,-6.032575312E-1,1.095972866E-1,7.301192244E-1
4.587706375E0,3.585479748E-1,-7.499387366E-1,2.604496032E-1,8.710905548E-1
4.597677375E0,7.062098958E-2,-2.239009970E-1,3.733786333E-1,4.410562146E-1
4.607648375E0,-2.706281438E-2,-2.988392052E-1,4.442696911E-1,5.361089674E-1
4.617619375E0,-3.859469309E-1,3.911056370E-2,2.851172519E-1,4.814317366E-1
4.627590375E0,-4.193149441E-1,3.030082700E-1,1.760812980E-1,5.464829893E-1
4.637561375E0,-6.121281228E-1,-1.349420428E-2,7.330420375E-2,6.166493644E-1
4.647532375E0,-7.426757638E-1,-9.974560529E-2,-3.425450957E-1,8.239257360E-1
4.657503375E0,-9.233018102E-1,-2.032433689E-2,-4.511916250E-1,1.027848819E0
4.667474375E0,-1.343129847E0,-8.961442709E-3,-2.200675625E-1,1.361068634E0
4.677445375E0,-1.249461692E0,4.062493408E-1,-5.056911832E-1,1.407805604E0
4.687416375E0,-1.564156353E0,2.064818493E-1,-5.086498743E-1,1.657692537E0
4.697387375E0,-1.166569005E0,4.104128507E-1,-5.341378874E-1,1.347080262E0
4.707358375E0,-1.182641758E0,3.546649119E-1,-4.235834116E-1,1.305316680E0
4.717329375E0,-7.187029105E-1,2.090724581E-1,3.722255623E-1,8.359408087E-1
4.727300375E0,-8.252857382E-1,4.272849914E-1,-2.143788064E-1,9.537438263E-1
4.737271375E0,-6.337154583E-1,8.314363512E-1,-2.454047173E-1,1.073827343E0
4.747242375E0,-6.836333576E-1,7.311332139E-1,-3.386280459E-1,1.056683159E0
4.757212375E0,-8.006589469E-1,6.911768505E-1,-8.513721406E-2,1.061144916E0
4.767183375E0,-3.932747347E-1,4.243599218E-1,5.762138665E-2,5.814349356E-1
4.777154375E0,-3.768064903E-1,4.908576742E-1,-4.495696074E-1,7.648772577E-1
4.787125375E0,-1.924894622E-1,2.267713952E-1,-4.258679187E-1,5.194621670E-1
4.797096375E0,-2.800533438E-1,-1.614425012E-1,-3.639114064E-1,4.867494924E-1
4.807067375E0,3.104199082E-1,-4.503756461E-1,1.893550622E-1,5.788385626E-1
4.817038375E0,3.549296446E-1,-5.972433776E-1,-3.317815411E-1,7.699049913E-1
4.827009375E0,5.445497319E-1,2.935085911E-1,4.229928428E-1,7.494028614E-1
4.836980375E0,6.765254822E-1,-4.493643701E-1,7.040182132E-1,1.074828689E0
4.846951375E0,8.623976505E-1,-7.012054101E-1,-2.611132622E-2,1.111800583E0
4.856922375E0,8.671306061E-1,-5.817859706E-1,2.237548167E-1,1.067921636E0
4.866893375E0,5.570305406E-1,-5.330883121E-1,1.232768476E-1,7.808094216E-1
4.876864375E0,5.424889538E-1,-1.164829677E-1,-1.209753835E-1,5.678887129E-1
4.886835375E0,-4.240451954E-2,-7.801571470E-1,3.305267286E-1,8.483461768E-1
4.896806375E0,2.245202903E-1,-8.237001926E-1,2.608226556E-1,8.927036606E-1
4.906777375E0,-2.644734377E-1,-5.895706612E-1,6.714199859E-1,9.318500745E-1
4.916748375E0,-1.044738100E-1,-1.934831965E-1,1.178827912E0,1.199160444E0
4.926719375E0,7.761199370E-2,2.058295923E-1,6.734290892E-1,7.084463147E-1
4.936690375E0,6.922377547E-1,1.569065237E-1,-3.227458388E-1,7.797292111E-1
4.946661375E0,8.135731074E-1,-3.880846730E-1,-1.062607484E0,1.393429431E0
4.956631375E0,1.191471127E0,-1.004174504E0,-8.226465243E-1,1.762020767E0
4.966602375E0,1.207371387E0,-9.542740729E-1,7.394038081E-2,1.540730948E0
4.976573375E0,1.121285389E0,-8.944371763E-1,8.748492962E-1,1.680077402E0
4.986544375E0,1.070373390E0,-2.810777029E-1,1.047168496E0,1.523570060E0
4.996515375E0,8.715552673E-1,-7.551357418E-1,7.212838715E-1,1.360179766E0
5.006486375E0,8.837866922E-1,-7.558859396E-1,7.227965462E-1,1.369261596E0
5.016457375E0,4.507945260E-1,-5.369772953E-1,1.638214409E-2,7.013049942E-1
5.026428375E0,9.007287803E-1,1.217445847E-1,-2.420805752E-1,9.406046377E-1
5.036399375E0,2.248119932E-1,-1.314834148E-1,-7.703531206E-2,2.715930043E-1
5.046370375E0,-2.673007127E-1,-4.174531907E-2,-1.219267255E-1,2.967464727E-1
5.056341375E0,-4.743524462E-1,1.335235083E-1,-9.374080718E-2,5.016234737E-1
5.066312375E0,-7.221821500E-1,-1.643292716E-1,-1.163964289E-1,7.497328164E-1
5.076283375E0,-1.012694116E0,2.701054028E-1,-2.807131290E-2,1.048472365E0
5.086254375E0,-9.000966963E-1,-2.751942345E-1,-3.150725377E-1,9.925606447E-1
5.096225375E0,-2.545488855E-1,3.206423029E-1,-7.087421787E-1,8.184876892E-1
5.106196375E0,1.890250600E-1,2.267597008E-1,-8.470411080E-1,8.970111894E-1
5.116167375E0,4.658347341E-1,-2.248137474E-2,-4.291382664E-1,6.337720911E-1
5.126137375E0,8.870128935E-1,-1.806392026E-1,-1.225085235E-1,9.134718020E-1
5.136108375E0,7.310271601E-1,1.040076408E-1,-8.527403891E-2,7.432966836E-1
5.146079375E0,1.301296382E0,8.253257185E-2,6.154545307E-2,1.305362686E0
5.156050375E0,7.704780317E-1,-1.567126885E-1,8.416406196E-1,1.151761345E0
5.166021375E0,8.296455684E-1,-6.556003439E-1,8.000347567E-1,1.325963496E0
5.175992375E0,4.511047938E-1,6.112869278E-1,-4.628714383E-1,8.896163282E-1
5.185963375E0,5.552401232E-1,1.301829648E0,-1.636871889E0,2.163885765E0
5.195934375E0,2.533003588E-1,1.012856449E0,-2.004122640E0,2.259766982E0
5.205905375E0,-3.678337187E-2,-2.993122450E-1,-1.307215810E0,1.341549109E0
5.215876375E0,-2.810105330E-1,2.979951596E-1,8.606750607E-2,4.185399031E-1
5.225847375E0,-3.697216384E-1,9.556633714E-1,9.484686649E-1,1.396273389E0
5.235818375E0,-1.749097352E-1,1.919481854E0,-9.504169571E-1,2.149022196E0
5.245789375E0,3.569469340E-1,1.420105956E0,-2.571741684E0,2.959386310E0
5.255760375E0,8.760479754E-1,-6.699421021E-1,-4.221122521E-1,1.180873079E0
5.265731375E0,3.855966827E-1,-1.521101989E0,4.796948717E0,5.047093526E0
5.275701375E0,1.955430975E-1,1.520439792E-1,5.949084089E0,5.954238488E0
5.285671833E0,-2.620795146E-3,2.253535916E0,3.572345878E0,4.223752605E0
5.295642833E0,1.135987482E0,1.548282186E0,-1.101475096E-1,1.923480637E0
5.305613833E0,1.020249523E0,-5.105145514E-2,-2.756965104E0,2.940131277E0
5.315584833E0,1.156480804E0,-6.852813953E-1,-5.040999219E0,5.217157422E0
5.325555833E0,8.722910663E-1,-8.639597341E-1,-4.582213815E0,4.743838275E0
5.335526833E0,6.523879568E-1,-1.992947441E0,-1.776533219E0,2.748366757E0
5.345497833E0,1.642831517E-1,-2.148711711E0,-1.366143465E-2,2.155026127E0
5.355468833E0,3.693624001E-1,-1.252133870E0,8.291357642E-1,1.546523173E0
5.365439833E0,9.566456305E-1,-2.103711247E-1,2.318705766E0,2.517106136E0
5.375410833E0,6.248625545E-1,-6.480363858E-1,4.097767321E0,4.195485834E0
5.385381833E0,5.910317342E-1,-4.420261145E-1,4.416965654E0,4.478201780E0
5.395352833E0,-9.961762436E-2,4.789775938E-1,3.311521468E0,3.347464360E0
5.405323833E0,9.421720907E-2,5.352213764E-1,8.250690258E-1,9.879664476E-1
5.415294833E0,-5.414848407E-1,3.123933434E-1,-4.219175398E-1,7.541948317E-1
5.425264833E0,-1.208047179E-1,3.043116143E-1,-1.289783506E0,1.330691862E0
5.435235833E0,-2.322634656E-1,7.481097275E-1,-1.863721637E0,2.021651013E0
5.445206833E0,1.517661633E-1,4.898335344E-1,-1.731531293E0,1.805871114E0
5.455177833E0,3.244733986E-1,2.792691591E-1,-9.382681972E-1,1.031320251E0
5.465148833E0,5.105496347E-1,-2.828736752E-1,-4.816088408E-1,7.567202397E-1
5.475119833E0,5.604334009E-1,8.375279805E-1,-8.272471136E-1,1.303793121E0
5.485090833E0,3.637196908E-1,1.909693031E0,1.022455823E-1,1.946708413E0
5.495061833E0,5.857994264E-1,1.009072716E0,1.259179764E0,1.716660244E0
5.505032833E0,3.109313203E-1,-1.818598381E0,1.188177609E0,2.194480437E0
5.515003833E0,4.178916588E-1,-3.206116635E0,4.485831821E-1,3.264206517E0
5.524974833E0,-1.211200290E-1,-2.267776810E0,-5.848022568E-1,2.345096032E0
5.534945833E0,7.546833135E-2,-4.318496203E-1,-5.749204624E-1,7.229959209E-1
5.544916833E0,-2.254899048E-1,4.722088569E-1,-1.091332515E0,1.210303086E0
5.554886833E0,-5.517293818E-2,5.230503970E-1,-1.766609910E0,1.843240718E0
5.564857833E0,-3.390988930E-1,-4.981547070E-1,-4.201768237E-1,7.346391866E-1
5.574828833E0,-3.975201056E-1,-8.010621125E-1,1.088291963E0,1.408581606E0
5.584799833E0,-4.814103279E-1,-5.607684463E-2,1.289960677E0,1.378005466E0
5.594770833E0,-4.776241095E-1,9.114876571E-1,4.814246535E-2,1.030170974E0
5.604741833E0,-5.545163110E-1,2.149658668E-1,1.085611600E-1,6.045528831E-1
5.614712833E0,-7.426107866E-1,-2.319982213E-1,5.938139856E-1,9.787282588E-1
5.624683833E0,-7.289183617E-1,-9.186051804E-1,-1.247468376E-1,1.179287594E0
5.634654833E0,-5.648704874E-1,2.552596146E-1,-1.197601567E0,1.348512385E0
5.644625833E0,-3.536739551E-1,-2.198670030E-1,-1.219613410E0,1.288752744E0
5.654596833E0,-2.073614898E-1,-9.499708146E-2,-2.421682835E-1,3.326690705E-1
5.664567833E0,-1.252831735E-2,5.295080620E-1,-1.607294333E-1,5.535067273E-1
5.674537833E0,3.466551036E-2,6.252497864E-1,-5.833533168E-2,6.289213018E-1
5.684508833E0,-1.831433458E-1,4.193523663E-1,5.657906199E-1,7.276791310E-1
5.694479833E0,-4.877674207E-2,2.619339189E-1,1.186473146E0,1.216021001E0
5.704450833E0,-4.188413928E-1,6.638893569E-1,8.480117458E-1,1.155552297E0
5.714421833E0,-1.168014948E-1,8.465133968E-1,3.970540094E-1,9.422735306E-1
5.724392833E0,-2.259959082E-1,7.609203923E-1,-3.903495920E-1,8.845602285E-1
5.734363833E0,-1.140402203E-1,-3.396799600E-1,-9.835449421E-1,1.046779967E0
5.744334833E0,1.560342653E-1,-4.179317853E-1,-4.155031443E-1,6.096363933E-1
5.754305833E0,2.439518304E-1,-6.908906293E-1,7.125300050E-2,7.361517149E-1
5.764276833E0,-1.870141295E-1,-4.905983502E-1,-5.596779406E-2,5.280089202E-1
5.774247833E0,2.120068833E-2,1.816615883E-1,5.945589209E-1,6.220536249E-1
5.784217833E0,-4.602124169E-2,2.533236015E-1,7.442874026E-1,7.875624035E-1
5.794188833E0,-4.323386668E-1,6.731212333E-1,-1.086196321E-1,8.073457388E-1
5.804159833E0,-3.779458934E-1,6.151358575E-1,-7.627277666E-1,1.050232768E0
5.814130833E0,-4.367564575E-1,-4.615297946E-1,-7.481108969E-1,9.815476905E-1
5.824101833E0,2.086582560E-1,-8.370952865E-1,-9.671382397E-1,1.296002763E0
5.834072833E0,4.243345595E-1,-3.897534683E-1,-7.526787418E-1,9.478886395E-1
5.844043833E0,4.473685692E-1,-3.954714605E-1,-4.483639115E-1,7.467037632E-1
5.854014833E0,2.038507484E-1,-7.291477919E-1,6.274863464E-1,9.833365369E-1
5.863985833E0,1.722745413E-1,-2.817811230E-1,6.276676100E-1,7.092571801E-1
5.873956833E0,5.304155499E-3,-5.103651550E-1,9.843091732E-1,1.108767457E0
5.883926833E0,-2.188670560E-1,5.586956084E-1,5.684592891E-1,8.265528019E-1
5.893897833E0,-3.884458847E-1,1.342126027E-1,2.135748142E-1,4.631602631E-1
5.903868833E0,-6.692745694E-1,-2.890448266E-1,1.252496982E-1,7.397045680E-1
5.913839833E0,-5.469938681E-1,-2.774609077E-1,-5.640399635E-2,6.159287766E-1
5.923810833E0,-7.460546505E-1,3.300381938E-1,2.338576359E-1,8.486531357E-1
5.933781833E0,-1.384725185E-1,-4.878475276E-1,1.565527672E-1,5.307340365E-1
5.943752833E0,5.617455161E-1,-5.635645849E-1,-2.058944964E-1,8.219219000E-1
5.953723833E0,4.233204331E-1,-9.113017157E-1,-6.893282533E-3,1.004847512E0
5.963693833E0,-1.439542832E-1,-8.450594866E-1,-4.381020480E-1,9.626950587E-1
5.973664833E0,-1.002757285E-1,-6.036858398E-1,-7.722651601E-1,9.853351168E-1
5.983635833E0,-1.763525357E-1,-1.795840725E-1,-2.374764776E-1,3.460429646E-1
5.993606833E0,-3.396684849E-1,-1.179001866E0,3.224634182E-1,1.268622377E0
6.003577833E0,-5.917236791E-1,-2.578347284E-1,2.418940490E-1,6.892955756E-1
6.013548833E0,-4.462554055E-1,2.600417599E-1,3.389882344E-1,6.178014462E-1
6.023519833E0,-8.190728523E-2,1.011533225E-1,7.792636925E-1,7.900586690E-1
6.033490833E0,1.553804004E-1,-6.140509066E-1,7.584248006E-2,6.379292018E-1
6.043461833E0,2.895147235E-1,7.258938164E-2,3.132645786E-2,3.001155451E-1
6.053431833E0,3.565246920E-1,9.045496434E-2,5.598539418E-1,6.698719226E-1
6.063402833E0,1.550425044E-1,9.273128539E-2,1.190247524E-1,2.163426938E-1
6.073373833E0,-6.392804727E-2,1.795808566E-1,-9.171673501E-1,9.367667945E-1
6.083344833E0,1.813454732E-1,1.862566227E-1,-1.627902260E0,1.648527670E0
6.093315833E0,-2.095093913E-2,3.737551939E-1,-9.103980285E-1,9.843558590E-1
6.103286833E0,-6.364847727E-2,3.118513066E-1,-2.530441046E-2,3.192846367E-1
6.113257833E0,2.984011026E-1,4.099757713E-1,1.679045516E-1,5.341491267E-1
6.123228833E0,3.029983297E-2,7.703449345E-1,-3.886702716E-2,7.719197133E-1
6.133198833E0,-6.159639694E-2,1.665245503E0,5.800192344E-1,1.764442975E0
6.143169833E0,3.094077551E-1,1.074052824E0,1.317871776E0,1.728036066E0
6.153140833E0,2.930172057E-1,6.751031470E-1,8.498746687E-1,1.124237650E0
6.163111833E0,5.023602437E-1,1.345208679E0,-1.591290504E-1,1.444740205E0
6.173082833E0,2.575879759E-1,1.141636696E0,-4.783589584E-1,1.264323220E0
6.183053833E0,8.771240093E-2,5.497619399E-1,-8.530690026E-1,1.018655182E0
6.193024833E0,-2.774220237E-1,2.766227093E-1,-1.186447418E0,1.249456113E0
6.202995833E0,-5.488504321E-1,-5.642495862E-1,5.768974060E-1,9.759226452E-1
6.212965833E0,-3.656750728E-1,2.419110060E-2,9.267521060E-1,9.965806210E-1
6.222936833E0,-3.140366303E-1,7.084939644E-1,6.763217068E-1,1.028588233E0
6.232907833E0,3.124727925E-1,-5.785088986E-2,8.414359671E-1,8.994445276E-1
6.242878833E0,3.986014751E-1,-2.172062275E-1,5.403283346E-1,7.057027634E-1
6.252849833E0,2.197859459E-1,-1.945865661E-2,5.846063751E-1,6.248592763E-1
6.262820833E0,4.113846579E-1,3.503943980E-3,-6.141798377E-2,4.159588719E-1
6.272791833E0,1.147525574E-1,5.367159247E-2,-3.880586529E-1,4.082135560E-1
6.282761458E0,2.895146504E-1,-5.878328687E-1,-1.321248543E0,1.474809794E0
6.292732458E0,-3.370184536E-1,-7.165371019E-1,-1.617626948E0,1.801034091E0
6.302703458E0,-2.227482185E-1,-9.949806342E-1,-4.309585047E-1,1.106945556E0
6.312674458E0,-3.418451109E-1,-1.120816223E0,8.250047064E-1,1.433080546E0
6.322645458E0,1.557075521E-1,-7.652350527E-1,1.297303610E0,1.514208105E0
6.332616458E0,-1.605504354E-1,-6.174186105E-1,1.862233520E0,1.968475518E0
6.342587458E0,2.595101018E-1,-9.155345151E-1,2.146633903E0,2.348102650E0
6.352558458E0,-4.617692381E-2,-7.478047952E-1,2.133955386E0,2.261660874E0
6.362528458E0,-4.266874060E-2,-4.062253672E-1,1.205645581E0,1.272957556E0
6.372499458E0,-2.919684345E-1,-2.866968772E-1,1.361617720E-1,4.312547904E-1
6.382470458E0,1.589924448E-1,-3.390923148E-1,-7.969918656E-1,8.806010614E-1
6.392441458E0,3.131941196E-1,-4.244821286E-1,-9.169726378E-1,1.057882060E0
6.402412458E0,3.803081685E-1,-1.843893144E-1,-9.581072152E-1,1.047188215E0
6.412383458E0,8.106556392E-1,3.831651181E-1,-9.656074387E-1,1.317716130E0
6.422354458E0,8.287364725E-1,2.999647942E-1,-4.904738045E-1,1.008636491E0
6.432324458E0,8.649115147E-1,3.117852330E-2,4.928618073E-3,8.654873308E-1
6.442295458E0,7.271321104E-1,-4.331512105E-1,-4.417787772E-1,9.547301007E-1
6.452266458E0,3.687926620E-1,-1.640146914E-1,-8.298678356E-1,9.228160549E-1
6.462237458E0,2.016280755E-1,-2.910650396E-1,-4.244751120E-1,5.527674546E-1
6.472208458E0,3.612140127E-1,-5.123593479E-2,4.055622929E-1,5.455102725E-1
6.482179458E0,-8.257576816E-2,1.300865149E-1,2.539819980E-1,2.970658414E-1
6.492150458E0,-8.565747008E-2,2.235334995E-1,2.068329746E-1,3.163610389E-1
6.502120458E0,-2.922391605E-1,5.513105750E-1,9.380161822E-2,6.309879719E-1
6.512091458E0,-5.561666876E-1,7.298883417E-1,2.133075964E-1,9.421032356E-1
6.522062458E0,-2.059776731E-1,1.259389387E0,-3.694621682E-1,1.328529534E0
6.532033458E0,3.244128799E-1,1.569222820E0,-2.197442114E-1,1.617402700E0
6.542004458E0,9.324788690E-2,1.987504561E0,-1.462926579E-1,1.995061675E0
6.551975458E0,2.570516400E-2,1.513644158E0,2.296575809E-1,1.531183201E0
6.561945458E0,-7.453496955E-2,1.975038589E0,-6.446192729E-1,2.078910026E0
6.571916458E0,4.726772189E-2,1.628182634E0,-3.597949666E-1,1.668132292E0
6.581887458E0,-1.856375487E-1,7.774428695E-2,-2.546456569E-1,3.245764690E-1
6.591858458E0,2.653016958E-1,-1.095738977E-2,-4.799236733E-1,5.484813455E-1
6.601829458E0,5.223012956E-1,-1.471782187E-1,-8.946877295E-1,1.046387215E0
6.611800458E0,1.006897552E0,-7.799712056E-1,2.806762916E-1,1.304215068E0
6.621771458E0,9.083281142E-1,-1.869589317E0,8.568030345E-1,2.248229441E0
6.631741458E0,9.184456245E-1,-1.631412051E0,1.098864899E0,2.170841245E0
6.641712458E0,5.837556783E-1,-1.854106767E0,1.302032254E0,2.339609067E0
6.651683458E0,4.340999944E-1,-1.378789238E0,1.820639936E0,2.324700485E0
6.661654458E0,4.392092183E-2,-9.910717705E-1,2.572652096E0,2.757297791E0
6.671625458E0,-4.059466012E-2,-5.565122581E-1,1.763474048E0,1.849647139E0
6.681596458E0,-4.830662593E-1,6.879652673E-1,1.881593066E-1,8.614250661E-1
6.691567458E0,-3.755055580E-1,6.583821568E-1,-9.377565658E-1,1.205760700E0
6.701537458E0,4.804677567E-1,2.061979669E-1,-1.732507194E0,1.809681752E0
6.711508458E0,1.817770708E-1,-5.981760085E-1,-2.221242621E0,2.307547664E0
6.721479458E0,2.160141264E-1,-9.615088329E-1,-1.291097960E0,1.624221439E0
6.731450458E0,6.015842043E-2,-4.626053900E-1,-5.293133497E-2,4.694938856E-1
6.741421458E0,2.723974382E-1,5.092047751E-3,1.261947252E0,1.291021750E0
6.751392458E0,5.935246946E-1,3.724182281E-1,1.145188880E0,1.342544029E0
6.761363458E0,7.099076018E-1,1.538218251E-1,9.788958210E-1,1.218961437E0
6.771333458E0,7.144552007E-1,2.324452409E-1,7.048836011E-1,1.030212558E0
6.781304458E0,6.536269087E-1,2.831049326E-1,3.382783824E-1,7.885485417E-1
6.791275458E0,3.251576690E-1,-1.082738570E0,6.968477726E-2,1.132654532E0
6.801246458E0,1.357397492E0,-1.012015620E0,-1.499284565E-1,1.699759427E0
6.811217458E0,4.958370169E-1,-8.344941527E-1,8.440449947E-1,1.286330747E0
6.821188458E0,-1.088086434E-2,-5.361510837E-1,7.476033586E-1,9.200473681E-1
6.831158458E0,1.270250590E-1,-3.074758351E-1,5.835047597E-1,6.716803997E-1
6.841129458E0,-3.799414019E-1,-2.266401252E-1,9.599660450E-1,1.057003322E0
6.851100458E0,-3.514731362E-1,-1.888650656E-3,-3.603843659E-1,5.034022484E-1
6.861071458E0,-5.175880744E-1,2.156637320E-1,-8.984387183E-1,1.059056368E0
6.871042458E0,-4.082295004E-1,-3.438946331E-1,-8.853976732E-1,1.033849062E0
6.881013458E0,-5.113344772E-1,-1.336204844E0,-3.186276448E-1,1.465752335E0
6.890984458E0,-6.537780592E-1,-1.818174165E0,-2.979121292E-1,1.954976901E0
6.900955458E0,-3.082220129E-1,-2.197747631E0,4.187483490E-1,2.258416622E0
6.910925458E0,-1.070679273E-1,-1.389362466E0,7.083410597E-1,1.563182222E0
6.920896458E0,1.446033242E-1,-3.872985148E-1,9.418250585E-1,1.028564389E0
6.930867458E0,3.358718877E-1,3.180554947E-1,1.189973874E0,1.276717292E0
6.940838458E0,1.858660287E-1,3.079909748E-1,1.156442431E0,1.211100210E0
6.950809458E0,4.250039195E-1,2.857478741E-1,3.838679534E-1,6.400271751E-1
6.960780458E0,5.285847867E-1,2.925318137E-1,-5.964165813E-1,8.489343185E-1
6.970750458E0,7.599677347E-1,6.575536063E-1,-4.994141972E-1,1.122204190E0
6.980721458E0,8.305017469E-1,9.271795374E-1,-6.440076542E-1,1.401478114E0
6.990692458E0,6.558488506E-1,1.012020298E0,-5.384858769E-1,1.320715653E0
7.000663458E0,4.122219061E-1,1.323440957E0,-4.336096323E-1,1.452391194E0
7.010634458E0,-7.468502373E-2,2.208382255E0,-1.239112705E-1,2.213116364E0
7.020605458E0,1.800121618E-1,2.161330295E0,-5.969457543E-1,2.249465994E0
7.030576458E0,1.245069556E-2,2.072842334E0,-1.016830802E0,2.308847167E0
7.040546458E0,-1.683905283E-1,1.275925313E0,-1.176821732E0,1.743918049E0
7.050517458E0,-5.920404520E-1,6.353470507E-1,-1.594291295E0,1.815473080E0
7.060488458E0,-1.645394059E-1,1.339804682E-1,-4.779315269E-1,5.229173227E-1
7.070459458E0,-7.477441303E-2,-5.665452030E-1,1.029288295E0,1.177284619E0
7.080430458E0,4.149404228E-1,-6.128262073E-1,1.292096080E0,1.489041234E0
7.090401458E0,1.379210530E-1,-3.551987627E-1,8.506786609E-1,9.321172469E-1
7.100372458E0,1.457029662E-1,-2.938225865E-1,8.298309982E-1,8.922895002E-1
7.110342458E0,-9.708066367E-2,-8.364497539E-1,3.876247895E-1,9.269982867E-1
7.120313458E0,-6.336854182E-2,-1.290769055E0,-1.534174901E-1,1.301398191E0
7.130284458E0,-2.296898867E-1,-1.072493664E0,-4.281284523E-1,1.177409901E0
7.140255458E0,-1.320417508E-1,-7.132635382E-1,-3.988970518E-2,7.264785526E-1
7.150226458E0,-1.541665915E-1,-4.770024043E-1,4.888985646E-1,7.002288470E-1
7.160197458E0,3.711655352E-1,-7.502062467E-1,3.513346303E-1,9.077495742E-1
7.170168458E0,3.968050642E-1,-2.483762723E-1,-5.190625960E-1,6.989785477E-1
7.180138458E0,3.035921144E-1,-5.811556408E-1,-6.689998233E-1,9.367341215E-1
7.190109458E0,-2.047678111E-1,-1.311194256E0,1.362642152E0,1.902091972E0
7.200080458E0,1.595808940E-1,-8.789747992E-1,8.685372269E-1,1.245961345E0
7.210051458E0,-4.652223113E-1,-6.893200672E-1,4.369805521E-1,9.394391714E-1
7.220022458E0,-1.574115039E-1,-4.931641084E-1,1.487835717E-1,5.386332431E-1
7.229993458E0,-4.062126495E-2,-4.333807138E-1,7.546708882E-2,4.417739373E-1
7.239964458E0,2.528533392E-2,-1.369033451E0,-6.340890223E-1,1.508960181E0
7.249934458E0,-1.396462740E-1,-1.156947923E0,-8.636162102E-1,1.450469764E0
7.259905458E0,-3.763093308E-1,-7.250892395E-1,8.314565241E-2,8.211432988E-1
7.269876458E0,-1.007025752E-1,-6.837646276E-2,3.642774421E-1,3.840760395E-1
7.279847458E0,3.092199499E-1,-2.314497524E-1,-1.310782027E-1,4.078816747E-1
7.289819208E0,2.763268037E-1,-2.001823515E-1,-7.884327114E-2,3.502081348E-1
7.299790208E0,3.251505793E-1,-5.391574296E-1,4.843488461E-1,7.943597660E-1
7.309761208E0,6.363774763E-1,-7.856114298E-1,8.144235849E-1,1.298247814E0
7.319731208E0,4.665306624E-1,-1.000686640E-1,3.745586014E-1,6.065960289E-1
7.329702208E0,3.597860130E-1,2.588234925E-1,9.393809223E-1,1.038687678E0
7.339673208E0,1.860701330E-1,7.087161586E-1,5.855740893E-1,9.379753205E-1
7.349644208E0,2.626264120E-1,7.243478125E-1,2.345312351E-1,8.053926285E-1
7.359615208E0,-1.686395466E-1,7.705378926E-1,-4.097138160E-1,8.888382033E-1
7.369586208E0,2.284203831E-2,8.081533232E-1,-1.166209036E0,1.419040897E0
7.379557208E0,-2.281074474E-1,3.728184700E-1,-1.607244632E0,1.665611577E0
7.389527208E0,-4.410964072E-1,1.059872449E0,-1.639971498E0,2.001849685E0
7.399498208E0,-5.567355851E-1,4.834097832E-1,-6.126724255E-1,9.586485442E-1
7.409469208E0,-8.257261797E-1,9.585776237E-1,1.515890658E-2,1.265276482E0
7.419440208E0,-9.402468219E-1,1.157187951E0,3.245637381E-1,1.525938944E0
7.429411208E0,-7.770375844E-1,1.106689935E0,5.696263933E-1,1.467318727E0
7.439382208E0,-6.900675606E-1,1.106891664E0,3.417557216E-1,1.348406232E0
7.449353208E0,-5.298171604E-1,1.081970831E0,3.316108024E-1,1.249533043E0
7.459323208E0,5.781036135E-2,1.011375642E0,-3.668297517E-1,1.077398160E0
7.469294208E0,-2.826855776E-1,1.428752527E-1,-2.531616336E-1,4.054815487E-1
7.479265208E0,-4.212208806E-1,-9.259846589E-1,-1.872564965E-1,1.034378854E0
7.489236208E0,-3.366069924E-1,-9.345876673E-1,1.614474714E-2,9.934883130E-1
7.499207208E0,-2.166986526E-1,-8.496103746E-1,-2.052542263E-1,9.005139599E-1
7.509178208E0,-2.707497659E-1,-8.288270313E-1,8.543436956E-1,1.220722259E0
7.519149208E0,-5.915176378E-1,-8.506833386E-1,1.450618190E0,1.782652067E0
7.529120208E0,-6.336800826E-1,-4.654775423E-1,1.288534541E0,1.509483704E0
7.539090208E0,-5.666318880E-1,-5.293621740E-1,6.641583288E-1,1.020981045E0
7.549061208E0,-5.542044717E-1,-8.301256979E-1,2.360263681E-1,1.025650875E0
7.559032208E0,-4.521187376E-1,-1.326212245E0,-5.919042850E-1,1.521052581E0
7.569003208E0,-6.527640058E-1,-1.746546943E0,-1.211455375E-1,1.868476201E0
7.578974208E0,-7.689534433E-1,-1.535627350E0,-6.069819152E-2,1.718465893E0
7.588945208E0,-7.357280291E-1,-1.271546625E0,8.197182387E-1,1.682279568E0
7.598916208E0,-6.066682852E-1,-1.856555289E-1,6.166111100E-1,8.847167030E-1
7.608886208E0,1.151360251E-1,-6.282774746E-2,2.189905053E-1,2.552654923E-1
7.618857208E0,7.010172028E-2,-2.893471277E-1,1.195281976E-1,3.208161491E-1
7.628828208E0,4.225086202E-1,-2.707845569E-1,4.853481352E-1,6.981408331E-1
7.638799208E0,3.799875584E-1,-3.403137982E-2,-2.374244374E-1,4.493540284E-1
7.648770208E0,3.928528946E-1,-2.283375719E-1,-1.164620932E0,1.250125337E0
7.658741208E0,8.977814913E-1,-7.005057907E-1,-5.890590298E-1,1.282072740E0
7.668712208E0,8.854716405E-1,-1.642099884E0,1.004939319E0,2.119069393E0
7.678682208E0,5.865123116E-1,-1.217328611E0,1.652729537E0,2.134806914E0
7.688653208E0,4.614605782E-1,5.303658485E-2,1.537851046E0,1.606469602E0
7.698624208E0,-1.169181468E-1,7.762626091E-1,7.482067913E-1,1.084466179E0
7.708595208E0,3.563432090E-2,2.795939720E-1,-2.035901088E-1,3.476945878E-1
7.718566208E0,2.031508001E-1,-2.018657649E-1,-1.041563355E0,1.080219541E0
7.728537208E0,1.208427979E-1,-7.476688474E-2,-1.072315616E0,1.081690274E0
7.738508208E0,-3.396109994E-1,2.826207832E-1,-7.453714764E-1,8.664806841E-1
7.748479208E0,-4.699796060E-1,1.972195673E-1,-3.768232280E-1,6.338549778E-1
7.758449208E0,-9.862691599E-1,-3.662690037E-1,-2.924613547E-1,1.091976869E0
7.768420208E0,-9.097225289E-1,-9.611237937E-1,-6.295404732E-2,1.324883859E0
7.778391208E0,-9.748723519E-1,-5.145900607E-2,4.895294791E-1,1.092091225E0
7.788362208E0,-6.922943996E-1,2.866515613E-1,1.215215135E-1,7.590837447E-1
7.798333208E0,-6.437246490E-1,5.090164948E-1,-1.260022348E-1,8.302745201E-1
7.808304208E0,2.292290165E-1,-1.170714900E-1,1.472089165E-1,2.965166789E-1
7.818275208E0,6.238378300E-1,-2.113797694E-2,-1.711281216E-1,6.472289287E-1
7.828245208E0,9.389067131E-1,5.006576076E-1,-6.557400924E-1,1.249879564E0
7.838216208E0,8.996238758E-1,1.499693871E-1,-5.387145030E-1,1.059257877E0
7.848187208E0,3.027106101E-1,-2.803415385E-1,2.179853690E-1,4.666290955E-1
7.858158208E0,-1.469036188E-2,-1.903166369E-1,4.499917763E-1,4.888034654E-1
7.868129208E0,-9.990300503E-2,1.111151945E0,-3.497500348E-1,1.169172503E0
7.878100208E0,-3.785664657E-1,2.204907547E0,-2.232344145E-1,2.248280112E0
7.888071208E0,-2.399653815E-1,1.127063973E0,5.744579476E-1,1.287578548E0
7.898042208E0,-4.964298514E-1,8.197819734E-1,3.956962860E-1,1.036851307E0
7.908012208E0,-2.054317990E-1,6.705113286E-1,-7.272801912E-1,1.010308934E0
7.917983208E0,-4.190745139E-1,5.741307959E-1,-8.166923046E-1,1.082698453E0
7.927954208E0,-1.153758340E-1,-1.173097640E-1,-5.781212282E-1,6.010801264E-1
7.937925208E0,-4.367206068E-1,-7.635338053E-1,1.128863454E-2,8.796795971E-1
7.947896208E0,-5.294241910E-1,-8.457810330E-1,9.009775794E-1,1.344394335E0
7.957867208E0,-4.166345805E-1,-6.583643228E-1,7.240618837E-1,1.063622850E0
7.967838208E0,-2.745697154E-1,-5.139778572E-1,2.270245796E-1,6.253814245E-1
7.977809208E0,-1.564239822E-3,-6.217326862E-1,7.818534243E-1,9.989237994E-1
7.987779208E0,5.588650315E-1,-1.030858565E0,-1.527216715E-1,1.182507257E0
7.997750208E0,3.262812115E-2,-5.981064266E-1,-2.292646480E-1,6.413721000E-1
8.007721208E0,2.797039727E-1,-7.284388170E-1,2.734830469E-1,8.268315423E-1
8.017692208E0,-1.188563891E-1,-8.114917910E-1,1.213121831E-1,8.290732259E-1
8.027663208E0,-5.160533264E-2,-8.183687013E-1,4.222274423E-2,8.210805087E-1
8.037634208E0,-9.235311672E-2,-5.304965338E-1,5.487021321E-1,7.687845604E-1
8.047605208E0,4.838885240E-2,-9.347028574E-1,9.784163493E-1,1.353997587E0
8.057576208E0,-1.372139419E-1,-4.246797645E-1,1.069587305E0,1.158964008E0
8.067546208E0,-4.109024088E-1,-1.151655900E-1,1.118982244E0,1.197591402E0
8.077517208E0,-4.334636711E-1,-8.008814335E-2,7.656350023E-1,8.834601415E-1
8.087488208E0,-1.924149467E-1,3.065806264E-1,2.015552777E-1,4.142942459E-1
8.097459208E0,2.937482904E-1,1.897319153E-1,-6.489795417E-1,7.371978725E-1
8.107430208E0,2.707896001E-1,-4.382970527E-1,-4.782741737E-1,7.029775951E-1
8.117401208E0,1.170872044E-1,-3.545049906E-1,-5.900173885E-1,6.982146665E-1
8.127372208E0,2.662072834E-2,-3.750550300E-1,-5.399821794E-1,6.579936875E-1
8.137343208E0,1.805722520E-2,-4.739112738E-1,7.994979823E-1,9.295778517E-1
8.147313208E0,1.526982461E-1,-1.305159929E-1,1.582094003E0,1.594795477E0
8.157284208E0,1.437144377E-1,7.286870313E-1,4.381751382E-1,8.623433660E-1
8.167255208E0,3.618079071E-1,6.089246526E-1,-5.898267692E-1,9.217319632E-1
8.177226208E0,3.387547112E-1,1.699335355E-1,-6.911426443E-1,7.882323995E-1
8.187197208E0,4.037520681E-2,-6.383270842E-1,-7.220937109E-1,9.646299555E-1
8.197168208E0,4.408033155E-2,-3.579609874E-1,-1.378909691E0,1.425296839E0
8.207139208E0,-3.349271604E-1,-8.011299402E-2,-1.271234969E0,1.317054532E0
8.217110208E0,-3.130639825E-1,-5.623173738E-1,-4.017890847E-1,7.587123002E-1
8.227080208E0,-8.639682126E-1,-8.094180760E-1,4.448737085E-1,1.264717878E0
8.237051208E0,-8.245121516E-1,-2.284004295E-1,1.004397867E0,1.319394604E0
8.247022208E0,-4.953097442E-1,9.521448094E-1,3.647200763E-1,1.133548506E0
8.256993208E0,-2.543292129E-1,1.007123255E0,-8.228552699E-2,1.041994005E0
8.266964208E0,-1.712876410E-1,3.366054940E-1,-2.147828490E-1,4.344817450E-1
8.276935208E0,9.327076413E-2,8.370084554E-2,-3.319487715E-1,3.548172119E-1
8.286905875E0,-1.281926018E-1,3.046697563E-1,-8.004937631E-1,8.660526937E-1
8.296876875E0,-1.792258575E-1,7.988805163E-1,-4.311970711E-2,8.198727319E-1
8.306847875E0,-4.097655274E-1,2.201327589E-1,3.636775178E-1,5.904469120E-1
8.316817875E0,-6.799450801E-1,2.238700068E-1,4.753336090E-1,8.592933910E-1
8.326788875E0,-4.356018517E-1,-3.021636397E-2,2.033211368E-1,4.816653263E-1
8.336759875E0,-1.729420010E-1,1.340717725E0,-3.619426489E-4,1.351825834E0
8.346730875E0,8.157669827E-2,8.108243313E-1,3.620210016E-1,8.917118703E-1
8.356701875E0,5.374034842E-1,-7.317571118E-1,4.334681296E-1,1.006064409E0
8.366672875E0,3.891843881E-1,-1.134822644E0,-7.484588063E-1,1.414028821E0
8.376643875E0,4.002552138E-1,-7.064512396E-1,-5.425116849E-1,9.765226666E-1
8.386614875E0,-4.291549310E-2,-9.305495802E-1,2.089847499E-1,9.546930849E-1
8.396584875E0,-6.358371936E-2,-1.003707311E0,2.398019153E-1,1.033913059E0
8.406555875E0,2.112775163E-1,-8.371566823E-1,3.093674093E-1,9.171573985E-1
8.416526875E0,7.362479927E-1,-1.287524435E0,8.949309736E-1,1.732247593E0
8.426497875E0,4.691291285E-1,-4.323846406E-1,8.280692321E-1,1.045340743E0
8.436468875E0,5.598211974E-1,-1.725121576E-1,1.068600295E0,1.218633172E0
8.446439875E0,-2.019566891E-1,-8.889033714E-1,1.185476781E0,1.495423320E0
8.456410875E0,-1.063915506E-2,-2.498333985E-1,-3.674834704E-1,4.444929917E-1
8.466381875E0,-2.174085411E-1,-1.847822472E-1,-7.353037405E-1,7.887220952E-1
8.476352875E0,-1.399308141E-1,-2.113025862E-1,-1.350630802E-1,2.871784311E-1
8.486322875E0,-1.741251120E-1,-1.265776008E-1,-2.856440860E-1,3.576786093E-1
8.496293875E0,5.372450978E-2,7.720985144E-1,1.122747266E-1,7.820665273E-1
8.506264875E0,6.506935067E-2,7.726519534E-1,1.131056160E-1,7.835929695E-1
8.516235875E0,4.468103063E-1,4.018276763E-1,3.776728284E-1,7.097476288E-1
8.526206875E0,4.909778345E-1,5.448140261E-1,5.109127468E-1,8.938195521E-1
8.536177875E0,7.356912647E-1,-1.378867006E-1,7.075516856E-1,1.029992120E0
8.546148875E0,6.038320933E-1,3.269043785E-1,1.983235216E-1,7.147110526E-1
8.556119875E0,7.449326429E-1,-2.372852737E-1,-4.507092297E-2,7.831093995E-1
8.566090875E0,1.718232678E0,-2.728512552E-1,-1.689845324E-4,1.739761873E0
8.576060875E0,1.215427023E0,-3.095878494E-1,-4.679532534E-1,1.338688811E0
8.586031875E0,6.682404162E-1,-8.773609677E-1,1.490829492E-1,1.112894086E0
8.596002875E0,2.732973247E-1,-1.472057298E0,2.500210941E-1,1.517944223E0
8.605973875E0,1.644926282E-1,-4.627889925E-1,-2.098010212E-1,5.340860837E-1
8.615944875E0,9.356480598E-2,-5.407905570E-1,-8.840405345E-2,5.558993399E-1
8.625915875E0,2.220589048E-1,-4.550455248E-1,4.528738689E-1,6.793168098E-1
8.635886875E0,5.962168989E-1,-9.213215044E-1,7.743280578E-1,1.343090409E0
8.645857875E0,6.713210218E-1,5.116050571E-2,9.467519224E-2,6.798916852E-1
8.655827875E0,7.790978508E-1,-1.169171235E-1,8.293690681E-3,7.878653821E-1
8.665798875E0,5.404335845E-1,-3.186533725E-1,1.538145161E-1,6.459623336E-1
8.675769875E0,6.177364797E-1,-1.075171981E0,-2.782163680E-1,1.270825517E0
8.685740875E0,5.290053476E-1,-7.241949078E-1,-4.755329990E-1,1.015104209E0
8.695711875E0,3.951322489E-1,-4.194605398E-1,-1.752352059E-2,5.765272868E-1
8.705682875E0,4.183621404E-1,1.771975315E-1,-1.908273911E-1,4.927889395E-1
8.715653875E0,4.358888038E-1,4.940946928E-1,1.834294939E-1,6.839407825E-1
8.725624875E0,6.702348284E-1,6.106229764E-1,7.094298112E-1,1.151245326E0
8.735595875E0,3.899533700E-1,1.140799083E0,5.653561717E-1,1.331583185E0
8.745566875E0,-2.675068270E-1,1.448704396E0,6.730355716E-1,1.619654658E0
8.755536875E0,-3.083602995E-1,1.267522572E0,1.208623568E0,1.778333623E0
8.765507875E0,-4.198540574E-1,1.322733444E0,-2.316140592E-2,1.387961687E0
8.775478875E0,-4.267372535E-1,1.279433935E0,-9.165416980E-1,1.630676105E0
8.785449875E0,2.556166602E-1,7.226834026E-1,-9.930969536E-1,1.254532876E0
8.795420875E0,1.491047300E-2,1.413330495E-1,-1.305308449E0,1.313022277E0
8.805391875E0,-1.612758556E-1,-3.521216655E-1,-1.131598197E0,1.196040989E0
8.815362875E0,-2.018390138E-1,-5.849420053E-1,-7.009004778E-1,9.349639655E-1
8.825333875E0,-5.547322925E-1,-1.292532867E-1,6.440906847E-1,8.598180846E-1
8.835304875E0,-4.596372702E-1,-7.869451797E-1,9.070259392E-1,1.285785826E0
8.845274875E0,-7.676821125E-1,-9.384380588E-1,9.055132645E-1,1.513260086E0
8.855245875E0,-5.352066853E-1,-7.179837030E-1,7.763587958E-1,1.185191872E0
8.865216875E0,-7.607715806E-1,-3.873026079E-1,4.378693289E-1,9.594301731E-1
8.875187875E0,-2.667016654E-1,-3.123845726E-1,-2.854031807E-1,5.001688466E-1
8.885158875E0,-6.273905982E-1,-7.637624314E-1,1.081951243E-1,9.943129283E-1
8.895129875E0,-2.690692396E-1,-6.015673935E-1,7.091503143E-3,6.590385983E-1
8.905100875E0,-5.997562916E-1,-4.208053994E-1,-2.376647580E-1,7.702397878E-1
8.915071875E0,-7.196219467E-2,-2.878768453E-1,-7.476238239E-1,8.043587617E-1
8.925042875E0,-7.309092656E-2,-2.659582651E-1,-1.757766581E-1,3.270680599E-1
8.935012875E0,4.425499519E-1,-6.376555315E-1,3.046948993E-1,8.338429219E-1
8.944983875E0,9.582709372E-3,-4.142389762E-1,7.196641928E-1,8.304229694E-1
8.954954875E0,3.665489392E-1,-6.984636506E-1,5.527975219E-1,9.632210008E-1
8.964925875E0,3.141811296E-2,-1.094512816E0,5.528162330E-1,1.226601480E0
8.974896875E0,1.138317671E-1,-1.426476206E0,1.215800441E0,1.877754709E0
8.984867875E0,-5.726676398E-1,-1.575549507E0,1.583466929E0,2.306007804E0
8.994838875E0,-3.821379816E-1,-7.115593672E-1,8.858829921E-1,1.198805591E0
9.004809875E0,-4.836547085E-1,1.005554447E-1,6.149165869E-2,4.978097012E-1
9.014780875E0,-1.224670082E-1,1.606013793E-1,-2.451866162E-1,3.176593268E-1
9.024751875E0,-2.474120665E-1,-9.805897593E-2,-7.594983494E-1,8.047770102E-1
9.034721875E0,-3.648611404E-1,1.653987274E-1,-1.464518191E0,1.518319440E0
9.044692875E0,-3.212709152E-1,6.487974009E-1,-8.040786910E-1,1.081986881E0
9.054663875E0,-1.909053418E-1,1.183096379E-1,-3.301565999E-1,3.993061487E-1
9.064634875E0,-4.822582472E-1,-4.757087079E-1,-2.656185418E-1,7.276159712E-1
9.074605875E0,-3.179092047E-1,-4.039835447E-1,1.896088314E-1,5.479237865E-1
9.084576875E0,-2.650437605E-1,4.814840028E-1,-1.199146986E-2,5.497443363E-1
9.094547875E0,-5.603401012E-1,9.582723990E-1,-1.192048466E-1,1.116457261E0
9.104518875E0,-2.057155716E-1,1.640105984E-1,-2.117890745E-1,3.377469243E-1
9.114489875E0,-2.773935551E-1,7.576441973E-2,-9.260551178E-1,9.696728897E-1
9.124459875E0,-3.786699249E-1,4.107788864E-1,-8.991222578E-1,1.058560834E0
9.134430875E0,-9.224326216E-1,3.990420628E-1,-3.480900103E-1,1.063617960E0
9.144401875E0,-9.215015987E-1,3.369650978E-1,-4.723029971E-2,9.823142953E-1
9.154372875E0,-1.950022666E-1,-2.744723958E-1,5.932965070E-1,6.821742631E-1
9.164343875E0,1.105243626E-1,1.029475406E-1,1.018917089E0,1.030051389E0
9.174314875E0,2.755679447E-2,1.250732000E0,9.168884379E-1,1.551055872E0
9.184285875E0,-4.587366528E-1,5.671799183E-1,4.885757983E-1,8.779741949E-1
9.194256875E0,-4.832130975E-1,-1.977148265E-2,-3.931960166E-1,6.232887907E-1
9.204227875E0,-4.661193838E-1,-2.470863765E-1,-5.177516502E-1,7.391790911E-1
9.214198875E0,-4.299132783E-1,-6.615034005E-1,2.699647772E-1,8.338424052E-1
9.224168875E0,-2.373672809E-1,-6.879246292E-1,5.259313202E-1,8.978793209E-1
9.234139875E0,-2.215442768E-1,-6.451770973E-1,4.178233194E-1,7.999447979E-1
9.244110875E0,-3.579373793E-1,-7.065070805E-1,5.589844608E-1,9.693993242E-1
9.254081875E0,-4.201889567E-1,-7.390854272E-1,6.601348597E-1,1.076375428E0
9.264052875E0,-6.039691739E-1,-4.604998076E-1,4.106651580E-1,8.634145631E-1
9.274023875E0,-6.341812621E-1,-2.576549265E-1,1.508493930E-1,7.009475542E-1
9.283995208E0,-7.310273793E-1,-2.640532422E-1,-1.688020992E-1,7.953736812E-1
9.293966208E0,-7.005018438E-1,-2.140940470E-1,-2.409959167E-1,7.711148592E-1
9.303937208E0,-5.572021199E-1,-2.903785765E-1,-3.003878403E-1,6.964386367E-1
9.313908208E0,-1.713426413E-1,-4.737042823E-1,-6.594232535E-1,8.298150849E-1
9.323878208E0,-1.184469013E-1,-8.189665791E-1,-2.770059943E-2,8.279512361E-1
9.333849208E0,-3.743506232E-1,-8.548193666E-1,4.353678900E-1,1.029757126E0
9.343820208E0,-3.192556723E-1,-5.516157997E-1,7.578903651E-1,9.902534929E-1
9.353791208E0,-7.834543189E-1,-4.645320475E-2,9.181222004E-1,1.207852203E0
9.363762208E0,-6.968425101E-1,2.730839744E-1,1.356422469E0,1.549208267E0
9.373733208E0,-3.608421298E-1,2.207364839E-1,1.027610144E0,1.111266955E0
9.383704208E0,-1.884709998E-1,4.063607302E-1,-4.313876903E-1,6.218888166E-1
9.393675208E0,-1.008279980E-1,1.831444421E-1,-1.067904477E0,1.088176522E0
9.403646208E0,7.205739465E-2,-3.205706745E-2,-1.082257052E0,1.085126836E0
9.413617208E0,2.451626791E-1,-8.673224679E-1,-7.916375703E-1,1.199601203E0
9.423588208E0,4.893482886E-1,-1.101889079E0,-6.820133865E-1,1.385194408E0
9.433558208E0,4.554399926E-1,-8.599657935E-1,1.096580976E-1,9.792811911E-1
9.443529208E0,5.060281290E-1,-5.480489981E-1,8.046680903E-1,1.097229651E0
9.453500208E0,5.050209461E-1,-5.374751857E-1,4.098026937E-1,8.437203204E-1
9.463471208E0,3.518970228E-1,-8.621649313E-1,2.417420214E-1,9.620806039E-1
9.473442208E0,1.590203287E-1,-5.267955387E-1,-1.363161385E-2,5.504423906E-1
9.483413208E0,7.688518479E-2,-1.264276198E-1,-1.804573542E-1,2.333669457E-1
9.493384208E0,-1.765987035E-1,-3.810659677E-1,-3.290666789E-1,5.335571693E-1
9.503355208E0,-3.932958578E-1,-5.209524161E-1,-1.691622877E-1,6.743062591E-1
9.513326208E0,-2.718889497E-1,-7.173583433E-1,-3.945209956E-1,8.626548613E-1
9.523297208E0,1.465069583E-1,-5.284912312E-1,-1.288018817E-1,5.633446503E-1
9.533267208E0,5.086377414E-1,2.526947334E-1,5.457720923E-1,7.876764291E-1
9.543238208E0,7.233654072E-1,3.506274095E-1,5.822873694E-1,9.926004600E-1
9.553209208E0,7.611539154E-1,6.258426940E-1,7.630534565E-1,1.246308524E0
9.563180208E0,8.259463274E-1,1.077018239E0,4.477177942E-1,1.429197973E0
9.573151208E0,9.874024234E-1,7.322319058E-1,-1.680402070E-1,1.240711337E0
9.583122208E0,8.605975121E-1,7.740406671E-1,-6.210526550E-1,1.313572774E0
9.593093208E0,9.921580370E-1,5.482252917E-1,-4.539801621E-1,1.221075972E0
9.603064208E0,8.189896756E-1,5.533711338E-1,3.056555969E-1,1.034596078E0
9.613035208E0,5.406088547E-1,1.419497261E0,2.475477219E-2,1.519158717E0
9.623006208E0,5.927478920E-1,1.276789239E0,1.756871957E-1,1.418593252E0
9.632976208E0,1.223964762E-1,1.100025571E0,2.564618021E-1,1.136138112E0
9.642947208E0,-4.564191089E-1,3.917733890E-1,3.759993553E-1,7.093520328E-1
9.652918208E0,-4.423993130E-1,1.068002710E-1,-3.896876872E-1,5.991493500E-1
9.662889208E0,-2.865857801E-1,-3.090624771E-1,-4.404210538E-1,6.096078483E-1
9.672860208E0,-9.321009926E-2,-5.029485467E-1,-3.546599418E-1,6.224379789E-1
9.682831208E0,-1.672669128E-2,-1.210193838E0,1.538460910E-2,1.210407202E0
9.692802208E0,4.059860699E-2,-1.852988195E0,-1.746528232E-1,1.861643657E0
9.702773208E0,8.173420765E-2,-1.280156943E0,4.822958887E-2,1.283669885E0
9.712744208E0,3.613342461E-1,-9.854265761E-1,4.915613866E-1,1.158991187E0
9.722715208E0,-1.400332866E-1,-9.499681833E-1,1.180179788E0,1.521470737E0
9.732686208E0,-6.325459421E-2,-1.165388379E0,1.690238256E0,2.054029352E0
9.742656208E0,4.365414262E-2,-2.541682318E-1,1.602163986E0,1.622786681E0
9.752627208E0,3.009551664E-1,6.305877095E-1,1.007101035E-1,7.059443296E-1
9.762598208E0,-2.778015080E-1,7.457983232E-1,-1.495067554E0,1.693698853E0
9.772569208E0,-2.452914275E-1,-1.975651377E-1,-1.610197476E0,1.640711973E0
9.782540208E0,-5.843927325E-1,-9.723346603E-1,-1.225886303E0,1.670253509E0
9.792511208E0,-4.662055937E-1,-6.805074361E-1,-7.821498781E-1,1.136748195E0
9.802482208E0,-5.680379972E-1,-2.779968050E-1,5.498838544E-2,6.348016323E-1
9.812453208E0,-5.969861001E-1,-5.951565063E-1,1.715048577E0,1.911019438E0
9.822424208E0,-2.596603753E-1,-1.623771787E-2,1.525509328E0,1.547535422E0
9.832395208E0,-4.430778824E-2,-1.288191310E-1,1.242685354E0,1.250129768E0
9.842366208E0,1.939286081E-1,1.278350446E-1,9.665833390E-1,9.940993184E-1
9.852336208E0,3.906409295E-1,-6.286195368E-2,1.569451153E-1,4.256568221E-1
9.862307208E0,1.392117528E-1,-7.037319919E-1,-7.077616006E-1,1.007742582E0
9.872278208E0,5.496599060E-1,-1.083893688E0,-7.961030889E-1,1.452835733E0
9.882249208E0,2.734138305E-1,-5.720445094E-1,-5.939864784E-1,8.687980087E-1
9.892220208E0,2.879003803E-1,-6.558731166E-1,-1.632595235E-1,7.346494715E-1
9.902191208E0,7.421071221E-1,-6.238590261E-1,-1.524246329E-1,9.814052852E-1
9.912162208E0,4.194633172E-1,-4.195365536E-1,5.955646420E-1,8.406293101E-1
9.922133208E0,2.341293121E-1,-1.306580803E-1,5.839906633E-1,6.425987578E-1
9.932104208E0,1.202318370E-1,6.228094509E-1,6.748903084E-1,9.261880128E-1
9.942075208E0,-3.054754295E-1,6.831372213E-1,1.810414910E-1,7.699141009E-1
9.952046208E0,-2.610153944E-1,7.052648395E-2,-4.165088654E-1,4.965708972E-1
9.962016208E0,-6.291470287E-1,-2.237095007E-1,-5.296127272E-1,8.522684819E-1
9.971987208E0,-4.390221805E-1,-2.654311386E-1,-8.395063859E-1,9.838521923E-1
9.981958208E0,-5.380944058E-1,4.986257002E-1,-6.996784097E-1,1.013766766E0
9.991929208E0,-4.486094946E-1,1.290657665E0,-4.058511454E-1,1.425399186E0
1.000190021E1,-8.054124409E-1,1.890001947E0,-6.123578453E-1,2.143776735E0
1.001187121E1,-4.481494649E-1,1.849074946E0,-2.381009603E-1,1.917448348E0
1.002184221E1,-2.159123117E-1,1.759067586E0,-5.896034056E-1,1.867771152E0
1.003181321E1,2.649898931E-1,1.704725610E0,-8.799726266E-1,1.936662302E0
1.004178421E1,5.504058646E-1,1.068396520E0,-4.907696736E-1,1.298180500E0
1.005175521E1,5.772749168E-1,1.999013928E-1,4.027679086E-1,7.317300627E-1
1.006172621E1,1.630872499E-1,-1.051741018E0,4.984938455E-1,1.175267091E0
1.007169721E1,4.991075838E-1,-1.231045886E0,7.868305743E-2,1.330704091E0
1.008166721E1,1.967964482E-1,-1.108356099E0,5.807442892E-1,1.266667286E0
1.009163821E1,7.539085574E-2,-1.358792346E0,1.202451832E0,1.816009589E0
1.010160921E1,9.460707217E-2,-1.548805220E0,7.026283300E-1,1.703359820E0
1.011158021E1,5.289861980E-1,-1.083055197E0,4.073918867E-1,1.272321935E0
1.012155121E1,6.633104094E-1,-7.612522218E-1,3.149286962E-1,1.057669952E0
1.013152221E1,3.457602603E-1,-7.254704779E-1,5.074500257E-1,9.504541549E-1
1.014149321E1,6.052416377E-2,-5.097687390E-1,-8.186686635E-2,5.198360564E-1
1.015146421E1,-2.844266226E-1,-7.518121845E-1,-2.049501711E-1,8.295327823E-1
1.016143521E1,-4.159983303E-1,-8.703147805E-1,5.730388284E-2,9.663261162E-1
1.017140621E1,-6.892550169E-1,-1.072161542E0,-9.708482981E-2,1.278291170E0
1.018137721E1,-7.948984893E-1,-5.807556912E-1,2.352130204E-1,1.012159052E0
1.019134721E1,-6.072318837E-1,-2.279911244E-1,-4.192044318E-2,6.499752587E-1
1.020131821E1,-4.998015752E-1,-6.246720815E-1,4.508121407E-1,9.182855820E-1
1.021128921E1,-2.309810250E-1,-5.071737447E-1,4.023176730E-1,6.873404915E-1
1.022126021E1,5.556172686E-1,-2.442993012E-1,-7.325099409E-2,6.113578378E-1
1.023123121E1,5.149099034E-1,-1.563457757E-1,5.949962926E-1,8.022448494E-1
1.024120221E1,6.930353880E-1,1.693061292E-2,8.263425493E-1,1.078622595E0
1.025117321E1,4.990974243E-1,-2.179806912E-1,5.143070555E-1,7.490831516E-1
1.026114421E1,5.831108035E-1,-4.292610580E-1,8.123010457E-2,7.286162193E-1
1.027111521E1,5.294395765E-1,-4.391475302E-1,5.181299651E-1,8.611709930E-1
1.028108621E1,2.937725928E-1,-5.252860799E-1,-1.175173402E-2,6.019683591E-1
1.029105750E1,3.265582234E-2,-2.638222772E-1,-5.913242412E-1,6.483308992E-1
1.030102850E1,-1.462837408E-1,-6.991661936E-1,7.278380156E-2,7.180040257E-1
1.031099850E1,-4.857524702E-1,-2.930285347E-1,2.059974074E-3,5.672965961E-1
1.032096950E1,-3.500882962E-1,1.316249174E-1,-4.741536409E-1,6.039110938E-1
1.033094050E1,-7.138299141E-1,-1.227511829E-1,-3.147415853E-1,7.897361994E-1
1.034091150E1,-4.241164584E-1,-1.056214723E-1,2.520687890E-1,5.045486498E-1
1.035088250E1,-7.225326175E-1,3.721583194E-1,-2.160382462E-1,8.409683239E-1
1.036085350E1,-3.610378654E-1,-1.484733769E-1,-1.014677857E0,1.087181603E0
1.037082450E1,-3.796586160E-1,-1.243559512E-1,-1.011788748E0,1.087805836E0
1.038079550E1,-3.073932432E-2,1.475688127E-1,-6.912578344E-3,1.508948119E-1
1.039076650E1,3.233091449E-1,4.434133664E-1,4.622399390E-2,5.507094282E-1
1.040073750E1,9.369372247E-1,8.206321585E-1,-3.242626065E-1,1.287025540E0
1.041070850E1,1.336150319E0,4.555521861E-1,2.614757895E-2,1.411916840E0
1.042067950E1,1.453436986E0,4.765004209E-1,-1.008001506E-1,1.532870638E0
1.043065050E1,1.261668193E0,5.112469152E-1,5.453288734E-2,1.362407382E0
1.044062050E1,1.259760978E0,2.815355399E-1,-3.726489007E-2,1.291374714E0
1.045059150E1,1.038908938E0,7.691348532E-1,1.069493750E0,1.677711860E0
1.046056250E1,5.982053907E-1,6.452972576E-1,1.052923325E0,1.372190136E0
1.047053350E1,5.028608385E-1,2.411157846E-1,7.831175923E-1,9.613943041E-1
1.048050450E1,3.406913821E-1,1.175475995E0,-7.517472804E-2,1.226158910E0
1.049047550E1,4.824534711E-1,6.235128710E-1,-4.993095320E-1,9.331879022E-1
1.050044650E1,1.853527162E-1,-1.790092912E-1,-4.352825207E-1,5.058367608E-1
1.051041750E1,1.019673280E-1,-2.849585000E-1,-1.011912709E0,1.056203585E0
1.052038850E1,-4.463317848E-1,-5.365472326E-1,2.973162979E-1,7.586118743E-1
1.053035950E1,-6.163981251E-1,-8.435599682E-1,7.206628972E-1,1.269210416E0
1.054033050E1,-7.818130785E-1,-1.258762566E0,2.441516590E-1,1.501773924E0
1.055030150E1,-1.515509127E-1,-8.089117071E-1,3.959056163E-1,9.132617840E-1
1.056027150E1,2.281551388E-1,-8.493522200E-1,1.149202994E0,1.447107972E0
1.057024250E1,4.951205137E-1,-8.996540621E-1,7.756109369E-1,1.286893189E0
1.058021350E1,2.052918678E-1,-6.608333096E-1,6.561552447E-1,9.536168618E-1
1.059018450E1,5.011618569E-1,7.809833586E-2,-2.819796360E-1,5.803232478E-1
1.060015550E1,1.386849187E-1,-9.335401386E-2,-1.975429183E-1,2.587888776E-1
1.061012650E1,2.574731512E-1,-2.105123350E-1,-2.139145374E-1,3.954330488E-1
1.062009750E1,-3.651145441E-1,-1.109740135E-1,-7.786099738E-1,8.670970841E-1
1.063006850E1,-3.849580937E-1,-3.746658978E-1,-1.069548129E0,1.196871116E0
1.064003950E1,-3.152127977E-1,-6.546542645E-3,-4.703856951E-1,5.662726086E-1
1.065001050E1,-1.063428725E-1,6.217198223E-2,4.374834126E-1,4.544952126E-1
1.065998150E1,-5.475393402E-1,-8.398852855E-2,1.359027988E0,1.467586616E0
1.066995250E1,-1.050178204E-1,3.298695016E-1,1.307077231E0,1.352144045E0
1.067992350E1,-1.647143839E-1,2.501064634E-1,9.749413490E-1,1.019899360E0
1.068989350E1,2.807018001E-1,2.570924243E-1,4.396843046E-1,5.815602315E-1
1.069986450E1,2.100809567E-1,-3.948148182E-1,-1.088634610E-1,4.602868694E-1
1.070983550E1,7.601218819E-1,-6.524349537E-1,-4.055359805E-1,1.080701659E0
1.071980650E1,3.404701747E-1,1.916690978E-1,-6.006248224E-1,7.165243612E-1
1.072977750E1,4.141376001E-1,-9.063768983E-3,-2.276572484E-1,4.726731709E-1
1.073974850E1,1.283439716E-1,-7.093409336E-1,-5.057022929E-2,7.226299767E-1
1.074971950E1,1.647950023E-1,-3.439668462E-1,-4.538316429E-2,3.840966228E-1
1.075969050E1,-1.391458620E-1,1.387187594E-1,3.097884089E-1,3.668423686E-1
1.076966150E1,2.579507956E-1,4.117404610E-2,1.170513171E-1,2.862427743E-1
1.077963250E1,2.655591926E-1,-5.188789934E-2,-7.612396502E-1,8.078984119E-1
1.078960350E1,4.753029842E-1,-9.164262155E-1,-3.591231215E-1,1.093032182E0
1.079957450E1,-1.872105959E-1,-6.842642722E-1,-2.634989262E-2,7.099012031E-1
1.080954550E1,-1.937192778E-1,-3.296595865E-1,1.807000136E-1,4.229126346E-1
1.081951550E1,-5.041075379E-1,3.139639056E-1,3.767910683E-1,7.033272730E-1
1.082948650E1,-4.003111278E-1,6.170788872E-1,2.277081192E-2,7.359034325E-1
1.083945750E1,-5.846666014E-1,6.109244004E-1,-5.552352262E-1,1.011607540E0
1.084942850E1,-3.741340935E-1,1.777174951E0,-8.881862104E-1,2.021682930E0
1.085939950E1,2.861883156E-2,1.444095036E0,-5.059467065E-1,1.530428561E0
1.086937050E1,1.517650670E-1,1.607620023E0,-3.187200308E-1,1.645921393E0
1.087934150E1,-3.724081416E-1,1.556074478E0,-1.486789066E-1,1.606910397E0
1.088931250E1,-6.418306627E-1,1.810119334E0,-2.574008650E-1,1.937713551E0
1.089928350E1,-5.239409280E-1,9.174424616E-1,8.982375741E-2,1.060322156E0
1.090925450E1,-3.400307930E-1,6.749581361E-1,1.413815814E-1,7.688811203E-1
1.091922550E1,8.202547207E-3,4.071240842E-2,9.946534824E-1,9.955201314E-1
1.092919650E1,2.391650073E-1,-8.119578141E-1,6.945679432E-1,1.094942930E0
1.093916750E1,1.482161725E-1,-1.739677342E0,-4.353485942E-2,1.746522422E0
1.094913850E1,4.733761805E-1,-1.839815588E0,4.559740627E-1,1.953693617E0
1.095910950E1,8.771151654E-1,-2.037657591E0,4.588602483E-2,2.218892742E0
1.096907950E1,4.413793393E-1,-2.312261257E0,7.318375111E-3,2.354022387E0
1.097905050E1,4.462388141E-1,-1.406405638E0,6.359460980E-1,1.606715076E0
1.098902150E1,1.086793468E-1,-1.353383963E0,4.684040737E-1,1.436266594E0
1.099899250E1,-3.211607317E-1,-1.182618662E0,1.730658889E-1,1.237611779E0
1.100896350E1,7.245884255E-2,-1.022428926E0,7.208289582E-1,1.253078441E0
1.101893450E1,-3.572339592E-1,-8.751779097E-1,3.739586771E-1,1.016561640E0
1.102890550E1,-2.646639108E-1,-6.560584733E-1,2.691204393E-1,7.568920114E-1
1.103887650E1,-3.073005648E-1,-2.333077052E-1,7.055016518E-2,3.922288213E-1
1.104884750E1,-3.629275393E-1,1.537420106E-1,1.269962615E-1,4.141027107E-1
1.105881850E1,-5.507331625E-1,7.575471336E-1,-5.826048732E-2,9.383916880E-1
1.106878950E1,-4.496084914E-2,4.789243841E-1,3.382076311E-1,5.880258884E-1
1.107876050E1,4.762883862E-1,5.620253053E-1,3.293900299E-1,8.069825664E-1
1.108873150E1,7.113615120E-1,2.050197530E-1,3.862618035E-1,8.350248384E-1
1.109870250E1,7.636081380E-1,6.402554959E-2,5.645118338E-1,9.517721734E-1
1.110867250E1,5.992391784E-1,-2.972508091E-1,1.091559972E0,1.280214361E0
1.111864350E1,3.583503389E-1,-6.989556938E-2,6.971138209E-1,7.869358521E-1
1.112861450E1,5.942766465E-1,-2.921280634E-1,4.151347697E-1,7.815628030E-1
1.113858550E1,1.045941750E0,-5.538406652E-1,5.260564506E-2,1.184694467E0
1.114855650E1,3.885693341E-1,-9.994142854E-1,-4.452900302E-1,1.161076334E0
1.115852750E1,-4.858283378E-2,-1.296493771E0,-7.478033334E-1,1.497486633E0
1.116849850E1,-2.572889639E-1,-3.303720698E-1,-4.472628808E-1,6.126886648E-1
1.117846950E1,-3.593089168E-1,-2.541366568E-1,-7.172954857E-2,4.459074637E-1
1.118844050E1,-6.323388045E-1,-9.932168216E-2,1.875014949E-1,6.669887336E-1
1.119841150E1,-6.726709246E-1,5.433919832E-1,6.007499528E-1,1.052929972E0
1.120838250E1,-4.012988687E-1,3.423661709E-1,-4.853656769E-1,7.168230028E-1
1.121835350E1,-4.537914433E-2,4.779134005E-1,-9.682585663E-1,1.080733610E0
1.122832450E1,2.322841501E-1,3.324756056E-1,-8.912343639E-1,9.791805993E-1
1.123829550E1,2.628293469E-1,2.846424580E-3,-9.687433004E-1,1.003768375E0
1.124826550E1,1.873914210E-1,2.662368849E-1,-4.963432395E-1,5.935943354E-1
1.125823650E1,2.059976267E-1,5.233833960E-1,2.073861212E-1,5.994782770E-1
1.126820750E1,1.680646922E-1,-7.967328340E-2,2.555636698E-1,3.160796770E-1
1.127817850E1,5.980465657E-1,7.083337507E-1,-1.978697777E-1,9.479181642E-1
1.128814921E1,5.333086791E-1,7.528407097E-2,9.175626218E-1,1.063958178E0
1.129812021E1,4.098899634E-1,-3.069788218E-5,5.244326788E-1,6.656120624E-1
1.130809121E1,5.561986280E-1,6.806919158E-2,4.017540014E-1,6.894901060E-1
1.131806221E1,7.829536510E-1,4.584319398E-1,3.142293692E-2,9.078346017E-1
1.132803321E1,4.599585747E-1,1.402539459E-1,1.091031969E-1,4.930888027E-1
1.133800421E1,2.095574116E-1,-1.063050118E-1,9.525757492E-2,2.535528936E-1
1.134797521E1,-1.096489614E-1,-4.459724003E-1,5.229182500E-1,6.959581688E-1
1.135794621E1,-7.158439875E-1,-7.581295162E-2,-2.653992712E-2,7.203364394E-1
1.136791721E1,-6.334872707E-1,-1.243705693E-1,-8.933726907E-2,6.517325435E-1
1.137788821E1,-6.023547211E-1,-6.126738873E-1,5.766494840E-1,1.034758489E0
1.138785921E1,-9.943638991E-1,-2.426395690E-1,6.486614531E-1,1.211773578E0
1.139782921E1,-6.891871892E-1,-3.562766969E-1,5.468748772E-1,9.492018741E-1
1.140780021E1,-8.783343829E-1,-1.361290276E-1,7.966883951E-1,1.193614175E0
1.141777121E1,-2.332328243E-1,4.186606407E-3,3.901654047E-1,4.545812590E-1
1.142774221E1,-4.419208646E-1,-1.907718426E-1,1.559317929E-1,5.059670646E-1
1.143771321E1,-4.064158402E-2,2.174792925E-1,-5.782603920E-1,6.191397757E-1
1.144768421E1,7.515155844E-2,2.585741088E-1,-2.985120535E-1,4.020171297E-1
1.145765521E1,2.507655177E-1,9.048566222E-3,-5.518993896E-1,6.062657484E-1
1.146762621E1,-1.591134456E-1,-7.381671220E-2,-3.395858198E-1,3.822100530E-1
1.147759721E1,-3.825010937E-2,-5.156071839E-1,1.724203563E-1,5.450161632E-1
1.148756821E1,-9.062409505E-2,-1.907966933E-1,4.926092076E-1,5.359850149E-1
1.149753921E1,-7.098340731E-2,-1.529234004E-1,4.160796797E-1,4.489393170E-1
1.150751021E1,-4.957333750E-1,-6.300857261E-1,2.894827831E-1,8.523848209E-1
1.151748121E1,-6.110881955E-1,-1.615118492E0,4.509302545E-1,1.784761783E0
1.152745221E1,-7.699157488E-1,-1.312220735E0,7.140151978E-2,1.523086240E0
1.153742321E1,-5.164245881E-1,-7.982887781E-1,-1.037851542E-1,9.564155408E-1
1.154739321E1,-1.240969927E-1,-7.641924942E-1,4.373729002E-1,8.892048614E-1
1.155736421E1,5.176974904E-2,-1.028415013E0,6.710469335E-1,1.229073445E0
1.156733521E1,-2.476549817E-1,-1.079719068E0,4.455724508E-1,1.194010496E0
1.157730621E1,-1.536894587E-1,-5.176478621E-1,-2.268544257E-1,5.856984628E-1
1.158727721E1,-3.655256399E-1,-3.519988739E-1,-3.649147886E-1,6.250400016E-1
1.159724821E1,1.137190620E-1,-6.018214551E-1,1.643412584E-1,6.341365295E-1
1.160721921E1,-9.037189733E-2,-7.568846440E-1,1.028016526E-1,7.691616371E-1
1.161719021E1,-5.032417480E-1,5.008958817E-2,-6.593934327E-1,8.309999536E-1
1.162716121E1,-5.892110574E-1,3.440832058E-1,-5.009251177E-1,8.464566712E-1
1.163713221E1,-2.158501851E-1,-4.906194001E-2,7.645877659E-2,2.341886438E-1
1.164710321E1,-1.927654142E-1,4.573458195E-2,-5.303424597E-4,1.981172334E-1
1.165707421E1,-3.770453491E-1,5.652310413E-1,-8.105410337E-2,6.842653674E-1
1.166704521E1,-4.246220233E-1,1.101671270E0,-7.237052035E-1,1.384822253E0
1.167701621E1,-6.001353373E-1,1.474857822E0,-4.404672468E-1,1.652083356E0
1.168698721E1,-5.121177848E-1,1.243043496E0,-6.988469356E-1,1.515192660E0
1.169695721E1,-7.660244268E-1,1.818598089E0,-1.571128719E0,2.522407161E0
1.170692821E1,-9.277149962E-1,2.248646767E0,-1.189265192E0,2.707659338E0
1.171689921E1,-7.674097053E-1,1.570011901E0,4.714726925E-2,1.748164149E0
1.172687021E1,-6.813440265E-1,2.346318072E0,-4.054026639E-1,2.476648844E0
1.173684121E1,-4.141476135E-1,1.865700627E0,-6.734805447E-1,2.026310223E0
1.174681221E1,6.328635190E-2,9.924201384E-1,7.097233415E-2,9.969653784E-1
1.175678321E1,9.979037303E-2,6.171537316E-1,6.308865023E-1,8.881748846E-1
1.176675421E1,2.899125900E-1,-1.087918034E0,1.583927105E0,1.943306469E0
1.177672521E1,9.305576932E-2,-1.822045315E0,2.292324883E0,2.929720443E0
1.178669621E1,1.691760652E-1,-1.252105803E0,1.547144026E0,1.997509479E0
1.179666721E1,3.160895146E-1,-1.330311143E0,9.822123617E-1,1.683562129E0
1.180663821E1,8.641233831E-1,-2.284423248E0,1.003031373E-2,2.442416714E0
1.181660921E1,5.517759403E-1,-2.040720655E0,-8.039839661E-1,2.261722286E0
1.182658021E1,3.591964310E-1,-2.136918462E0,-1.464260913E0,2.615244274E0
1.183655121E1,9.611857742E-2,-1.671185397E0,-3.351998234E-1,1.707178471E0
1.184652221E1,-1.966204470E-1,-1.772505657E0,6.937323761E-1,1.913557032E0
1.185649221E1,-5.049028324E-1,-1.492808189E0,9.414292020E-1,1.835672112E0
1.186646321E1,-7.232786492E-1,-7.723695329E-1,6.081221223E-1,1.220450415E0
1.187643421E1,-9.406138077E-1,-1.125959142E0,4.920127916E-1,1.547454333E0
1.188640521E1,-8.665952204E-1,-1.288940046E0,3.953372669E-1,1.602699370E0
1.189637621E1,-8.288227189E-1,-5.108390719E-1,-1.621269178E-1,9.870100274E-1
1.190634721E1,-3.801948787E-1,3.184580755E-1,-2.271181351E-1,5.454780829E-1
1.191631821E1,3.706275183E-1,5.654456341E-1,-4.091998458E-2,6.773241230E-1
1.192628921E1,6.635153543E-1,1.957063079E-1,2.033994895E-1,7.210582062E-1
1.193626021E1,1.420595076E0,-1.395294759E-1,3.772506595E-1,1.476440620E0
1.194623121E1,1.563018485E0,-1.718332958E-1,-9.139256537E-2,1.575089225E0
1.195620221E1,1.610632362E0,2.620137334E-3,5.251442850E-1,1.694083821E0
1.196617321E1,1.274405037E0,5.363212377E-2,1.098509973E0,1.683362339E0
1.197614421E1,1.219053978E0,3.537451449E-1,8.825518334E-1,1.546003224E0
1.198611521E1,1.056400372E-1,1.571509373E-1,8.238089508E-1,8.452913237E-1
1.199608621E1,4.668460831E-2,-1.499126691E-1,3.153771776E-1,3.523010434E-1
1.200605721E1,1.631964467E-1,-4.645621607E-1,-1.959156382E-1,5.299377498E-1
1.201602721E1,6.973974109E-2,-8.051975557E-1,-5.784697223E-1,9.938983624E-1
1.202599821E1,-3.900981617E-1,-3.779195809E-1,-6.086010092E-1,8.157174596E-1
1.203596921E1,-6.171383096E-1,2.397305793E-1,-8.527462363E-1,1.079586304E0
1.204594021E1,-5.257715450E-1,7.871492475E-2,-3.769466043E-1,6.517058381E-1
1.205591121E1,-3.911747072E-1,-3.327334678E-1,1.576000035E-1,5.371843010E-1
1.206588221E1,-4.458856422E-1,-2.507476106E-1,-4.045729440E-1,6.522021445E-1
1.207585321E1,-2.641139071E-1,-2.467308658E-1,-3.460908473E-1,5.004109817E-1
1.208582421E1,2.039244233E-1,-6.231903970E-2,-1.545144278E-1,2.633316189E-1
1.209579521E1,3.881861953E-1,-2.582276613E-2,-4.697173584E-1,6.099096115E-1
1.210576621E1,8.247361730E-1,-4.589011788E-2,-2.913392740E-1,8.758848272E-1
1.211573721E1,1.369081399E0,5.266177833E-1,3.239404249E-1,1.502214221E0
1.212570821E1,1.322662839E0,6.123511210E-1,5.553287816E-1,1.559743869E0
1.213567921E1,1.366359958E0,1.080812205E0,2.560150748E-1,1.760862935E0
1.214565021E1,1.035923715E0,9.077164954E-1,1.118560660E-1,1.381882397E0
1.215562121E1,6.327200429E-1,9.071867377E-1,7.729902148E-2,1.108736925E0
1.216559121E1,5.838791277E-1,1.091989450E0,-3.091773748E-1,1.276301862E0
1.217556221E1,5.919617338E-1,4.852969721E-1,-1.516340894E-1,7.803363009E-1
1.218553321E1,3.874933733E-1,8.879669398E-2,-1.245942253E-1,4.166049546E-1
1.219550421E1,-1.056981439E-1,-2.556361753E-1,-3.518936241E-1,4.476059365E-1
1.220547521E1,-2.114687933E-1,-3.065490514E-1,2.695350069E-1,4.597178389E-1
1.221544621E1,-5.243981802E-1,-6.145906046E-1,9.679328763E-1,1.260797016E0
1.222541721E1,-5.157548261E-1,-7.285566384E-1,8.273786759E-1,1.217108577E0
1.223538821E1,-5.320730162E-1,-5.854711783E-1,4.502987552E-1,9.103005900E-1
1.224535921E1,-9.094587464E-1,-8.542945790E-1,9.473775744E-2,1.251363129E0
1.225533021E1,-8.159913696E-1,-8.955165723E-1,3.229820663E-1,1.253837813E0
1.226530121E1,-7.857367064E-1,-3.743293905E-1,1.982141787E-1,8.926329173E-1
1.227527221E1,-4.669916788E-1,-4.989663005E-1,5.572934461E-1,8.818302456E-1
1.228524271E1,-1.715489750E-1,-6.158480483E-1,4.879466379E-1,8.042324234E-1
1.229521371E1,-4.176683682E-1,1.827898085E-1,2.832607609E-1,5.367454132E-1
1.230518471E1,4.958000332E-3,3.369305992E-1,1.334784847E-1,3.624407763E-1
1.231515571E1,-1.706507695E-1,1.386985865E-1,2.393499255E-2,2.212054857E-1
1.232512571E1,-6.439253546E-2,-2.069662911E-1,-1.502097076E-1,2.637127235E-1
1.233509671E1,-5.999562298E-1,-5.242344582E-1,-1.275792289E-1,8.068740326E-1
1.234506771E1,-1.094004181E0,-1.810028994E-1,-5.988525313E-1,1.260250591E0
1.235503871E1,-1.503189628E0,-8.084187868E-1,-2.832666081E-1,1.730132933E0
1.236500971E1,-1.049176722E0,-9.305829093E-1,-1.677735740E-1,1.412410817E0
1.237498071E1,-9.227538530E-1,-5.200879052E-1,7.710489392E-2,1.062031669E0
1.238495171E1,-3.747363202E-1,-5.521946740E-1,1.215978196E0,1.387064974E0
1.239492271E1,-4.761590166E-1,-1.921491542E-1,5.959248304E-1,7.866225970E-1
1.240489371E1,2.209362029E-1,-2.410043952E-1,-4.110253465E-1,5.252025892E-1
1.241486471E1,-9.877701402E-2,-9.894947764E-1,-3.959354371E-1,1.070337181E0
1.242483571E1,-2.163268793E-2,-1.342640289E0,-1.210981750E-1,1.348263953E0
1.243480671E1,-4.171331653E-1,-9.435017475E-1,-2.601268369E-1,1.063889842E0
1.244477771E1,2.954911992E-1,-5.768210998E-1,-2.571839333E-1,6.972669543E-1
1.245474871E1,1.120435058E-1,-8.024631053E-2,9.980086148E-2,1.701570730E-1
1.246471971E1,-1.452002518E-1,-6.323728645E-1,4.443299174E-3,6.488438146E-1
1.247469071E1,2.468481756E-1,-3.509940299E-1,-6.153446031E-1,7.501865177E-1
1.248466071E1,7.090010642E-1,-2.080731690E-1,2.624762481E-1,7.841369354E-1
1.249463171E1,-1.500493843E-1,-4.374886751E-2,7.788204736E-1,7.943488599E-1
1.250460271E1,-3.568622956E-1,5.576302457E-1,2.355860728E-1,7.027111687E-1
1.251457371E1,-8.019503776E-1,4.281038940E-1,-3.066203874E-1,9.593817875E-1
1.252454471E1,-6.844626389E-1,7.959662640E-1,-5.318966496E-1,1.176845548E0
1.253451571E1,-1.197633800E0,7.223194134E-1,-5.594522381E-1,1.506339557E0
1.254448671E1,-7.222444229E-1,5.746389189E-1,-4.878811491E-1,1.043970742E0
1.255445771E1,-5.206061513E-1,7.088868973E-1,-4.738443232E-1,9.990394589E-1
1.256442871E1,-1.974941672E-1,1.367472830E0,-1.388421357E-1,1.388619107E0
1.257439971E1,2.283688545E-2,1.139958546E0,7.156512487E-1,1.346173733E0
1.258437071E1,5.740495927E-1,8.793504828E-1,7.754004371E-1,1.305387316E0
1.259434171E1,5.124068566E-1,7.381057262E-2,2.093414301E-1,5.584197540E-1
1.260431271E1,2.187719657E-1,-4.046764398E-1,-2.064347792E-1,5.042216892E-1
1.261428371E1,-1.711041115E-1,-1.474918048E0,-1.334030557E-1,1.490790475E0
1.262425471E1,6.639367193E-3,-1.321333620E0,1.397379291E-1,1.328718671E0
1.263422471E1,-2.813887017E-1,-8.454749313E-1,5.718518436E-2,8.929040297E-1
1.264419571E1,-7.569421660E-2,-1.050039771E0,9.395773888E-1,1.411070092E0
1.265416671E1,-1.018068584E-1,-9.938740486E-1,4.234582812E-1,1.085111596E0
1.266413771E1,-1.456139423E-3,-8.565884417E-1,9.353790879E-2,8.616816229E-1
1.267410871E1,-2.370766377E-1,-7.172867149E-1,1.865261793E-3,7.554528726E-1
1.268407971E1,-1.964894693E-1,-5.714437079E-1,4.479926133E-1,7.522322809E-1
1.269405071E1,-4.492178243E-2,-5.335555047E-1,4.869865251E-1,7.237785011E-1
1.270402171E1,9.064960353E-2,-5.042966223E-1,5.904939365E-1,7.818027392E-1
1.271399271E1,-2.363762509E-1,-1.420870480E-1,-7.907365143E-2,2.869060884E-1
1.272396371E1,-5.174718609E-1,2.320914844E-1,-2.448971790E-1,6.177525494E-1
1.273393471E1,-3.015896624E-1,6.499446246E-1,-1.793838054E-1,7.386222912E-1
1.274390571E1,1.824747898E-1,8.411015064E-2,-7.386430854E-1,7.654836209E-1
1.275387671E1,3.193712644E-1,-2.049156725E-1,-5.529741079E-1,6.706480458E-1
1.276384771E1,4.148217244E-1,2.917795694E-1,-4.602840453E-1,6.848896134E-1
1.277381871E1,2.838465788E-1,2.192299488E-1,1.601692700E-1,3.927910969E-1
1.278378971E1,3.103257680E-1,-4.992995918E-2,3.281094897E-1,4.543687053E-1
1.279376071E1,4.512145753E-1,-2.767039856E-1,2.690058339E-1,5.937371702E-1
1.280373071E1,1.840791196E-1,-5.835848665E-1,4.065586585E-1,7.346743234E-1
1.281370171E1,2.704996513E-1,-7.472095487E-1,7.206283987E-1,1.072752283E0
1.282367271E1,1.127544176E-1,-2.468048331E-1,-1.674233258E-2,2.718574811E-1
1.283364371E1,-2.039758057E-1,-4.856916592E-1,-2.690479338E-1,5.915144189E-1
1.284361471E1,1.670889381E-1,-5.156741345E-1,-1.814852947E-1,5.716427542E-1
1.285358571E1,1.814463376E-1,-9.732441947E-1,7.198577356E-1,1.224059719E0
1.286355671E1,8.832431205E-2,-7.823001516E-1,6.894925600E-1,1.046515505E0
1.287352771E1,2.230727389E-2,-3.518056235E-1,9.394054806E-1,1.003368062E0
1.288349871E1,6.602792859E-2,-1.558318055E-1,6.460079867E-1,6.678095221E-1
1.289346971E1,2.535149516E-1,6.722251475E-1,1.728834558E-1,7.389486916E-1
1.290344071E1,4.155776963E-1,-3.639891744E-2,-2.517816907E-1,4.872614520E-1
1.291341171E1,4.868770359E-1,-5.727713183E-1,-6.433170980E-1,9.894307049E-1
1.292338271E1,4.680242240E-1,-5.076149172E-1,-8.981814408E-1,1.132894293E0
1.293335371E1,1.079521286E0,1.633893317E-1,-1.345569452E0,1.732806807E0
1.294332471E1,1.129666496E0,-1.243328547E-1,-1.754790348E-1,1.149955626E0
1.295329571E1,9.779058874E-1,1.386789984E-1,1.042749170E0,1.436265164E0
1.296326571E1,7.689268385E-1,4.279737934E-1,8.146867096E-1,1.199218281E0
1.297323671E1,8.494677025E-1,9.763815182E-1,6.854252368E-1,1.464487624E0
1.298320771E1,5.619351851E-1,9.758368501E-1,6.372090966E-1,1.293856307E0
1.299317871E1,6.296038424E-1,7.831132069E-1,2.802523685E-1,1.043172413E0
1.300314971E1,-4.028844874E-2,1.155493720E0,-4.327576929E-1,1.234531538E0
1.301312071E1,-3.167391403E-1,1.148306031E0,-9.034819418E-1,1.495061886E0
1.302309171E1,-5.977812483E-1,8.600263122E-1,-5.329152346E-1,1.175153746E0
1.303306271E1,-7.685747630E-1,3.995843920E-1,-1.146343705E0,1.436829406E0
1.304303371E1,-1.415519401E0,-5.561988473E-1,-8.293281376E-1,1.732292553E0
1.305300471E1,-1.233061860E0,-3.278270692E-1,-3.636365873E-1,1.326704076E0
1.306297571E1,-1.777880564E0,-4.529972452E-1,1.046416544E0,2.112120590E0
1.307294671E1,-1.627935735E0,-4.141927832E-1,1.261500524E0,2.100741296E0
1.308291771E1,-1.750831637E0,-6.039396089E-1,9.706278580E-1,2.090998065E0
1.309288871E1,-1.236227104E0,-8.465511113E-2,2.801985741E-1,1.270407486E0
1.310285971E1,-7.304131293E-1,1.391821513E-1,-8.837657154E-2,7.487893089E-1
1.311283071E1,-1.301199903E-1,-9.907484195E-1,-6.722760183E-1,1.204354054E0
1.312280171E1,-1.789712843E-1,-1.223889187E0,2.146512866E-1,1.255392623E0
1.313277171E1,5.782271359E-2,-4.194462141E-1,4.907568097E-2,4.262475985E-1
1.314274271E1,-2.645388535E-1,-3.041566631E-1,6.118924069E-1,7.327376054E-1
1.315271371E1,-1.217294916E-1,-1.746329427E-2,3.973966563E-1,4.159893487E-1
1.316268471E1,-5.950580173E-1,-4.972033650E-2,-1.796790898E-2,5.974018761E-1
1.317265571E1,-6.794654623E-1,-1.034111663E0,7.941805243E-2,1.239906236E0
1.318262671E1,-6.818909604E-1,-5.305719629E-1,2.358567989E-1,8.956061184E-1
1.319259771E1,-9.393630152E-1,-4.837883905E-1,4.765854979E-1,1.159132356E0
1.320256871E1,-1.264233951E0,-4.461568800E-1,4.280647177E-1,1.407331819E0
1.321253971E1,-4.369780670E-1,-6.064851943E-1,-2.745735526E-2,7.480160615E-1
1.322251071E1,-1.217256178E-1,-5.861868775E-1,-7.819306076E-2,6.037767271E-1
1.323248171E1,-1.443038005E-2,-6.620208791E-1,3.273932058E-1,7.386922170E-1
1.324245271E1,-1.349522024E-1,-5.766456833E-1,3.674103802E-1,6.969381096E-1
1.325242371E1,1.785260919E-2,-3.456219006E-1,3.659655333E-2,3.480122433E-1
1.326239471E1,3.355066560E-2,2.312407145E-1,5.222148299E-3,2.337203158E-1
1.327236571E1,2.229925955E-1,2.755482835E-1,4.666195035E-2,3.575330639E-1
1.328233671E1,4.055642298E-1,-2.465832236E-1,-3.349817222E-1,5.809461119E-1
1.329230746E1,5.621794526E-1,-4.103771827E-1,-8.721502215E-1,1.115841018E0
1.330227846E1,7.870333265E-1,-8.185634136E-2,-3.554990172E-1,8.674684253E-1
1.331224846E1,9.902458513E-1,6.435708672E-2,3.545856822E-1,1.053783510E0
1.332221946E1,9.657350542E-1,2.066221824E-1,5.058244997E-1,1.109592423E0
1.333219046E1,8.118260325E-1,3.032690558E-1,5.667413771E-2,8.684731343E-1
1.334216146E1,6.034767287E-1,7.073961496E-2,-4.677778369E-1,7.668144234E-1
1.335213246E1,2.188639862E-1,-3.618178108E-1,-9.263685286E-2,4.328916252E-1
1.336210346E1,8.258300409E-2,1.019330487E-1,-1.749276423E-1,2.186549314E-1
1.337207446E1,-6.685041256E-2,5.234114626E-1,-9.490908086E-2,5.361308334E-1
1.338204546E1,1.563648888E-1,9.300610453E-1,-2.958884078E-1,9.884399204E-1
1.339201646E1,1.435991745E-1,1.120547836E0,-1.790084141E-1,1.143806010E0
1.340198746E1,7.679656293E-2,1.066020504E-1,1.712503284E-1,2.158434252E-1
1.341195846E1,-1.227373323E-1,4.225958169E-1,1.735968161E-1,4.730618688E-1
1.342192946E1,-2.380420496E-1,8.763841903E-1,1.622532177E-1,9.225179527E-1
1.343190046E1,-2.702245763E-1,7.312732548E-1,3.390437829E-1,8.501368017E-1
1.344187146E1,-2.644895541E-1,3.674247059E-1,-1.408828139E-2,4.529394203E-1
1.345184246E1,-3.734399925E-1,-4.012885630E-1,-2.804675460E-1,6.157531836E-1
1.346181346E1,-5.583922110E-1,1.422449228E-1,-3.766355324E-1,6.883965453E-1
1.347178446E1,1.448077574E-1,-3.869500208E-1,3.936965382E-1,5.706983173E-1
1.348175546E1,4.149097250E-1,-8.840615845E-1,5.324883878E-2,9.780339482E-1
1.349172546E1,4.930370776E-1,-9.186499116E-1,1.607031208E-1,1.054906969E0
1.350169646E1,1.900315120E-1,-3.381026736E-1,-9.115575314E-2,3.984153169E-1
1.351166746E1,8.643471122E-2,-8.161362344E-1,6.811643708E-1,1.066552489E0
1.352163846E1,8.341170073E-2,-6.570907992E-1,7.230696112E-1,9.805893600E-1
1.353160946E1,3.192482536E-1,-1.144669062E0,3.021607161E-1,1.226167936E0
1.354158046E1,-1.706463110E-1,-1.093677541E0,-9.476640880E-2,1.110959675E0
1.355155146E1,-3.361721423E-1,-7.799384612E-1,5.506100786E-1,1.012169537E0
1.356152246E1,-7.039712892E-1,-1.183231742E0,7.620313632E-1,1.573627888E0
1.357149346E1,-8.002405056E-1,-6.941466513E-1,8.618836802E-1,1.365674895E0
1.358146446E1,-6.614452207E-1,-3.381561756E-1,1.197520291E0,1.409224690E0
1.359143546E1,-6.038537280E-1,4.680468088E-1,5.805507463E-1,9.595552663E-1
1.360140646E1,-8.883126564E-1,1.001771590E0,-7.540101528E-2,1.341018646E0
1.361137746E1,-8.296539737E-1,6.725768575E-1,-2.092350107E-1,1.088331124E0
1.362134846E1,-8.028547226E-1,7.468797657E-1,-6.933675098E-1,1.297367948E0
1.363131946E1,-5.670751069E-1,2.745276520E-1,-1.181862032E0,1.339304846E0
1.364129046E1,-4.142190957E-1,4.563020915E-1,-7.130065531E-1,9.424263380E-1
1.365126146E1,-4.339533024E-2,2.695303291E-2,-2.370753586E-2,5.631756321E-2
1.366123246E1,-1.700584466E-1,4.857893077E-1,-3.588243288E-1,6.274281039E-1
1.367120246E1,3.308057870E-1,3.438341144E-1,-1.094464284E-1,4.895231227E-1
1.368117346E1,7.997967750E-3,-6.088354826E-2,3.760853094E-1,3.810655244E-1
1.369114446E1,6.050194435E-2,-5.943443280E-1,4.517745924E-1,7.490033030E-1
1.370111546E1,-2.340370723E-1,-4.147076306E-1,-1.477708340E-2,4.764180226E-1
1.371108646E1,-1.962927836E-1,-1.310948673E-1,-3.161858475E-1,3.945759893E-1
1.372105746E1,-2.240278085E-1,-1.985933706E-1,-1.435631776E-1,3.320213424E-1
1.373102846E1,-1.493927054E-1,-4.025951234E-1,-1.353279591E-2,4.296325760E-1
1.374099946E1,-2.598738717E-1,-3.937064785E-1,-2.453772354E-1,5.317416742E-1
1.375097046E1,7.226464190E-2,-6.484237638E-1,-1.897234368E-1,6.794634195E-1
1.376094146E1,7.096930090E-2,-2.587995189E-1,7.616957331E-1,8.075854273E-1
1.377091246E1,1.195961350E-1,1.221465808E-1,7.275637811E-1,7.473767981E-1
1.378088346E1,3.283033980E-1,-1.449551073E-1,1.078448761E-1,3.747340677E-1
1.379085446E1,4.798774803E-1,-4.185895970E-1,1.520591819E-1,6.546920204E-1
1.380082546E1,4.923270429E-1,-3.541983041E-1,1.460038054E-1,6.238264719E-1
1.381079646E1,6.085245204E-1,-5.469953299E-2,9.468981028E-2,6.182720202E-1
1.382076746E1,4.405571477E-1,1.445669399E0,-5.681499714E-1,1.614572699E0
1.383073846E1,7.954789717E-1,1.570907110E0,-3.268786508E-1,1.790917529E0
1.384070946E1,1.017944989E0,6.792473611E-1,-7.770335644E-1,1.449610340E0
1.385068046E1,7.779449992E-1,5.164673093E-1,-1.209062110E0,1.527667532E0
1.386065146E1,6.985173719E-1,8.562153894E-1,1.208888447E-1,1.111595891E0
1.387062146E1,5.398726903E-2,1.340644927E0,6.410986644E-1,1.487027553E0
1.388059246E1,-4.369565785E-1,1.178519179E0,7.431974816E-1,1.460198960E0
1.389056346E1,-5.818521173E-1,3.444960192E-1,4.317309219E-1,8.022599220E-1
1.390053446E1,-2.948911652E-1,-4.903574449E-1,-2.048513532E-1,6.077625358E-1
1.391050546E1,-5.054591949E-1,-7.226591367E-1,-5.659537572E-1,1.047868733E0
1.392047646E1,-8.078630090E-1,-1.433201673E0,-4.110463965E-1,1.695779708E0
1.393044746E1,-1.160173393E0,-1.585766347E0,-5.426128417E-1,2.038402783E0
1.394041846E1,-5.553708816E-1,-1.440077706E0,1.296783793E-1,1.548895445E0
1.395038946E1,5.473410465E-2,-1.401332009E0,1.048845477E0,1.751229299E0
1.396036046E1,5.688457169E-1,-8.944605651E-1,6.000202203E-1,1.218059694E0
1.397033146E1,5.861173687E-1,-8.353153941E-1,6.209678704E-1,1.194523534E0
1.398030246E1,6.506508952E-1,-8.779854503E-1,8.881084424E-1,1.408169608E0
1.399027346E1,3.247243904E-1,-8.040652424E-1,8.372657329E-1,1.205396512E0
1.400024446E1,5.278322500E-1,-5.914926410E-2,6.148516828E-1,8.124949916E-1
1.401021546E1,-2.201257423E-2,3.318864986E-1,7.877310455E-1,8.550750853E-1
1.402018646E1,2.132595031E-1,9.696993202E-2,3.112531364E-2,2.363293645E-1
1.403015746E1,-4.471292719E-3,4.633155343E-1,-2.503011757E-1,5.266231626E-1
1.404012846E1,1.500185768E-1,-7.702390999E-2,-1.003908455E-1,1.962564087E-1
1.405009946E1,-3.581888826E-1,6.260613799E-2,3.119337523E-1,4.790839905E-1
1.406007046E1,-1.605342094E-1,-6.014358312E-2,1.732892525E-1,2.437573548E-1
1.407004046E1,-2.156237517E-1,8.761614114E-2,-2.936360604E-1,3.746896401E-1
1.408001146E1,3.413567953E-1,-1.265223446E-1,-1.691201878E-1,4.014150013E-1
1.408998246E1,1.079406242E-1,-2.984056342E-1,3.377176344E-2,3.191200916E-1
1.409995346E1,3.921878104E-1,-3.084871110E-1,5.102216059E-1,7.136537420E-1
1.410992446E1,3.391816311E-1,-2.282276443E-1,5.198993325E-1,6.613829091E-1
1.411989546E1,8.131128585E-1,9.045116365E-2,3.730868572E-1,8.991817039E-1
1.412986646E1,6.093664098E-1,1.704384425E-1,-6.200299770E-1,8.858972042E-1
1.413983746E1,7.841009478E-1,4.157370329E-4,-4.877846700E-1,9.234437468E-1
1.414980846E1,5.426982111E-1,-4.680123103E-1,-7.150735438E-2,7.201875954E-1
1.415977946E1,5.281268766E-1,-5.063706297E-1,2.292786813E-1,7.667450202E-1
1.416975046E1,2.318214161E-1,-2.617859843E-1,1.917951053E-1,3.988213046E-1
1.417972146E1,8.782775187E-1,3.739651090E-1,1.751358032E-2,9.547397699E-1
1.418969246E1,5.930183257E-1,8.932700720E-1,-2.456228185E-1,1.099969420E0
1.419966346E1,7.834340729E-1,3.922511065E-1,-5.604509425E-1,1.040064967E0
1.420963446E1,8.451395935E-1,-2.652019277E-1,-7.650947195E-1,1.170454153E0
1.421960546E1,5.429254485E-1,-3.572259924E-1,-5.129639500E-1,8.279555944E-1
1.422957646E1,2.176987823E-1,-3.850508451E-2,-2.985822201E-1,3.715195062E-1
1.423954746E1,1.971363176E-1,4.332529521E-1,-1.887422740E-1,5.120493084E-1
1.424951846E1,1.855038667E-1,4.349100530E-1,4.374442363E-1,6.441396577E-1
1.425948946E1,-2.245934536E-1,2.615959498E-1,3.482940781E-1,4.900851204E-1
1.426946046E1,-5.347914599E-1,1.078713932E0,-2.934425175E-2,1.204361548E0
1.427943146E1,-4.258618522E-1,6.802223843E-1,3.163285196E-1,8.626265366E-1
1.428940183E1,-4.204231377E-1,-1.820062816E-1,1.728670835E-1,4.896579723E-1
1.429937283E1,-4.011871138E-1,3.138539779E-1,1.812461436E-1,5.406529241E-1
1.430934383E1,1.356911442E-1,-2.072864261E-1,7.575728613E-1,7.970548220E-1
1.431931483E1,8.343294805E-1,-7.500077337E-1,2.145429377E0,2.421050287E0
1.432928583E1,6.585156195E-1,-1.119159122E0,1.982479756E0,2.369891547E0
1.433925683E1,9.600011283E-1,-6.513757306E-1,8.364968240E-1,1.430251532E0
1.434922783E1,6.299956790E-1,8.916974634E-2,-1.354630297E-1,6.505351886E-1
1.435919883E1,8.454706190E-1,1.396204001E-1,-2.584229583E-1,8.950401382E-1
1.436916983E1,9.024111705E-1,-7.122452456E-1,-8.114543688E-1,1.407159338E0
1.437914083E1,1.127804011E0,-1.009324439E0,-1.089832120E0,1.865050069E0
1.438911183E1,1.112606148E0,-6.659063539E-1,-7.137625980E-1,1.480128629E0
1.439908283E1,1.124719824E0,-6.233245906E-1,2.244477117E-1,1.305337123E0
1.440905383E1,7.536036982E-1,-6.939010683E-1,9.050986969E-1,1.366975083E0
1.441902483E1,4.764282808E-1,-1.116990390E0,9.442966765E-1,1.538293747E0
1.442899583E1,-1.619005575E-1,-7.743777591E-1,3.716010797E-1,8.740480918E-1
1.443896683E1,-3.738577395E-1,-1.698575217E-1,2.619570154E-1,4.870756255E-1
1.444893783E1,-8.167224178E-1,-1.930063561E-1,2.865661919E-1,8.867959988E-1
1.445890883E1,-9.245898787E-1,-3.814971998E-1,7.483266592E-2,1.002998746E0
1.446887983E1,-1.087230840E0,-2.214948678E-1,-8.421247691E-1,1.392948313E0
1.447885083E1,-4.113254549E-1,3.421884155E-1,-9.597017509E-1,1.098776134E0
1.448882183E1,-6.052658305E-1,7.195875943E-2,2.934600592E-1,6.764936031E-1
1.449879283E1,-3.607038432E-1,-2.590173277E-1,6.568662661E-1,7.928874637E-1
1.450876283E1,-5.040609795E-1,-4.213752106E-1,6.734711891E-1,9.408496063E-1
1.451873383E1,-3.206120436E-1,2.485341471E-1,5.349968433E-1,6.714036991E-1
1.452870483E1,-4.072025100E-1,3.004489437E-1,6.296018690E-1,8.077635578E-1
1.453867583E1,-2.774553528E-1,-5.947226429E-1,4.854352587E-1,8.162866440E-1
1.454864683E1,-3.396165908E-1,-7.581660613E-1,-9.294792473E-2,8.359393052E-1
1.455861783E1,-5.388861188E-1,-2.515086257E-1,-5.301190960E-1,7.966687479E-1
1.456858883E1,-3.157027944E-1,-5.746965140E-2,-6.111468869E-1,6.902691741E-1
1.457855983E1,-1.140948918E-1,-1.549833745E-1,-7.638679737E-1,7.877383905E-1
1.458853083E1,-4.311444461E-3,-6.986264956E-1,-3.079962373E-1,7.635176822E-1
1.459850183E1,6.254364587E-2,-5.308070210E-1,-1.944240135E-1,5.687429104E-1
1.460847283E1,1.595508539E-1,1.372955471E-2,3.690820992E-2,1.643386492E-1
1.461844383E1,1.803637256E-1,7.331999123E-2,6.821046031E-1,7.093472945E-1
1.462841483E1,6.465544821E-1,7.058349431E-2,4.933746082E-1,8.163536194E-1
1.463838583E1,4.817928819E-1,4.816272596E-1,-2.275654471E-1,7.182445481E-1
1.464835683E1,4.495380324E-1,8.297052830E-1,-2.267088300E-1,9.705113049E-1
1.465832783E1,3.557931322E-1,1.439571630E0,-8.717993885E-1,1.720171330E0
1.466829883E1,3.521430809E-1,8.947538030E-1,-1.767640774E0,2.012248251E0
1.467826983E1,7.596956199E-1,4.510749730E-1,-1.716127388E0,1.930207056E0
1.468824083E1,7.347762486E-1,8.582247850E-1,-1.028281404E0,1.527680779E0
1.469821183E1,1.030527905E-1,1.499571079E0,-5.245864606E-1,1.592018924E0
1.470818283E1,3.848514551E-1,1.454947760E0,-1.286089236E-1,1.510471411E0
1.471815383E1,6.997107156E-2,1.839478496E-1,8.447308731E-1,8.673540282E-1
1.472812483E1,1.599093613E-1,-3.745144549E-1,1.344717513E0,1.405025719E0
1.473809583E1,-2.849538222E-2,5.345775980E-1,1.103009990E0,1.226057190E0
1.474806583E1,5.759261104E-1,2.755272335E-1,1.221595616E0,1.378369323E0
1.475803683E1,4.498404066E-1,-1.927218890E-1,1.185427079E0,1.282472408E0
1.476800783E1,4.138303290E-1,-1.414959822E0,7.718102467E-1,1.664048646E0
1.477797883E1,8.761950329E-2,-1.304740099E0,1.848164535E-1,1.320674459E0
1.478794983E1,-3.096422285E-1,-1.383995014E0,-3.062391490E-1,1.450897283E0
1.479792083E1,-6.375124940E-1,-1.024942352E0,1.839890724E-1,1.220975423E0
1.480789183E1,-6.937454592E-1,-1.419678817E0,9.327571964E-1,1.834886017E0
1.481786283E1,-7.101808130E-1,-9.168083310E-1,1.449144107E0,1.856047668E0
1.482783383E1,-4.548133173E-1,9.886676878E-2,1.382768269E0,1.458998929E0
1.483780483E1,-2.034756495E-1,2.529543498E-1,6.429072082E-1,7.202207449E-1
1.484777583E1,2.486111842E-2,-5.551270527E-1,-6.476528084E-1,8.533687832E-1
1.485774683E1,3.369088183E-1,-1.165239275E0,-8.499313867E-1,1.481105493E0
1.486771783E1,1.140114959E-1,-1.438445456E0,6.865800619E-3,1.442973004E0
1.487768883E1,-2.931033790E-1,-1.431999485E0,-2.561080456E-1,1.483955339E0
1.488765983E1,-2.939191752E-1,-1.240122811E0,-1.653055227E0,2.087315178E0
1.489763083E1,-4.657254642E-1,-1.295155051E0,-6.087898743E-1,1.504975723E0
1.490760183E1,-3.003702255E-1,-3.822856969E-1,1.538823438E-1,5.099454894E-1
1.491757283E1,-4.662820826E-1,5.765486196E-1,1.281727213E0,1.480760595E0
1.492754383E1,6.394917034E-2,7.362039194E-1,8.404501265E-1,1.119125606E0
1.493751483E1,-6.276298955E-2,-3.411458570E-1,1.979767817E-1,3.993926573E-1
1.494748583E1,3.185639101E-1,-7.716775149E-1,-3.546102405E-1,9.070378021E-1
1.495745683E1,4.439505062E-1,-1.004105507E0,-5.619788200E-1,1.233345091E0
1.496742783E1,3.340094034E-1,-5.561795515E-1,-8.946427059E-1,1.105116983E0
1.497739883E1,1.648893618E-1,-2.023496220E-1,-3.406201923E-1,4.291339960E-1
1.498736983E1,5.807564221E-2,-5.311610699E-2,5.368293607E-1,5.425678424E-1
1.499734083E1,3.726054121E-1,5.786509860E-1,-4.277144694E-1,8.103156323E-1
1.500731183E1,4.508825266E-1,1.051352471E0,-6.143874139E-1,1.298502586E0
1.501728183E1,3.790638810E-1,9.997081080E-1,5.725172567E-1,1.212799133E0
1.502725283E1,3.713465066E-1,-4.784431583E-1,2.015290237E0,2.104329067E0
1.503722383E1,6.476631141E-1,-5.564564171E-1,2.107041821E0,2.273485538E0
1.504719483E1,1.329092291E0,5.278433597E-1,1.110461097E0,1.810587964E0
1.505716583E1,1.005788993E0,6.091722822E-1,-3.025355226E-1,1.214178780E0
1.506713683E1,6.487647296E-1,4.655684665E-1,-8.468189138E-1,1.163938119E0
1.507710783E1,-2.443354078E-2,-4.811670837E-1,-4.848710024E-1,6.835339416E-1
1.508707883E1,-2.351609071E-1,-7.890019378E-1,-8.731992120E-1,1.200125649E0
1.509704983E1,-3.999593447E-1,3.306123903E-1,-1.334480792E0,1.431820874E0
1.510702083E1,-3.482243501E-1,8.347283337E-1,-5.236181617E-2,9.059654236E-1
1.511699183E1,7.922604449E-2,-2.246204969E-1,2.491890353E-1,3.447119219E-1
1.512696283E1,2.035328791E-1,3.900010979E-1,6.564435124E-2,4.447872189E-1
1.513693383E1,2.605139226E-1,4.192377609E-1,1.319693184E-1,5.109243633E-1
1.514690483E1,-3.410286203E-1,4.829136470E-1,8.472100925E-1,1.033088114E0
1.515687583E1,-4.158888412E-1,1.579935211E-1,7.750004876E-1,8.936169407E-1
1.516684683E1,-1.017543431E-1,-1.639968574E-2,-3.354506689E-1,3.509274103E-1
1.517681783E1,-2.012816280E-2,9.587995255E-1,-1.804532611E-1,9.758406901E-1
1.518678883E1,-2.464233023E-1,7.723873669E-1,2.156821507E-1,8.389430723E-1
1.519675983E1,-2.368286792E-1,1.577409214E-1,-1.451384175E-1,3.194294630E-1
1.520673083E1,-6.383851178E-2,3.327632886E-1,-3.075723141E-1,4.576106317E-1
1.521670183E1,3.878122658E-1,1.561425850E-1,-7.441359597E-1,8.535321827E-1
1.522667283E1,2.745986225E-1,7.228284135E-1,-2.264784497E-1,8.057157111E-1
1.523664383E1,-1.073299556E-1,-2.665792394E-1,6.342083055E-1,6.962789563E-1
1.524661483E1,-1.954513693E-1,-1.123673758E0,4.617692381E-1,1.230477460E0
1.525658583E1,-3.406205577E-1,-2.185998236E0,3.356693548E-1,2.237696264E0
1.526655683E1,-3.058095248E-1,-2.697495705E0,4.249306101E-1,2.747829792E0
1.527652783E1,-1.561773028E-1,-1.833593858E0,4.234074104E-1,1.888314492E0
1.528649871E1,-2.680010629E-1,-1.672931668E0,4.865321964E-1,1.762736087E0
1.529646971E1,-1.309831124E-1,-1.606135122E0,2.457643211E-1,1.630100214E0
1.530643971E1,-8.393678069E-2,-1.235112625E0,1.082744125E0,1.644652978E0
1.531641071E1,-3.066334706E-1,-9.613883802E-1,2.610153213E0,2.798426611E0
1.532638171E1,-5.215057819E-1,-5.162901387E-1,1.686841024E0,1.839553323E0
1.533635271E1,-4.317284368E-2,-1.192598689E0,-4.093413484E-1,1.261632224E0
1.534632371E1,-3.067477106E-1,-1.786505646E0,-6.875881219E-1,1.938678417E0
1.535629471E1,-6.656831364E-1,-1.344225177E-1,-6.515447152E-1,9.411237789E-1
1.536626571E1,-1.031106121E0,8.373914480E-1,-5.885251790E-1,1.452847603E0
1.537623671E1,-1.077826324E0,8.907814971E-1,-5.455534065E-1,1.500942964E0
1.538620771E1,-1.108105107E0,9.227216202E-1,-3.728073603E-1,1.489394993E0
1.539617871E1,-1.109422339E0,8.873263773E-1,-4.712861663E-1,1.496755383E0
1.540614971E1,-6.873002927E-1,8.050534219E-1,-6.400771558E-1,1.237009082E0
1.541612071E1,-2.591054014E-1,8.312357917E-1,-2.984015411E-1,9.203977565E-1
1.542609171E1,-5.894811257E-1,3.974548361E-1,-5.141339779E-2,7.128125151E-1
1.543606271E1,-7.381068957E-1,2.340476704E-1,3.369551575E-1,8.444636639E-1
1.544603371E1,-9.740680674E-1,5.207252517E-1,3.585138416E-1,1.161247416E0
1.545600471E1,-6.203498197E-1,4.354339635E-1,-2.740554893E-1,8.059423345E-1
1.546597571E1,-3.004448506E-1,-8.505389124E-2,-5.929544449E-1,6.701464365E-1
1.547594671E1,-1.068286665E-1,-5.385855719E-1,-2.415028703E-1,5.998419948E-1
1.548591771E1,2.568682202E-1,-7.989661780E-1,-4.083286107E-2,8.402354186E-1
1.549588871E1,5.013974997E-1,-1.425650579E-1,-6.663486958E-2,5.255135148E-1
1.550585971E1,6.146369438E-1,-1.363749030E-1,3.185837907E-1,7.056006792E-1
1.551583071E1,2.851839832E-1,-7.773361579E-1,7.932812226E-1,1.146680646E0
1.552580171E1,1.833563672E-1,-6.534941769E-1,1.011449025E0,1.218073613E0
1.553577271E1,3.251931909E-1,4.211059463E-1,8.819004536E-2,5.393128160E-1
1.554574371E1,6.949726436E-2,8.116870880E-1,-2.198740196E-1,8.438070769E-1
1.555571471E1,-2.264469478E-2,5.645390233E-1,-6.383680147E-1,8.524850810E-1
1.556568571E1,-3.600757791E-1,5.242218867E-1,-7.472665590E-1,9.812596310E-1
1.557565671E1,-6.687646191E-1,8.039082447E-1,-5.967276531E-1,1.203992722E0
1.558562671E1,-1.317199639E0,5.571501893E-1,2.294330478E-2,1.430369748E0
1.559559771E1,-1.452735759E0,-1.447367138E-1,-3.315815663E-1,1.497109293E0
1.560556871E1,-1.781940724E0,-3.083684126E-1,1.903964514E-1,1.818420917E0
1.561553971E1,-1.372596745E0,-1.082720152E-1,4.944101501E-1,1.462937473E0
1.562551071E1,-1.215203221E0,-4.398205447E-1,6.309005356E-1,1.438122549E0
1.563548171E1,-5.739019505E-1,-2.573409310E-1,5.654590827E-1,8.457728878E-1
1.564545271E1,-1.286508042E-2,-7.214975873E-1,5.713179928E-1,9.203958538E-1
1.565542371E1,5.997730292E-1,-1.044170628E0,2.561863983E-1,1.231117971E0
1.566539471E1,8.986704873E-1,-7.999075797E-1,-2.033989048E-1,1.220176993E0
1.567536571E1,1.119799319E0,-8.054489860E-1,-5.191222376E-1,1.473833940E0
1.568533671E1,9.765148348E-1,-1.260543627E0,3.168255329E-2,1.594852734E0
1.569530771E1,5.944513686E-1,-1.236784344E0,5.880135477E-1,1.492905849E0
1.570527871E1,6.157683800E-1,-1.372585927E0,3.630881184E-1,1.547577399E0
1.571524971E1,2.247715744E-1,-1.367042182E0,4.377032679E-1,1.452897360E0
1.572522071E1,2.576597504E-2,-5.087177020E-1,1.163904648E0,1.270484795E0
1.573519171E1,-2.732460154E-1,-2.198693419E-1,7.705811620E-1,8.466411516E-1
1.574516271E1,-6.550717556E-1,-1.400989947E-1,3.498985541E-1,7.557616896E-1
1.575513371E1,-5.573561575E-1,-3.722963136E-1,2.314444900E-2,6.706609404E-1
1.576510471E1,-9.121725854E-1,-2.345172018E-1,-4.951480687E-2,9.431377733E-1
1.577507571E1,-3.277243043E-1,-3.271441144E-1,9.455181599E-2,4.726166916E-1
1.578504671E1,1.458025881E-1,-4.749020845E-1,7.021979749E-1,8.601583462E-1
1.579501771E1,6.392420273E-1,-1.953297472E-1,1.899772060E-1,6.948923790E-1
1.580498871E1,9.675799969E-1,3.435128099E-1,-3.689967299E-1,1.091041103E0
1.581495971E1,1.147178249E0,4.573832417E-1,-4.909176081E-1,1.328991145E0
1.582493071E1,1.104148077E0,1.838157025E-1,-4.323863947E-1,1.199953826E0
1.583490171E1,1.260255652E0,4.058020288E-1,-5.278702569E-1,1.425330349E0
1.584487271E1,1.018800583E0,7.315752634E-1,-6.900995010E-1,1.431570576E0
1.585484271E1,1.370264875E0,3.239193749E-1,-8.635846353E-1,1.651765120E0
1.586481371E1,1.493278306E0,9.967222273E-2,-6.632520103E-1,1.636984386E0
1.587478471E1,1.155202091E0,-5.391647387E-1,-3.471848613E-1,1.321259934E0
1.588475571E1,4.314358567E-1,-7.802767226E-1,1.376580745E-1,9.021742669E-1
1.589472671E1,2.699216540E-1,2.155923960E-1,2.606232655E-1,4.327381044E-1
1.590469771E1,-3.053846515E-1,8.473939875E-1,2.864831614E-1,9.452031301E-1
1.591466871E1,-2.592820604E-1,9.924040586E-1,4.221449965E-1,1.109188623E0
1.592463971E1,-3.445713752E-1,3.288769367E-1,2.116341233E-2,4.767990794E-1
1.593461071E1,-4.573713280E-1,8.772130331E-1,4.158773661E-2,9.901619953E-1
1.594458171E1,-5.323856961E-1,2.068481773E-1,6.328499973E-2,5.746526682E-1
1.595455271E1,-4.620360173E-1,8.900222361E-2,-4.608828002E-1,6.586437828E-1
1.596452371E1,-7.945134502E-1,-2.104105935E-1,-8.283808887E-2,8.260668189E-1
1.597449471E1,-1.023186433E0,-4.659730938E-1,1.464850312E-1,1.133798600E0
