"Time (s)","Linear Acceleration x (m/s^2)","Linear Acceleration y (m/s^2)","Linear Acceleration z (m/s^2)","Absolute acceleration (m/s^2)"
3.442750021E-3,1.343247523E0,7.583382618E-1,-5.428449762E-1,1.635258846E0
1.341375004E-2,1.584693675E0,8.490358856E-1,3.806806362E-1,1.837670734E0
2.338475001E-2,2.144773319E0,2.562223586E-1,5.845788932E-1,2.237729870E0
3.335575003E-2,2.074710812E0,3.331857499E-1,2.543895489E-1,2.116636894E0
4.332674999E-2,1.505200047E0,2.044537425E-1,5.632441574E-1,1.620084102E0
5.329775001E-2,1.137907854E0,-6.875857830E-2,1.056503575E0,1.554272123E0
6.326875003E-2,8.913814945E-1,-1.845629767E-1,5.271756077E-1,1.051921377E0
7.323975000E-2,7.701111189E-1,-4.931103140E-2,-3.644569516E-3,7.716968292E-1
8.321075002E-2,3.781215291E-1,-6.375365406E-2,-9.593842471E-1,1.033178858E0
9.318175004E-2,-3.082810698E-1,-2.558741570E-2,-1.279791784E0,1.316646857E0
1.031527500E-1,-8.586065351E-1,-3.570456058E-1,-8.735073602E-1,1.275814193E0
1.131237500E-1,-6.595175399E-1,-4.492988813E-1,-3.050609350E-1,8.543389516E-1
1.230947500E-1,-7.059222858E-1,1.013538820E-1,-1.732869136E-1,7.339122819E-1
1.330657500E-1,-5.629809596E-1,-1.251991197E-1,5.703426772E-1,8.111184562E-1
1.430367500E-1,-7.886652113E-1,-5.771049821E-1,5.260476798E-1,1.109850953E0
1.530077500E-1,-9.796326432E-1,-4.585415751E-2,1.255116534E-1,9.887041492E-1
1.629787500E-1,-5.986812810E-1,1.484344929E-1,-1.067800981E-1,6.259824792E-1
1.729497500E-1,-8.650094555E-1,9.030439854E-2,-6.220408344E-1,1.069266591E0
1.829207500E-1,-4.538666531E-1,2.694838437E-1,-8.138493884E-1,9.700346941E-1
1.928917500E-1,-7.246849045E-1,3.401532921E-1,-5.024144036E-1,9.451416327E-1
2.028627500E-1,-5.066382129E-1,2.107394993E-1,3.953957391E-1,6.763366069E-1
2.128337500E-1,-3.663742536E-1,4.184983805E-1,-1.996204340E-1,5.909478030E-1
2.228047500E-1,-4.486401194E-1,2.839747059E-1,-4.144506454E-1,6.735643457E-1
2.327757500E-1,-3.318448372E-1,-3.149535468E-1,-2.370835447E-1,5.152915096E-1
2.427467500E-1,-1.854910029E-1,3.323966682E-2,-1.462733620E-1,2.385533149E-1
2.527177500E-1,-3.690829032E-1,4.712075213E-1,2.429588270E-1,6.459781027E-1
2.626887500E-1,-4.432342223E-1,5.267168936E-1,1.569340056E-1,7.060563320E-1
2.726597500E-1,-7.757996558E-1,2.616892129E-2,1.274698859E-1,7.866374579E-1
2.826307500E-1,-8.476153046E-1,-3.613295683E-1,1.006598175E-1,9.268997575E-1
2.926017500E-1,-6.074043035E-1,6.912169039E-2,-3.953232336E-1,7.280097905E-1
3.025727500E-1,-7.371738262E-1,3.264629138E-1,-2.793238306E-1,8.532438611E-1
3.125437500E-1,-7.306908721E-1,7.432775885E-2,-5.035622120E-2,7.361857886E-1
3.225147500E-1,-6.297446141E-1,-3.361119890E-1,-3.143720412E-1,7.799867489E-1
3.324857500E-1,-3.500177642E-1,-2.262097701E-1,-3.657129335E-1,5.544630241E-1
3.424567500E-1,-2.110623022E-1,2.464659870E-1,4.351790249E-2,3.273936254E-1
3.524277500E-1,-3.128015156E-1,3.480318305E-1,4.962385744E-1,6.820730650E-1
3.623987500E-1,-2.256018059E-1,1.911127353E-1,4.903018963E-1,5.725523574E-1
3.723697500E-1,-5.564378157E-1,1.297239876E-1,3.697890276E-1,6.805845139E-1
3.823407500E-1,-7.649573100E-1,6.409966305E-1,-1.790440822E-1,1.013949284E0
3.923117500E-1,-9.257313283E-1,6.566203907E-1,-2.558174390E-1,1.163430871E0
4.022827500E-1,-1.033895608E0,5.835284409E-1,-6.448116463E-1,1.351009856E0
4.122537500E-1,-8.652016827E-1,5.084382051E-1,-6.601190722E-1,1.201182979E0
4.222247500E-1,-8.426758692E-1,6.140345344E-1,-4.325840306E-1,1.128835672E0
4.321957500E-1,-4.708745223E-1,5.355134448E-1,-9.544117749E-2,7.194487360E-1
4.421667500E-1,-5.162487696E-1,5.414866680E-1,3.079208082E-1,8.090338855E-1
4.521377500E-1,-3.669786365E-1,3.012196067E-1,-7.411345840E-2,4.805199016E-1
4.621087500E-1,-5.844040614E-1,-4.014622253E-1,1.562200606E-2,7.091854993E-1
4.720797500E-1,-9.478364347E-1,1.279666069E-1,3.303957510E-1,1.011894615E0
4.820507500E-1,-6.739334846E-1,5.394407272E-2,3.566327924E-1,7.643842314E-1
4.920217500E-1,-8.637524503E-1,-3.837653348E-1,9.674393713E-2,9.501071082E-1
5.019927500E-1,-6.503882821E-1,-3.908264324E-1,-3.861015898E-1,8.513663462E-1
5.119637500E-1,-2.774138376E-2,-7.604897448E-1,-3.621338528E-1,8.427663755E-1
5.219347500E-1,1.196121052E-4,-1.292998013E0,-1.630993098E-1,1.303244130E0
5.319057500E-1,-3.782315299E-2,-5.778592730E-1,1.783412468E-1,6.059352528E-1
5.418767500E-1,7.309867412E-2,-5.089825809E-1,1.149007697E0,1.258819038E0
5.518477500E-1,3.320767890E-1,-6.437673336E-1,1.653192052E0,1.804925299E0
5.618187500E-1,3.060647558E-1,-1.156737131E-1,1.036905463E0,1.087303537E0
5.717897500E-1,3.984884411E-1,-1.595939040E-1,5.842929643E-1,7.250251858E-1
5.817607500E-1,3.359170575E-1,-6.854161736E-1,2.398703277E-1,8.001083518E-1
5.917317500E-1,-5.859416233E-1,-6.295191309E-1,-5.111068743E-1,1.000425989E0
6.017027500E-1,-5.552662895E-1,-9.012594151E-1,-7.809131920E-2,1.061455340E0
6.116737500E-1,-4.611902176E-1,-1.011820031E0,3.775020897E-2,1.112610116E0
6.216447500E-1,-9.739743657E-1,-4.929515621E-1,-9.037281096E-1,1.417163295E0
6.316157500E-1,-1.242644058E-1,-6.939189023E-1,3.414002109E-1,7.832746577E-1
6.415867500E-1,-7.119312501E-1,-5.514418450E-1,1.009352213E0,1.352673687E0
6.515577500E-1,9.372863766E-2,5.203720799E-1,1.446770137E0,1.540362291E0
6.615287500E-1,-6.755356948E-1,1.174895074E0,6.578626317E-1,1.506489347E0
6.714997500E-1,-9.125527275E-1,1.183836929E0,3.548944151E-1,1.536285260E0
6.814707500E-1,-1.080418030E0,1.274253594E0,-6.576755208E-1,1.795428203E0
6.914417500E-1,-1.311067371E0,9.721516424E-1,-1.147892632E0,1.995403208E0
7.014127500E-1,-9.079654406E-1,2.976963669E-1,-8.677303112E-1,1.290728578E0
7.113837500E-1,-1.251830984E0,6.451779744E-1,-1.105824255E0,1.790581669E0
7.213547500E-1,-8.562564661E-1,1.231751353E0,-1.250688438E0,1.953102173E0
7.313257500E-1,-5.627729815E-1,-7.771885157E-2,-2.261907667E-1,6.114866405E-1
7.412967500E-1,5.000772715E-2,-3.966660467E-1,-1.557581306E-2,4.001091493E-1
7.512677500E-1,5.764653333E-1,-2.186332405E-2,2.830637097E-3,5.768867289E-1
7.612387500E-1,5.862703465E-1,-2.880899763E-1,4.303281748E-1,7.822346781E-1
7.712097500E-1,7.875806259E-1,4.227273792E-2,5.893741947E-1,9.845974650E-1
7.811807500E-1,8.616303496E-1,-1.238598150E-1,-5.287403226E-2,8.720916101E-1
7.911517500E-1,3.600297688E-1,-2.506213108E-1,-4.984669483E-1,6.640043482E-1
8.011227500E-1,1.912370982E-1,-4.190696535E-1,-3.954460251E-1,6.070984772E-1
8.110937500E-1,5.355355181E-3,-4.216687408E-1,-1.705299515E-1,4.548776441E-1
8.210647500E-1,-3.034006912E-2,-4.010333320E-1,2.838302797E-1,4.922477840E-1
8.310357500E-1,9.937054295E-2,-2.607127279E-2,5.005631751E-1,5.109967792E-1
8.410067500E-1,-2.327052227E-1,-2.719797277E-1,1.639910102E-1,3.937229285E-1
8.509777500E-1,-2.391693927E-3,-5.725286588E-1,1.780184805E-2,5.728103448E-1
8.609487500E-1,6.891174611E-1,-1.137955874E-2,3.845140707E-1,7.892169792E-1
8.709197500E-1,6.330672944E-1,1.200702345E-1,5.071792996E-1,8.200133550E-1
8.808907500E-1,8.458833593E-1,1.024768397E-1,6.276506531E-1,1.058284226E0
8.908617500E-1,5.328335928E-1,1.112925113E0,3.171939075E-2,1.234309550E0
9.008327500E-1,3.687423760E-1,7.718581939E-1,-7.067821920E-2,8.583306018E-1
9.108037500E-1,6.017659431E-1,5.020176700E-1,-6.159334177E-1,9.967537139E-1
9.207747500E-1,1.488261102E-1,9.724118435E-1,-1.083409538E0,1.463389980E0
9.307457500E-1,1.420163698E-1,4.068551123E-1,-4.043940192E-1,5.909604509E-1
9.407160000E-1,3.753314937E-1,1.437198830E-1,-9.659366369E-2,4.133515099E-1
9.506870000E-1,5.249634598E-1,2.403781584E-1,1.681244069E-1,6.013602160E-1
9.606580000E-1,9.253488473E-1,3.963137519E-1,-1.797901869E-1,1.022574980E0
9.706290000E-1,1.081441877E0,8.206353745E-1,-2.347423196E-2,1.357759180E0
9.806010000E-1,1.037027450E0,5.716036293E-1,3.677758312E-1,1.239925685E0
9.905720000E-1,1.066799937E0,5.954009199E-1,-1.635729343E-1,1.232607183E0
1.000542000E0,9.329206261E-1,4.683894557E-1,-3.279469371E-2,1.044416138E0
1.010513000E0,8.007310870E-1,1.154322231E-1,-1.381229281E-1,8.207148195E-1
1.020485000E0,5.847820108E-1,6.823542792E-1,-2.796407497E-1,9.411569005E-1
1.030456000E0,8.279272909E-1,8.955010772E-3,-3.894654930E-2,8.288912022E-1
1.040427000E0,9.954377402E-1,-1.202874586E-1,-2.086497045E-1,1.024158223E0
1.050398000E0,1.105383594E0,-3.712514162E-2,-1.940538847E-1,1.122901632E0
1.060369000E0,9.276755275E-1,-3.684023604E-1,7.215130824E-1,1.231618168E0
1.070340000E0,9.822579700E-1,-6.220636386E-1,6.755937284E-1,1.344700999E0
1.080311000E0,8.825785844E-1,-4.325431001E-1,7.095882708E-1,1.212251626E0
1.090282000E0,9.596407937E-1,-8.002592897E-1,5.297635853E-1,1.357193737E0
1.100253000E0,7.925334368E-1,-1.013723592E0,4.749512011E-1,1.371613434E0
1.110224000E0,6.050431978E-1,-9.610197133E-1,-8.900690138E-2,1.139104205E0
1.120195000E0,3.922406546E-1,-9.944920993E-1,-3.045849717E-1,1.111593123E0
1.130166000E0,-5.575831756E-2,-1.028157151E0,-1.746212482E-1,1.044370000E0
1.140137000E0,-1.945404462E-1,-6.097695753E-1,1.319541156E-1,6.535111390E-1
1.150108000E0,-1.260051584E-1,-7.962562859E-2,4.881471974E-1,5.103971267E-1
1.160079000E0,-2.911314055E-2,-3.734920692E-1,7.030949378E-1,7.966720733E-1
1.170050000E0,2.113564537E-1,-8.492589569E-1,5.825247663E-1,1.051307486E0
1.180021000E0,-1.479754134E-1,-2.284018913E-1,3.340397358E-2,2.741896650E-1
1.189992000E0,2.822761629E-1,-1.524494836E-1,3.461282694E-1,4.719379791E-1
1.199963000E0,5.087976627E-2,-2.436315492E-1,4.614669371E-1,5.243060331E-1
1.209933000E0,3.601631219E-1,1.505169788E-1,-4.218707621E-1,5.747588844E-1
1.219905000E0,2.411648282E-1,-1.202243087E-1,-6.041658962E-1,6.615366875E-1
1.229876000E0,6.647964062E-1,-2.881086874E-1,-2.809265524E-1,7.770975520E-1
1.239847000E0,4.997195680E-1,-4.324466211E-1,1.826225781E-1,6.856243380E-1
1.249818000E0,3.090854274E-1,4.685780284E-1,6.977365494E-1,8.955084938E-1
1.259789000E0,6.680791061E-1,7.721578637E-1,6.194850165E-1,1.194286039E0
1.269760000E0,5.930710237E-1,5.337437850E-1,2.152254832E-1,8.264004331E-1
1.279731000E0,7.085630346E-1,6.015659317E-1,3.543798602E-1,9.947503353E-1
1.289702000E0,8.972018860E-1,4.316458449E-1,-1.774302506E-1,1.011321340E0
1.299673000E0,4.488974699E-1,4.661979192E-1,-9.541334474E-1,1.152918069E0
1.309644000E0,3.155664812E-1,4.050170401E-1,-1.064169275E0,1.181557131E0
1.319615000E0,-5.371690840E-2,-5.416685164E-2,-7.279286474E-1,7.319150701E-1
1.329586000E0,-3.011666894E-1,-2.500564697E-1,-4.567909187E-1,6.015709071E-1
1.339557000E0,5.254680745E-2,-2.013576418E-2,6.123672009E-2,8.316580944E-2
1.349528000E0,-6.118482605E-2,-3.485475549E-1,-1.278084397E-1,3.762498880E-1
1.359499000E0,4.120168150E-1,-4.280772892E-1,2.796442580E-1,6.566650078E-1
1.369470000E0,9.210048046E-1,-4.623358333E-1,7.470168829E-1,1.272807329E0
1.379441000E0,7.468130343E-1,-1.020195875E0,6.899989289E-1,1.440356849E0
1.389412000E0,9.373014332E-1,-1.042853835E-1,3.138264960E-1,9.939298202E-1
1.399383000E0,4.135562407E-1,5.715682536E-2,2.008185285E-1,4.632750245E-1
1.409354000E0,3.796209745E-2,-3.846593741E-1,5.138065338E-1,6.429627587E-1
1.419325000E0,2.467492115E-1,-8.584911257E-2,3.297554809E-1,4.207064543E-1
1.429296000E0,3.920229189E-2,1.104714453E-1,2.431202102E-1,2.699040506E-1
1.439267000E0,-2.345969432E-1,1.536437774E-1,-2.437616497E-1,3.715667880E-1
1.449238000E0,1.840890598E-1,2.991260111E-1,-1.762105215E-1,3.929571228E-1
1.459209000E0,-6.847089529E-3,1.020961860E-1,-2.887308311E-1,3.063266340E-1
1.469180000E0,7.474473841E-2,-2.568187746E-1,-6.757662213E-1,7.267755119E-1
1.479151000E0,2.159401591E-1,-1.803386557E-1,-8.297093761E-1,8.761106276E-1
1.489122000E0,2.090951892E-1,3.246113929E-1,-8.851690471E-2,3.961421424E-1
1.499093000E0,3.120464574E-1,3.157052064E-1,6.434317034E-1,7.816950338E-1
1.509064000E0,2.508473787E-1,4.051243365E-2,6.281839192E-1,6.776287339E-1
1.519035000E0,2.911444887E-1,5.712615672E-1,2.340967870E-1,6.825732174E-1
1.529006000E0,4.269886838E-1,6.201945761E-1,-5.202612752E-1,9.152226192E-1
1.538977000E0,2.648888093E-1,1.959437048E-1,-9.315836602E-1,9.881336614E-1
1.548948000E0,6.901965648E-2,-7.577465236E-2,-5.271697605E-1,5.370414018E-1
1.558919000E0,1.658219927E-1,2.665079033E-1,-2.690257144E-1,4.133983924E-1
1.568890000E0,1.932396600E-1,9.924391419E-2,-3.506358880E-1,4.124759952E-1
1.578861000E0,1.750473641E-1,-1.534145665E-1,4.806580836E-1,5.340503742E-1
1.588832000E0,3.428534632E-1,-3.151690167E-1,1.819536567E-2,4.660590925E-1
1.598803000E0,2.292814587E-1,-3.466092029E-1,6.668667591E-1,7.857602695E-1
1.608774000E0,-5.304126263E-2,-1.579537600E-2,1.037833416E0,1.039307976E0
1.618745000E0,-2.925603919E-1,4.417431092E-1,6.377827084E-1,8.291533879E-1
1.628716000E0,-7.267719220E-1,2.005211976E-1,-5.583915532E-2,7.559921881E-1
1.638687000E0,-1.120662588E0,9.259007514E-2,-7.186701661E-1,1.334520275E0
1.648658000E0,-1.219415774E0,-3.499120027E-2,-2.055384010E-1,1.237111656E0
1.658629000E0,-1.145757814E0,-5.709680369E-1,-1.043084800E-2,1.280185248E0
1.668600000E0,-1.157100755E0,-3.233571652E-1,1.007118577E-1,1.205647084E0
1.678571000E0,-1.140465718E0,-1.400963634E-2,1.899859768E-1,1.156266836E0
1.688542000E0,-1.116629032E0,-6.554106018E-1,6.121888608E-1,1.432200633E0
1.698513000E0,-9.366648176E-1,-5.098348126E-1,7.203091407E-1,1.286902395E0
1.708484000E0,-8.089923256E-1,-6.817485076E-1,2.547164083E-1,1.088177402E0
1.718455000E0,-2.630818735E-1,-1.150739934E0,-9.750290573E-2,1.184449781E0
1.728426000E0,5.631877318E-2,-1.003083998E0,-4.868719196E-1,1.116419982E0
1.738397000E0,2.394727170E-3,-5.839596730E-1,-2.192267329E-1,6.237587634E-1
1.748368000E0,-1.237574156E-2,-8.589416537E-1,1.308296961E-1,8.689363226E-1
1.758339000E0,1.685278648E-1,-8.291100365E-1,4.773269248E-1,9.714247716E-1
1.768310000E0,-1.554321483E-1,3.093755955E-1,3.274779904E-1,4.765650490E-1
1.778281000E0,1.000151619E-2,8.120320737E-3,5.738165081E-1,5.739611092E-1
1.788252000E0,5.640447143E-2,-1.179982737E-1,-3.584927917E-3,1.308354260E-1
1.798222000E0,6.382145984E-1,-5.181934074E-1,-1.879131389E-1,8.432992522E-1
1.808194000E0,-1.694003425E-1,-1.744429082E-1,-4.115931112E-1,4.780540695E-1
1.818165000E0,3.172137515E-1,1.449439976E-1,-2.329074633E-1,4.193795572E-1
1.828136000E0,-4.744039748E-1,-9.917345524E-2,-5.660747945E-2,4.879538013E-1
1.838107000E0,3.069609512E-1,5.168266207E-2,-9.654980958E-2,3.259110137E-1
1.848078000E0,-1.647080616E-1,4.358973554E-1,-5.623208821E-2,4.693583894E-1
1.858049000E0,-1.029152713E-1,8.231534779E-1,3.568292588E-1,9.030505640E-1
1.868020000E0,3.153989585E-1,5.481375834E-1,2.573651969E-1,6.827650826E-1
1.877990000E0,-6.601839032E-2,6.069234431E-1,-9.196676195E-2,6.173915929E-1
1.887962000E0,2.430062626E-1,-1.648566905E-1,-2.018400371E-1,3.563273391E-1
1.897933000E0,-3.055903639E-1,-1.203128940E-1,-5.352412570E-1,6.279680454E-1
1.907904000E0,-2.224383891E-1,-8.520562649E-3,-5.807799572E-1,6.219781311E-1
1.917875000E0,2.657037285E-1,3.088853064E-1,-1.687079591E-1,4.409886385E-1
1.927846000E0,4.191561557E-1,2.385488570E-2,1.067385828E-1,4.331905626E-1
1.937817000E0,5.614463213E-1,-9.372969747E-2,2.616705018E-1,6.264811884E-1
1.947786958E0,5.235177357E-1,-3.228218526E-2,6.316805542E-1,8.210561988E-1
1.957757958E0,5.676408982E-1,-3.577282682E-1,8.364909768E-1,1.072335236E0
1.967728958E0,7.558836007E-1,-5.224726921E-1,2.873087883E-1,9.627481871E-1
1.977699958E0,5.411144927E-1,-2.561843517E-1,-5.911634427E-1,8.413735985E-1
1.987670958E0,3.633494524E-1,-8.018652275E-1,5.121079177E-1,1.018462168E0
1.997641958E0,4.061976295E-1,-3.971902496E-1,6.765591037E-1,8.834527884E-1
2.007612958E0,3.420884281E-2,1.925985128E-2,3.800497216E-1,3.820719535E-1
2.017583958E0,9.789985858E-2,2.390242356E-1,-2.597736651E-1,3.663322598E-1
2.027554958E0,1.983218405E-1,3.367493355E-1,-9.180783463E-1,9.977973328E-1
2.037525958E0,-1.267037545E-1,5.511021218E-1,-3.590044230E-1,6.698145757E-1
2.047496958E0,4.160052374E-1,4.800055343E-1,1.200433373E-1,6.464333479E-1
2.057467958E0,4.969448449E-1,5.675868845E-1,-4.289792222E-1,8.678319097E-1
2.067438958E0,6.331004774E-1,3.376857671E-1,-2.356398672E-1,7.552311161E-1
2.077409958E0,9.152178884E-1,-2.110932559E-2,-3.407985324E-1,9.768382806E-1
2.087380958E0,7.775266309E-1,5.239809814E-1,-8.051680273E-1,1.235879963E0
2.097351958E0,6.766766328E-1,3.099945232E-1,3.177125555E-1,8.092769228E-1
2.107322958E0,3.845729084E-1,1.896939084E-1,1.838440615E-1,4.665605423E-1
2.117293958E0,9.804538116E-2,9.018950075E-2,6.259660703E-1,6.399848154E-1
2.127264958E0,4.514482081E-1,6.961037144E-1,3.171494687E-1,8.882283779E-1
2.137235958E0,3.222326360E-1,5.259552938E-1,2.797191024E-2,6.174506219E-1
2.147206958E0,2.995746388E-1,-4.681427032E-2,1.940696722E-1,3.599994136E-1
2.157177958E0,3.860663969E-1,1.528649282E-1,-2.692315364E-1,4.948742964E-1
2.167148958E0,4.106081477E-1,-2.323218647E-1,-2.753629267E-1,5.462574861E-1
2.177119958E0,5.159615251E-1,-6.445502758E-2,-4.018498957E-1,6.571560581E-1
2.187090958E0,3.091859995E-1,-6.185477078E-2,-2.159885448E-1,3.821950372E-1
2.197061958E0,4.374416781E-1,-9.224427080E-1,6.952047050E-2,1.023273603E0
2.207032958E0,3.730358402E-1,-9.150389636E-1,-4.224753642E-1,1.074680174E0
2.217003958E0,4.149400574E-1,-1.138772730E0,-2.033790243E-1,1.228959564E0
2.226974958E0,-6.414454043E-2,-1.129819766E0,8.198825455E-1,1.397431434E0
2.236945958E0,-6.946550667E-2,-7.343743256E-1,5.126885462E-1,8.983210184E-1
2.246916958E0,-5.333442740E-2,-2.814682969E-1,6.303836417E-1,6.924250855E-1
2.256887958E0,-2.190000802E-1,7.316679418E-2,8.657171148E-1,8.959802106E-1
2.266858958E0,-7.550399937E-2,-1.216390425E-1,1.464079065E0,1.471062343E0
2.276829958E0,-2.283064355E-1,-7.576766494E-1,5.747579098E-1,9.780308729E-1
2.286800958E0,-1.895097211E-2,-2.730181932E-1,-2.563027579E-1,3.749522328E-1
2.296771958E0,-3.126142220E-1,1.666748822E-2,-6.074467689E-1,6.833718124E-1
2.306742958E0,-2.225626425E-1,-9.496223205E-1,9.106044352E-2,9.795961851E-1
2.316713958E0,2.426606190E-1,-9.102544793E-1,-5.001591325E-2,9.433710748E-1
2.326684958E0,2.962573671E-1,-7.895945531E-1,2.814013463E-1,8.890527001E-1
2.336655958E0,8.335681730E-1,-3.046136230E-1,4.060458577E-1,9.759603459E-1
2.346626958E0,8.219781145E-1,1.805146569E-1,5.872335291E-1,1.026195293E0
2.356597958E0,6.315047722E-1,3.038341892E-1,-1.559130818E-1,7.179292311E-1
2.366568958E0,1.017363337E0,-3.548455909E-1,-5.651012331E-1,1.216668795E0
2.376539958E0,6.546053671E-1,3.600934669E-1,-2.978980958E-2,7.477051052E-1
2.386510958E0,8.536149133E-1,1.314637681E0,2.141262066E-1,1.582017916E0
2.396481958E0,9.821764744E-1,8.681603739E-1,-4.734899819E-2,1.311722146E0
2.406452958E0,1.032350847E0,6.603488678E-1,-2.268386382E-1,1.246300392E0
2.416423958E0,7.126277997E-1,2.832648540E-1,-4.853785408E-1,9.075624971E-1
2.426394958E0,6.311764511E-1,7.712620702E-1,-2.026966542E-1,1.017012698E0
2.436365958E0,7.804543318E-1,7.707153556E-1,2.064821416E-1,1.116129920E0
2.446336958E0,8.136195928E-1,6.370716870E-1,-1.252157843E-1,1.040920827E0
2.456307958E0,4.745107596E-1,6.695974088E-1,-1.010460845E0,1.301749696E0
2.466278958E0,-1.748332098E-2,-1.791037238E-1,-5.638838428E-1,5.919026935E-1
2.476249958E0,-2.627756256E-1,4.970864207E-2,-2.651729840E-1,3.766147766E-1
2.486220958E0,-5.272334220E-1,2.072031033E-1,-3.313617110E-3,5.664972969E-1
2.496191958E0,-7.244410756E-1,-4.321457818E-1,-4.170298523E-1,9.409988026E-1
2.506162958E0,-9.777298862E-1,1.437347934E-1,-5.879954213E-1,1.149936536E0
2.516133958E0,-1.184877368E0,-7.814528900E-1,9.923181045E-1,1.731848208E0
2.526104958E0,-2.980334223E-1,-4.169444829E-1,-1.105207958E0,1.218257466E0
2.536075958E0,-7.236928513E-1,-8.584522417E-1,9.478979766E-2,1.126790442E0
2.546046958E0,-5.689364584E-1,-1.059713404E0,-9.645508468E-2,1.206641942E0
2.556017958E0,-9.409041220E-1,-8.954504988E-1,-9.176748884E-1,1.590364538E0
2.565988958E0,-5.146699848E-1,-1.266268052E0,7.190262616E-1,1.544447712E0
2.575959958E0,-2.939931791E-1,-7.251637915E-1,1.101601980E0,1.351229602E0
2.585930958E0,-4.352461583E-1,6.000874633E-1,1.324399023E0,1.517753918E0
2.595901958E0,-5.915567411E-1,8.800825542E-1,1.408888366E0,1.763363578E0
2.605872958E0,-6.353727054E-1,3.553221390E-1,1.828669918E-1,7.505948533E-1
2.615843958E0,-5.592386685E-1,2.403135467E-1,-8.585414118E-1,1.052421895E0
2.625814958E0,-6.787908398E-1,7.020038474E-1,-1.118164803E0,1.484539974E0
2.635785958E0,-5.679548936E-1,1.010892662E0,-7.906172311E-1,1.403407404E0
2.645756958E0,-6.537627102E-1,2.837940270E-1,-4.526382262E-1,8.442902906E-1
2.655727958E0,-7.500746843E-1,2.852014518E-1,-6.441444790E-1,1.029016040E0
2.665698958E0,-6.292427038E-1,4.449693105E-1,-4.044671094E-1,8.703664229E-1
2.675669958E0,-7.324777081E-1,2.155868411E-3,-1.861209673E-1,7.557574049E-1
2.685640958E0,-3.090161744E-1,-2.105140892E-1,6.310964173E-1,7.335460897E-1
2.695611958E0,-4.647434609E-1,-2.112908918E-1,1.299773474E0,1.396438831E0
2.705582958E0,-4.485375373E-1,4.548818028E-1,-1.199854499E-1,6.499999116E-1
2.715553958E0,-4.265167039E-1,1.748335022E-1,-1.886481339E-1,4.980676365E-1
2.725524958E0,-1.066408613E0,-4.754014367E-1,-6.023801565E-2,1.169128938E0
2.735495958E0,-4.573864211E-1,-6.496484631E-1,-2.953136265E-2,7.950582150E-1
2.745466958E0,-3.452750145E-1,-1.811359236E-1,-3.742516226E-1,5.404528984E-1
2.755437958E0,-7.297855038E-1,-3.244134647E-1,3.563293219E-3,7.986511596E-1
2.765408958E0,-8.719303662E-1,-6.321176335E-1,2.085742754E-1,1.096967864E0
2.775379958E0,-1.052259959E0,-1.706829146E0,8.970119977E-1,2.196621788E0
2.785350958E0,-7.034499369E-1,-7.711483419E-1,4.736835247E-1,1.146249388E0
2.795321958E0,-8.009371282E-1,-1.600695750E-1,6.331061053E-1,1.033414676E0
2.805292958E0,-1.807195287E-2,-8.647710353E-1,1.242809315E0,1.514176519E0
2.815263958E0,2.055526536E-1,-4.742986518E-1,9.258878875E-1,1.060414770E0
2.825234958E0,1.049515276E-1,-1.159476551E-1,9.523781133E-1,9.651335413E-1
2.835205958E0,1.003997260E-1,-3.932141429E-1,1.161932382E0,1.230765748E0
2.845176958E0,-1.312463102E-1,-3.116098166E-2,9.480254459E-1,9.575744602E-1
2.855147958E0,-1.234611080E-1,-1.197264183E-1,1.827763599E-1,2.509666475E-1
2.865118958E0,6.998251017E-2,-3.638558578E-1,-5.941899616E-1,7.002502034E-1
2.875089958E0,-3.372286245E-1,-7.342149889E-1,-7.950809956E-1,1.133555726E0
2.885060958E0,-4.658249034E-1,-3.348267710E-1,-9.498655647E-1,1.109660488E0
2.895031958E0,2.256784044E-1,-5.153770959E-1,1.091862273E-1,5.731194688E-1
2.905002958E0,3.865070942E-1,1.101150575E-1,3.642739338E-1,5.424099544E-1
2.914973958E0,2.400178968E-1,8.001245114E-1,1.288252705E-1,8.452240974E-1
2.924944958E0,3.398054193E-1,2.499421567E-1,3.710537803E-1,5.618004206E-1
2.934915958E0,5.708092120E-2,5.309090549E-1,-3.720583320E-2,5.352634213E-1
2.944886583E0,3.676690830E-1,7.460634944E-1,-3.510282362E-1,9.027802140E-1
2.954857583E0,-4.413076378E-2,2.208557671E-1,-4.648928207E-1,5.165753855E-1
2.964828583E0,5.458072487E-2,4.500025937E-1,-8.620351231E-1,9.739537686E-1
2.974799583E0,-5.846365248E-1,2.705936453E-1,-6.918612671E-1,9.453532672E-1
2.984770583E0,-2.558582233E-1,2.863539380E-1,-5.857816654E-1,7.004299878E-1
2.994741583E0,1.445190512E-2,-2.533604389E-1,-4.763141870E-2,2.582036437E-1
3.004712583E0,-8.299366135E-2,-3.234606609E-1,1.701329255E-1,3.747798811E-1
3.014683583E0,2.447971916E-1,-2.472120917E-1,2.251482081E-1,4.144046319E-1
3.024654583E0,2.566076536E-1,-9.771396098E-1,-5.478607178E-2,1.011756304E0
3.034625583E0,6.312444980E-1,-5.671848884E-1,-8.145791209E-1,1.176310953E0
3.044596583E0,1.013616222E0,-4.597411314E-1,5.470678353E-1,1.240186667E0
3.054567583E0,1.155205745E0,-7.309037107E-1,1.673306474E0,2.160711712E0
3.064538583E0,1.015764562E0,-9.274327219E-2,7.870206088E-1,1.288324648E0
3.074509583E0,1.592697636E0,3.551101774E-2,-2.563413495E-1,1.613585350E0
3.084480583E0,1.619013469E0,-3.409362343E-1,-5.350412822E-1,1.738882199E0
3.094451583E0,1.376546977E0,-4.674039075E-1,-4.366466761E-1,1.517896015E0
3.104422583E0,1.124581392E0,-5.551022020E-1,5.940139604E-1,1.387686689E0
3.114393583E0,5.848736659E-1,-2.633726263E-1,1.050581515E0,1.230919927E0
3.124364583E0,6.419342315E-1,2.963693413E-1,9.613085657E-1,1.193326654E0
3.134335583E0,5.898375135E-1,9.626238969E-1,1.908636439E-1,1.144981218E0
3.144306583E0,7.396462483E-1,6.141947481E-1,-5.092416126E-1,1.087951645E0
3.154277583E0,6.997745233E-1,-1.530040920E-2,-6.715901399E-1,9.700267017E-1
3.164248583E0,1.047095259E0,1.173128046E0,-2.610290623E-1,1.593980572E0
3.174219583E0,1.298477439E0,8.089625779E-1,-6.947989082E-1,1.680240945E0
3.184190583E0,1.020224014E0,3.117603824E-1,-9.788718474E-1,1.447840347E0
3.194161583E0,7.314129301E-1,1.754381043E-1,-4.617429256E-1,8.825814026E-1
3.204132583E0,8.337438087E-1,6.927819112E-1,-5.957102376E-1,1.236909941E0
3.214103583E0,5.414578705E-1,3.576124933E-1,6.510172963E-2,6.521514825E-1
3.224074583E0,4.157504084E-1,-1.122077760E-1,3.882328999E-1,5.797963191E-1
3.234045583E0,3.407374290E-1,-6.442316025E-2,1.362179053E-1,3.725689960E-1
3.244016583E0,3.567530257E-1,3.250981736E-1,-7.938998580E-2,4.891465156E-1
3.253987583E0,7.288872984E-1,-2.180996820E-1,-4.895727485E-1,9.047240691E-1
3.263958583E0,3.923184957E-1,-8.688579467E-1,-5.930889308E-2,9.551677750E-1
3.273929583E0,8.451097727E-1,-5.317472532E-1,1.589659131E-1,1.011056789E0
3.283900583E0,4.776594852E-1,-1.232388407E-1,2.408994377E-1,5.489799037E-1
3.293871583E0,2.978236169E-1,-5.365460631E-1,1.666257656E-1,6.358810662E-1
3.303842583E0,7.170813315E-2,-2.271956107E-1,5.948197067E-2,2.455565245E-1
3.313813583E0,-4.741580263E-1,-5.948024574E-1,4.594993490E-1,8.886818604E-1
3.323784583E0,-1.959261632E-1,-3.712625259E-1,2.330875576E-1,4.801590716E-1
3.333755583E0,-5.697859492E-1,-1.031653494E-1,4.587608457E-1,7.387561375E-1
3.343726583E0,-1.041491434E0,-3.342373717E-1,4.229361248E-1,1.172729292E0
3.353697583E0,-8.858069053E-1,-3.647712395E-1,2.199617279E-1,9.829013645E-1
3.363668583E0,-1.101996083E0,-1.111728188E-1,6.212537992E-1,1.269925606E0
3.373639583E0,-6.326811589E-1,-5.341104054E-1,6.390562320E-1,1.045921719E0
3.383610583E0,-8.511838603E-1,-3.615915236E-1,6.238926476E-1,1.115573588E0
3.393581583E0,-5.477928535E-1,-6.661016509E-1,8.486970395E-1,1.209981440E0
3.403552583E0,-1.346126253E-1,-5.801048961E-1,6.464991528E-1,8.789786140E-1
3.413523583E0,-6.739926146E-1,-2.715648678E-1,-9.386359870E-2,7.326826715E-1
3.423494583E0,-1.573678325E-1,-3.692306185E-1,-1.513890910E-1,4.289691611E-1
3.433465583E0,-4.364820769E-1,-4.010339168E-1,-2.919871455E-1,6.607581245E-1
3.443436583E0,-3.139181146E-1,-6.279512000E-1,-4.188582766E-1,8.175020172E-1
3.453407583E0,-2.518317575E-1,-2.955785054E-1,-2.049098253E-1,4.390602731E-1
3.463378583E0,-5.870201788E-1,4.649349207E-1,-6.184336871E-1,9.711937995E-1
3.473349583E0,-2.262125110E-1,2.386298409E-1,4.931465667E-1,5.927139592E-1
3.483320583E0,-4.243048118E-1,1.089833289E-2,-1.615305018E-1,4.541425437E-1
3.493291583E0,-3.286704935E-1,4.086773971E-1,-2.819819748E-1,5.954454990E-1
3.503262583E0,-5.480241475E-1,3.447500807E-1,-6.466669679E-2,6.506649414E-1
3.513233583E0,-7.159307456E-1,1.001564014E0,-2.691186851E-1,1.260203227E0
3.523204583E0,-2.639736835E-1,7.518270949E-1,-4.560044682E-1,9.180774266E-1
3.533175583E0,-3.768307197E-1,3.121118000E-1,-5.497259796E-1,7.359441688E-1
3.543146583E0,-9.230926260E-3,2.326107171E-1,-2.119849563E-1,3.148500872E-1
3.553117583E0,-1.097707296E-1,2.105784085E-1,-6.480246913E-1,6.901658350E-1
3.563088583E0,-3.468999557E-1,2.011024109E-1,-8.969044089E-3,4.010763053E-1
3.573059583E0,-2.800615299E-1,-3.208291215E-1,-8.119502127E-2,4.335417134E-1
3.583030583E0,-4.055004221E-1,-2.664029458E-1,-5.070763886E-1,7.018030961E-1
3.593001583E0,-1.702752687E-1,-6.145391491E-1,-3.870441610E-1,7.459592586E-1
3.602972583E0,-2.983076933E-1,-4.798213470E-1,3.377246511E-1,6.582354783E-1
3.612943583E0,-2.221932446E-1,-2.613705397E-3,9.527383018E-1,9.783082035E-1
3.622914583E0,9.392740645E-2,-5.580307800E-1,4.422588336E-1,7.182016326E-1
3.632885583E0,-1.814335834E-1,-6.542081219E-1,4.297738588E-1,8.034998330E-1
3.642856583E0,-1.752297241E-2,1.755568027E-2,3.506224394E-1,3.514987219E-1
3.652827583E0,-1.084544848E-1,4.312906265E-1,-2.991809750E-1,5.359880928E-1
3.662798583E0,-1.150529946E-1,-1.008732408E-2,-2.908124399E-1,3.129070483E-1
3.672769583E0,-7.300530139E-2,-1.913401920E-1,-2.995230371E-1,3.628427935E-1
3.682740583E0,-2.548977085E-1,6.563458639E-1,-1.176822317E-1,7.138710266E-1
3.692711583E0,-1.085606483E-1,4.135943207E-1,-2.047531199E-1,4.740986360E-1
3.702682583E0,-3.970136271E-1,1.535899830E-1,-3.295631075E-1,5.383507637E-1
3.712653583E0,3.264595516E-2,2.042429504E-1,6.536619920E-1,6.856055286E-1
3.722624583E0,2.305446766E-1,5.053757259E-1,5.293507719E-1,7.673120043E-1
3.732595583E0,2.664086103E-1,7.645465431E-1,2.440276980E-1,8.456089413E-1
3.742566583E0,2.317660137E-1,6.933835897E-1,-7.958352864E-2,7.354113309E-1
3.752537583E0,7.797448453E-2,-4.858539194E-2,9.056167603E-3,9.231779199E-2
3.762508583E0,1.403676377E-1,-4.089756051E-1,-2.630340725E-1,5.061136657E-1
3.772479583E0,-3.493605006E-1,-1.322160709E-1,-4.423313391E-1,5.789567016E-1
3.782450583E0,-8.597343899E-2,-5.353938693E-1,3.222400546E-2,5.432093648E-1
3.792421583E0,-1.502267376E-1,-8.312805229E-1,1.621082067E-1,8.601595499E-1
3.802392583E0,2.263881102E-1,-6.921164981E-1,3.369545728E-1,8.023809615E-1
3.812363583E0,3.476664161E-1,-1.011884642E0,5.149268603E-1,1.187405633E0
3.822334583E0,3.014212991E-1,-6.536751482E-1,6.024052995E-1,9.386363214E-1
3.832305583E0,9.570576400E-3,-1.120553391E0,5.537266445E-1,1.249937876E0
3.842276583E0,-7.266700342E-3,-8.636667886E-1,3.247982115E-1,9.227496979E-1
3.852247583E0,-3.820683632E-1,-2.504613894E-1,5.287794989E-1,6.987953207E-1
3.862218583E0,-3.569359705E-3,-4.139384294E-1,4.903094977E-1,6.416861906E-1
3.872188583E0,-1.715704635E-2,-5.051547012E-1,3.932533193E-1,6.404090954E-1
3.882159583E0,2.649459293E-1,-9.992681050E-1,1.045131326E-2,1.033848307E0
3.892130583E0,2.292738573E-1,-1.450882776E0,6.224127173E-1,1.595313424E0
3.902101583E0,-2.095378965E-2,-8.569521385E-1,4.161913615E-1,9.529015051E-1
3.912072583E0,5.149796315E-1,-7.190388331E-1,4.162077338E-1,9.774710952E-1
3.922043583E0,1.518680876E-1,-6.726063859E-1,5.129621959E-1,8.594146152E-1
3.932014583E0,-2.682614833E-2,-6.852416342E-1,4.242786455E-1,8.064044324E-1
3.941985583E0,-2.843098976E-3,-5.862854031E-1,6.416173124E-1,8.691440805E-1
3.951956583E0,7.137975352E-1,6.335972714E-1,3.893269140E-1,1.030789925E0
3.961927583E0,-8.213759243E-2,3.914196324E-1,1.205713409E-1,4.177240249E-1
3.971898583E0,5.966113301E-1,-3.115601152E-1,2.483482057E-1,7.174201111E-1
3.981869583E0,1.962393547E-1,9.699361324E-3,5.630342424E-2,2.043869798E-1
3.991840583E0,9.267987375E-1,7.762456521E-1,-4.816988879E-1,1.301363528E0
4.001811583E0,-1.385686687E-1,1.222269800E0,-6.382113093E-1,1.385806053E0
4.011782583E0,-2.879474504E-1,5.330514747E-1,-8.938258499E-1,1.079806584E0
4.021753583E0,-2.914452548E-1,5.781934413E-1,-9.822848672E-1,1.176491204E0
4.031724583E0,-2.900319463E-1,3.645990390E-1,-6.188231117E-1,7.745921718E-1
4.041695583E0,-1.036110899E-1,7.741631663E-1,1.589214742E-2,7.812275125E-1
4.051666583E0,-2.578644761E-1,3.537898761E-1,3.960687536E-1,5.903658375E-1
4.061637583E0,3.284305018E-1,1.388336572E-1,-5.658689725E-1,6.688415903E-1
4.071608583E0,1.515025635E-1,-7.307002276E-2,-1.243112200E-1,2.091543316E-1
4.081579583E0,6.107897317E-1,5.667027855E-1,3.265131998E-1,8.948893860E-1
4.091550583E0,5.352039079E-1,5.191485500E-1,1.644225347E-1,7.635399203E-1
4.101521583E0,4.311759846E-1,-5.528197414E-1,1.215256065E-1,7.115411929E-1
4.111492583E0,5.454326249E-1,-4.449146390E-3,-8.402630156E-1,1.001777659E0
4.121463583E0,4.024127999E-1,-3.913845491E-1,-2.553414756E-1,6.166986265E-1
4.131434583E0,3.476140835E-1,-4.954550475E-1,8.852626026E-2,6.116765108E-1
4.141405583E0,-2.123091113E-2,-1.736029556E-1,-2.795781845E-1,3.297767412E-1
4.151376583E0,4.181271554E-1,-1.893784511E-1,-8.267495155E-2,4.664007541E-1
4.161347583E0,4.705013238E-2,-7.596877992E-1,-1.396057820E-1,7.738404497E-1
4.171318583E0,5.136587820E-1,1.075016445E-1,2.929531056E-1,6.010186935E-1
4.181289583E0,3.808465509E-1,6.753694877E-1,1.090328549E0,1.337902980E0
4.191260583E0,4.614701530E-1,1.435865664E-1,6.303333557E-1,7.942870662E-1
4.201231583E0,1.152355008E0,8.283083832E-1,-3.699112344E-1,1.466578046E0
4.211202583E0,1.052105007E0,8.588279253E-1,-3.067858636E-1,1.392346192E0
4.221173583E0,1.374444026E0,-1.011661863E-1,2.199839473E-2,1.378337734E0
4.231144583E0,9.846148364E-1,2.349110118E-1,-1.671952844E-1,1.025964825E0
4.241115583E0,6.940380393E-1,2.562951565E-2,2.684415776E-1,7.445848190E-1
4.251086583E0,7.770965682E-1,3.006266990E-1,-1.161754042E-1,8.412801038E-1
4.261057583E0,9.540740982E-2,9.503684253E-2,-1.309425473E-1,1.878311103E-1
4.271028583E0,1.701875970E-1,-7.213666096E-1,5.699357110E-1,9.349654102E-1
4.280999583E0,1.100769044E-1,-2.662544265E-1,3.649288219E-1,4.649531047E-1
4.290970583E0,2.128857929E-1,-4.020019233E-2,5.674155611E-1,6.073687803E-1
4.300941583E0,3.795918846E-1,-4.816491866E-1,1.309945875E-1,6.270849383E-1
4.310912583E0,-1.689971770E-1,-9.190194556E-1,-3.216465622E-1,9.882374799E-1
4.320883583E0,-1.571293026E-3,-1.405900731E0,3.732476556E-1,1.454604120E0
4.330854583E0,-6.789832132E-1,-1.151152748E0,4.021065885E-1,1.395657752E0
4.340825583E0,-4.472746483E-1,-6.523191789E-1,2.726463103E-1,8.366067970E-1
4.350796583E0,-4.885888814E-1,-7.273152745E-1,6.919729489E-1,1.116482497E0
4.360767583E0,-5.540635903E-1,-9.702793640E-1,4.160305631E-1,1.192270915E0
4.370738583E0,-5.009131309E-1,-3.727254993E-1,1.228463756E0,1.378028106E0
4.380709583E0,-5.973001686E-1,-8.831312925E-2,1.393463411E0,1.518653014E0
4.390680583E0,-1.935352367E-1,3.451804358E-1,3.990929335E-1,5.620325531E-1
4.400651583E0,-6.266945603E-1,-2.946695557E-1,-9.217930824E-1,1.152943496E0
4.410622583E0,-2.495311705E-1,-2.460537583E-1,-1.766456128E0,1.800881870E0
4.420593583E0,-2.457430518E-1,-5.973036039E-1,-8.535841423E-1,1.070405125E0
4.430564583E0,-2.159669832E-1,-8.737625912E-1,-1.505506003E-1,9.125613880E-1
4.440535583E0,-1.450822842E-1,-2.208931893E-1,-1.330697644E-1,2.958888853E-1
4.450506583E0,-2.314482176E-1,3.740551561E-2,7.581762940E-1,7.935986030E-1
4.460477583E0,2.363311543E-1,2.880844215E-1,8.131471378E-1,8.944569951E-1
4.470448583E0,4.897842716E-1,7.150943014E-1,3.643166184E-1,9.401994953E-1
4.480419583E0,1.003081367E0,3.496108711E-2,9.534785593E-1,1.384382848E0
4.490390583E0,1.134858312E0,-1.641488850E-2,2.496807861E-1,1.162115885E0
4.500361583E0,1.070641558E0,5.703374147E-1,-7.462865657E-1,1.424254805E0
4.510332583E0,9.822070992E-1,1.291828278E-1,-7.462380338E-1,1.240278272E0
4.520303583E0,7.967791001E-1,-3.390075302E-1,-4.747886485E-1,9.875258481E-1
4.530274583E0,4.043706304E-1,-7.199819890E-1,-4.402427137E-1,9.357902105E-1
4.540245583E0,1.494512507E-1,-3.137738711E-1,1.602236491E-1,3.827026734E-1
4.550215583E0,2.523784722E-1,1.071168977E-1,5.091281766E-1,5.782563646E-1
4.560186583E0,-1.406067523E-1,-5.177382016E-1,1.989988750E-1,5.722094516E-1
4.570157583E0,-1.770039886E-1,-6.350850955E-1,2.412619650E-2,6.597314331E-1
4.580128583E0,-5.218186811E-2,-4.901656562E-1,5.743065047E-1,7.568442900E-1
4.590099583E0,3.008797373E-1,-4.874443620E-2,8.883926171E-1,9.392263191E-1
4.600070583E0,3.454937734E-1,3.948683202E-1,7.628862262E-3,5.247333964E-1
4.610041583E0,1.578863709E-1,2.694876444E-1,-2.071294284E-1,3.747723265E-1
4.620012583E0,3.637094582E-1,-1.896599945E-1,-1.144498909E-1,4.258570899E-1
4.629983583E0,3.472658452E-1,1.542413628E-1,-1.921248883E-1,4.257886071E-1
4.639954583E0,3.959060548E-1,1.432272550E-1,-3.480841631E-1,5.462767022E-1
4.649925583E0,1.570766046E-1,2.984088501E-1,-4.481007868E-1,5.608165624E-1
4.659896583E0,2.334139784E-1,1.105909332E0,1.559686303E-1,1.140983676E0
4.669867583E0,2.345122316E-1,1.089099464E0,5.441138220E-1,1.239836070E0
4.679838583E0,2.498347141E-1,1.750159061E0,-5.324977434E-1,1.846355320E0
4.689809583E0,-9.682857558E-2,7.533435702E-1,-9.048396653E-1,1.181370868E0
4.699780583E0,-5.430140338E-1,4.385519913E-1,-1.120038836E0,1.319726898E0
4.709751583E0,-1.770501085E-1,4.608196503E-1,-2.511946303E-1,5.538955076E-1
4.719722583E0,-5.109297768E-1,5.370872229E-2,2.578265423E-1,5.748116122E-1
4.729693583E0,-9.726930946E-2,2.305735472E-1,1.828190446E-1,3.099165731E-1
4.739664583E0,-5.771653546E-1,1.733889475E-1,-5.852139008E-1,8.400350489E-1
4.749635583E0,-7.365775564E-1,-3.589564759E-1,-8.921623170E-2,8.242304194E-1
4.759606583E0,-6.813758938E-1,-9.366505650E-1,9.313410008E-1,1.486264932E0
4.769577583E0,-8.369371194E-1,-1.502567777E-1,8.146615666E-1,1.177588345E0
4.779548583E0,-2.010862579E-1,-4.675842941E-2,6.955643088E-1,7.255561601E-1
4.789519583E0,-7.690405668E-1,-1.719367915E-1,3.840679282E-1,8.766377970E-1
4.799490583E0,-3.704760389E-1,-1.251443313E0,8.464552170E-1,1.555586480E0
4.809461583E0,-5.117982345E-1,-8.331665424E-1,-2.045835507E-1,9.989786531E-1
4.819432583E0,-3.385121249E-2,-9.168285039E-1,4.463729346E-1,1.020278985E0
4.829403583E0,3.853470432E-1,-1.120703080E0,2.768656611E-1,1.217013694E0
4.839374583E0,2.552435347E-1,-7.280204487E-1,-5.230392873E-2,7.732391200E-1
4.849345583E0,3.632801264E-1,-1.413749741E0,5.164360267E-1,1.548343292E0
4.859316583E0,2.961550774E-1,-5.922951713E-1,7.206693292E-3,6.622486967E-1
4.869287583E0,2.234135220E-1,-7.405352443E-2,7.689538819E-1,8.041688869E-1
4.879258583E0,2.289267154E-1,-7.647169894E-1,8.165823770E-1,1.141930949E0
4.889229583E0,1.918372418E-1,-6.202100712E-1,-4.283670187E-1,7.777919789E-1
4.899200583E0,6.635041715E-1,-1.419877915E0,-4.443866354E-1,1.629039767E0
4.909171583E0,-2.411673498E-1,-1.536843570E0,-4.378231359E-1,1.616087544E0
4.919142583E0,2.818869941E-1,-9.185402763E-1,-3.674583274E-1,1.028689525E0
4.929113583E0,-2.174092355E-1,-4.729999852E-1,-8.250421286E-2,5.270699259E-1
4.939084583E0,-4.572600847E-1,3.975311422E-1,3.953466225E-1,7.234754633E-1
4.949055333E0,-5.532264152E-1,-2.503108236E-1,6.382241732E-1,8.809342031E-1
4.959026333E0,-7.021583600E-1,1.856137213E-1,-1.808906329E-1,7.484652545E-1
4.968997333E0,-2.605029590E-1,4.601203233E-2,8.376668519E-1,8.784444510E-1
4.978968333E0,-9.588501039E-1,2.262267271E-1,5.708502156E-1,1.138614080E0
4.988939333E0,-1.309963271E0,1.103514605E0,2.326460928E-1,1.728546342E0
4.998910333E0,-1.197988068E0,4.434016719E-1,-6.545741576E-1,1.435356326E0
5.008881333E0,-8.397609591E-1,1.725890484E-1,1.449121302E-1,8.694739637E-1
5.018852333E0,-4.062521913E-1,-2.126617715E-1,3.812811452E-1,5.963565910E-1
5.028823333E0,-6.744814418E-1,5.306070462E-1,4.006851304E-1,9.471101449E-1
5.038794333E0,5.315508233E-2,6.481659016E-1,5.975398314E-1,8.831751519E-1
5.048765333E0,2.396953681E-1,3.987134492E-1,-5.619887602E-1,7.295599021E-1
5.058736333E0,2.751823208E-1,-5.873107123E-1,-8.974803597E-1,1.107307626E0
5.068707333E0,4.810896081E-1,-6.951310301E-1,-8.126378453E-1,1.172618705E0
5.078678333E0,2.696553133E-3,-2.040473610E-2,4.484755933E-2,4.934499197E-2
5.088649333E0,-3.257723210E-2,-3.484107301E-1,-1.235230154E-1,3.710919673E-1
5.098619333E0,-2.624706750E-1,-3.611219922E-1,-1.583753443E-1,4.736905088E-1
5.108590333E0,3.953293366E-2,-8.621280938E-1,2.228315413E-2,8.633216330E-1
5.118561333E0,-4.384512364E-1,-4.642899728E-1,3.451324886E-1,7.258933119E-1
5.128532333E0,-5.659427205E-1,2.060912552E-1,8.068561184E-1,1.006867203E0
5.138503333E0,-2.133032476E-1,5.607313165E-1,6.419389093E-1,8.786372676E-1
5.148474333E0,-6.932751238E-2,5.192988235E-1,-2.889378226E-1,5.982997889E-1
5.158445333E0,4.221512823E-1,2.837726846E-1,-1.270140370E0,1.368208757E0
5.168416333E0,1.451749260E-1,2.964143649E-1,-1.126094213E0,1.173467260E0
5.178387333E0,3.801917358E-1,2.767086634E-1,-3.770138472E-1,6.027046386E-1
5.188358333E0,-5.663496502E-1,6.545887756E-1,6.485585421E-1,1.081603705E0
5.198329333E0,-1.748219356E-1,1.137603579E0,1.610837746E-1,1.162175802E0
5.208300333E0,-2.267224430E-1,1.705789804E0,-3.608193988E-1,1.758212888E0
5.218271333E0,-6.138982943E-1,7.664182368E-1,3.561655998E-1,1.044567836E0
5.228242333E0,-2.887037147E-1,3.430532187E-1,-2.470220572E-1,5.119133154E-1
5.238213333E0,-9.864928890E-1,2.620587569E-1,-8.648850560E-1,1.337859923E0
5.248184333E0,-3.609467219E-1,5.634599197E-1,-5.903980422E-1,8.923785438E-1
5.258155333E0,-5.747389429E-1,-3.433449948E-1,6.320413274E-1,9.206991242E-1
5.268126333E0,-1.155378750E-2,-1.648422186E0,9.896201992E-1,1.922700531E0
5.278097333E0,-1.829292646E-1,-9.478824815E-1,6.055838460E-1,1.139594713E0
5.288068333E0,-5.174504455E-1,-6.503226471E-1,-9.745378911E-2,8.367626604E-1
5.298039333E0,1.205989507E-1,-5.280597067E-1,4.535574085E-1,7.064739794E-1
5.308010333E0,-1.372007491E-1,-1.412884060E0,4.912438828E-1,1.502127147E0
5.317981333E0,3.620366429E-1,-1.290775779E0,1.456167197E-1,1.348472051E0
5.327952333E0,-1.413789867E-1,-8.976686400E-1,7.462234157E-1,1.175859852E0
5.337923333E0,-5.973782290E-2,-5.510784405E-1,-2.099857932E-1,5.927479131E-1
5.347894333E0,-6.606578931E-1,-1.746986069E0,1.547407150E-1,1.874132830E0
5.357865333E0,-3.351227498E-1,-2.487763388E0,-3.632875085E-3,2.510236469E0
5.367836333E0,-6.464154645E-1,-1.391426241E0,1.855227971E-1,1.545425069E0
5.377807333E0,-4.544665774E-1,-2.259153628E-1,2.027983958E-1,5.465389377E-1
5.387778333E0,-9.530541245E-2,-5.658923614E-1,1.485577523E0,1.592563299E0
5.397749333E0,-2.812437821E-1,-2.389692718E-1,4.328530025E-1,5.688287085E-1
5.407720333E0,5.243711734E-2,4.782230106E-1,-4.593403047E-1,6.651619462E-1
5.417691333E0,1.113776176E-1,3.132420668E-1,9.860452116E-2,3.467685362E-1
5.427662333E0,1.132462854E0,2.154087934E-1,4.255778968E-1,1.228816345E0
5.437633333E0,9.020151678E-1,-1.270716906E-2,2.288845789E-1,9.306884471E-1
5.447604333E0,9.322413258E-1,7.371728030E-1,2.193582952E-2,1.188687853E0
5.457575333E0,8.570658669E-1,1.047755556E0,1.865934223E-1,1.366444551E0
5.467546333E0,1.263269015E-2,4.653041723E-1,1.173723292E-1,4.800456450E-1
5.477517333E0,-8.096822239E-3,-4.006044388E-2,-5.185509646E-1,5.201591108E-1
5.487488333E0,-5.568002700E-1,2.700016147E-1,-1.270150310E0,1.412872685E0
5.497459333E0,-5.257431860E-1,2.587618044E-1,-6.348953533E-1,8.639766656E-1
5.507430333E0,-7.521143393E-1,-5.736516166E-1,-1.369230795E-1,9.557719845E-1
5.517401333E0,-3.580505594E-1,-1.084621666E0,1.449010205E-1,1.151347327E0
5.527372333E0,-5.422571483E-1,-9.911922231E-1,-3.300069112E-1,1.177034154E0
5.537343333E0,-1.137247338E0,3.208130416E-1,4.246639770E-1,1.255624151E0
5.547314333E0,-4.903266739E-1,3.899011105E-2,9.288161731E-1,1.051018534E0
5.557285333E0,-5.707072146E-1,-8.558101773E-2,4.873268330E-1,7.553266032E-1
5.567256333E0,-1.348303062E-1,-1.741935244E-1,-4.801458675E-1,5.282638067E-1
5.577227333E0,-7.849125414E-1,3.609266952E-1,-4.628924882E-1,9.801149078E-1
5.587198333E0,-6.733324639E-1,-1.850608671E-1,-8.045184016E-3,6.983472321E-1
5.597169333E0,-8.126429616E-1,-7.479553610E-2,-2.989792460E-1,8.691211336E-1
5.607140333E0,-5.698227136E-1,2.662468252E-1,-4.911345398E-1,7.979965119E-1
5.617111333E0,-4.160838459E-1,8.857607853E-1,-3.324574792E-1,1.033550149E0
5.627082333E0,-8.142388860E-1,7.590142000E-1,-1.684033191E-1,1.125809574E0
5.637053333E0,-6.899030346E-1,8.292606023E-1,-1.492302990E-1,1.088994502E0
5.647023333E0,-5.883782312E-1,9.040137461E-1,-1.385971373E-1,1.087492052E0
5.656994333E0,-5.753129567E-1,9.088567024E-1,-2.166966426E-1,1.097252450E0
5.666965333E0,-8.500599524E-1,1.171916503E0,2.546263611E-1,1.469974420E0
5.676936333E0,-5.676213100E-1,8.023023069E-2,4.086800283E-1,7.040242943E-1
5.686907333E0,-5.811526075E-1,2.913237789E-1,-3.293549466E-1,7.287541274E-1
5.696878333E0,-4.707705150E-1,-1.275920928E-1,3.215956914E-1,5.842331800E-1
5.706849333E0,-1.790246767E-1,-2.605013511E-1,5.802309036E-2,3.213681188E-1
5.716820333E0,4.038640057E-1,-5.883687660E-1,9.818586051E-2,7.203640768E-1
5.726791333E0,1.543603902E-1,-1.595814787E0,-2.309942544E-1,1.619817987E0
5.736762333E0,4.848867899E-1,-1.894511905E0,5.648351848E-1,2.035516972E0
5.746733333E0,3.473900986E-1,-1.220793963E0,4.983406484E-2,1.270236677E0
5.756704333E0,2.920465313E-1,-1.953893303E0,3.855899584E-1,2.012876010E0
5.766675333E0,7.721584484E-1,-2.415780070E0,6.145967442E-1,2.609588315E0
5.776646333E0,8.743158840E-1,-1.292045209E0,7.009314680E-1,1.710296469E0
5.786617333E0,8.985458685E-1,-1.045791769E0,8.436023605E-1,1.616394149E0
5.796588333E0,6.609012835E-1,-1.475839862E0,6.763661456E-1,1.752816296E0
5.806559333E0,5.973059428E-1,-1.615747360E0,5.344530523E-2,1.723447221E0
5.816530333E0,4.011899643E-1,-1.601746787E0,3.347226906E-1,1.684810208E0
5.826501333E0,1.047416125E-1,-7.739854109E-1,7.424928921E-1,1.077645543E0
5.836472333E0,3.071031116E-1,-2.857431963E-1,1.072996817E0,1.152077976E0
5.846443333E0,1.649655218E-1,-5.564818525E-1,1.256419294E0,1.384006907E0
5.856414333E0,-1.189233032E-1,5.414872527E-2,7.866422939E-1,7.974214288E-1
5.866385333E0,1.003735232E-1,8.669084850E-1,8.278523004E-1,1.202890102E0
5.876356333E0,-2.900229196E-1,1.060741345E0,2.700033689E-1,1.132337103E0
5.886327333E0,-6.678960883E-1,9.766700783E-1,-8.050212622E-1,1.431093589E0
5.896298333E0,-2.425491199E-1,4.847286227E-1,-1.421761011E0,1.521576907E0
5.906269333E0,-4.417790696E-3,2.141782469E-1,-1.093718179E0,1.114500469E0
5.916240333E0,5.525291713E-1,1.189012592E0,-6.774174750E-1,1.475782458E0
5.926211333E0,1.762886183E-1,1.019591272E0,-2.446416557E-1,1.063246716E0
5.936182333E0,3.858132855E-1,8.074639365E-1,5.241385639E-2,8.964357826E-1
5.946154708E0,-3.253292117E-2,1.172568760E0,2.114756638E-1,1.191930301E0
5.956125708E0,2.731509981E-1,8.078507298E-1,5.414112389E-2,8.544972386E-1
5.966096708E0,4.317821215E-1,1.014945075E-1,2.464110231E-1,5.074005596E-1
5.976067708E0,5.080883954E-1,-3.560989416E-1,-4.514524108E-1,7.673132040E-1
5.986038708E0,2.492833216E-1,-5.690405023E-1,-1.024883003E0,1.198471709E0
5.996009708E0,-1.800394244E-2,-7.067725441E-1,-5.216523278E-1,8.786197824E-1
6.005980708E0,1.415392004E-1,-1.269093719E0,3.706783891E-2,1.277499995E0
6.015951708E0,-1.842483599E-1,-4.282442272E-1,4.453707218E-2,4.683205388E-1
6.025922708E0,-2.082613762E-2,-7.853763717E-1,5.279538721E-1,9.465648759E-1
6.035893708E0,-3.733493241E-1,-2.176017916E-1,9.134824347E-1,1.010539666E0
6.045864708E0,2.855869295E-1,1.816811764E-1,3.770173556E-1,5.066656003E-1
6.055835708E0,-7.406368397E-2,2.194451264E-1,-1.076361305E-1,2.553960245E-1
6.065806708E0,6.444896109E-2,9.565869391E-2,-1.434152430E-1,1.840439791E-1
6.075777708E0,-1.938270128E-1,5.631903630E-1,-2.225333333E-1,6.358249605E-1
6.085748708E0,-7.860254858E-2,3.805835724E-1,-5.684955418E-2,3.927519421E-1
6.095719708E0,-1.789685434E-1,5.907099912E-1,-4.876279646E-1,7.866060418E-1
6.105690708E0,-4.965979223E-1,2.379486403E-1,-5.040194643E-1,7.465016224E-1
6.115661708E0,-2.444841829E-1,1.177492115E0,-3.676647341E-1,1.257552207E0
6.125632708E0,-4.551670007E-1,9.638293004E-1,-4.357345104E-2,1.066790778E0
6.135603708E0,-7.618047836E-1,8.478363293E-1,-6.795979017E-1,1.327036653E0
6.145574708E0,-7.472790574E-1,-4.060759708E-1,2.144834715E-1,8.771127882E-1
6.155545708E0,-3.618824226E-1,8.669578940E-2,-5.024804771E-2,3.754995525E-1
6.165516708E0,-5.619468796E-1,-1.014491916E-3,4.992025280E-1,7.516571616E-1
6.175487708E0,-4.067906468E-1,-2.872573328E-1,1.886381936E-1,5.325220875E-1
6.185457708E0,-2.573627850E-1,-2.677422506E-1,-1.748703396E-1,4.104889176E-1
6.195429708E0,-3.762560846E-2,-1.223852349E0,-8.964600205E-2,1.227707891E0
6.205399708E0,-1.409683295E-1,-1.706740268E0,1.585186011E-1,1.719872833E0
6.215370708E0,-1.059725793E-1,-8.859514046E-1,-4.714493036E-2,8.935114567E-1
6.225341708E0,-1.686286745E-1,-1.264800400E0,6.773285973E-1,1.444620958E0
6.235312708E0,-5.857453762E-1,-1.532298237E0,5.349617600E-1,1.725462146E0
6.245283708E0,-1.127414075E-1,-5.971202937E-1,3.272084337E-1,6.901656535E-1
6.255254708E0,-6.692858984E-1,-9.856011155E-1,1.318476963E-1,1.198639640E0
6.265225708E0,-9.044957759E-1,-9.334688026E-1,3.154800886E-1,1.337536654E0
6.275196708E0,-1.112352306E0,-7.858947274E-1,9.831280357E-1,1.679731797E0
6.285167708E0,-1.067132936E0,-6.886023214E-1,8.478018308E-1,1.526995025E0
6.295138708E0,-1.010541610E0,-1.606996125E-1,4.762007511E-1,1.128621223E0
6.305109708E0,-1.170868097E0,-4.123886248E-1,1.676168686E-1,1.252633982E0
6.315080708E0,-1.108590865E0,-2.787253681E-1,1.132769394E-1,1.148691952E0
6.325051708E0,-6.159850924E-1,-4.491085544E-1,2.574534899E-1,8.046231585E-1
6.335022708E0,1.437400924E-2,-1.486508399E-2,-2.447621083E-1,2.456340215E-1
6.344993708E0,-8.309796106E-2,3.795331201E-1,3.492366493E-2,3.900901470E-1
6.354964708E0,5.585322883E-1,2.958366600E-1,3.331310785E-1,7.144606091E-1
6.364935708E0,7.708509379E-1,-2.107807222E-1,6.082063222E-1,1.004268197E0
6.374906708E0,8.458858444E-1,-2.695329604E-1,-6.217344403E-3,8.878116545E-1
6.384877708E0,4.279508066E-1,5.820213211E-1,-2.936881006E-2,7.230167619E-1
6.394848708E0,2.198896244E-1,6.664802581E-2,4.210749561E-1,4.796848183E-1
6.404819708E0,1.477105346E-2,-2.762376702E-1,2.626721299E-1,3.814735669E-1
6.414790708E0,-3.283182353E-1,2.314015129E-1,-5.285999894E-1,6.638956790E-1
6.424761708E0,-2.858969598E-1,3.914345428E-1,-5.020103610E-1,6.978341318E-1
6.434732708E0,-3.470849470E-1,3.306559521E-1,-3.122483325E-1,5.721016870E-1
6.444703708E0,-2.920573852E-1,-8.844089091E-2,-6.423236561E-1,7.111251554E-1
6.454674708E0,-1.892346279E-1,-5.913102078E-1,-1.172127002E-1,6.318198504E-1
6.464645708E0,-3.773258327E-1,-3.933477518E-1,1.038640916E-1,5.548738482E-1
6.474616708E0,-5.402364967E-1,-3.879335225E-3,4.995977998E-1,7.358454207E-1
6.484587708E0,-5.340261690E-1,-4.385426357E-1,1.520960194E-1,7.075569176E-1
6.494558708E0,-6.449525642E-1,-4.142816609E-1,-6.223945910E-1,9.874047456E-1
6.504529708E0,-6.858817582E-1,5.196888328E-2,-4.668183088E-1,8.312965082E-1
6.514500708E0,-7.267084066E-1,4.472368607E-1,1.751580226E-1,8.710948574E-1
6.524471708E0,-1.648829847E-1,1.946292508E-1,3.431327409E-1,4.275593780E-1
6.534442708E0,-1.521339167E-1,-4.650422171E-1,-5.405733329E-1,7.291286035E-1
6.544413708E0,2.436576424E-1,7.509637535E-2,-7.003140020E-1,7.452839819E-1
6.554384708E0,-1.236393384E-1,4.508533636E-1,2.685316247E-1,5.391332627E-1
6.564355708E0,-1.062901014E-1,1.906367719E-1,-7.608104646E-2,2.311456037E-1
6.574326708E0,-5.138537135E-1,-2.499246150E-2,-6.092693460E-1,7.974204650E-1
6.584297708E0,-3.479677304E-1,7.396295106E-1,1.936533505E-1,8.400208179E-1
6.594268708E0,-1.967476605E-1,8.009577397E-1,2.018751204E-2,8.250154412E-1
6.604239708E0,-3.255825789E-1,3.663499877E-1,-2.346505183E-1,5.433941432E-1
6.614210708E0,-2.766460251E-1,3.896204442E-2,-2.491001576E-1,3.743019538E-1
6.624181708E0,-6.061224111E-1,-5.870165974E-1,1.476609063E-1,8.566076150E-1
6.634152708E0,-4.742875056E-1,-5.643676999E-1,2.924864978E-1,7.931001765E-1
6.644123708E0,-2.749805188E-1,-6.113123631E-1,7.699379683E-1,1.020843556E0
6.654093708E0,6.341235209E-1,-7.812295264E-1,1.238475358E0,1.595698413E0
6.664065708E0,-4.947109893E-3,-6.597214615E-1,1.100109186E0,1.282769310E0
6.674035708E0,5.196095664E-1,-7.853450891E-1,1.232207143E0,1.550837017E0
6.684006708E0,2.804673633E-1,-5.326418772E-1,4.487053889E-1,7.508034611E-1
6.693977708E0,5.393787467E-1,-6.785834098E-1,5.039060283E-1,1.002659544E0
6.703948708E0,5.713514316E-1,-1.419500185E0,-1.808719218E-1,1.540823768E0
6.713919708E0,5.989121729E-1,-9.680957213E-1,-2.282653588E-1,1.161038410E0
6.723890708E0,1.369129492E0,-6.110720426E-1,2.792016238E-1,1.525082999E0
6.733861708E0,1.018379729E0,-2.296932489E-2,4.832606792E-2,1.019784424E0
6.743832708E0,1.482935458E0,3.339499810E-1,4.445749158E-1,1.583750933E0
6.753803708E0,1.321199134E0,2.630562919E-1,2.956878483E-1,1.379201606E0
6.763774708E0,1.209885617E0,2.241559356E-1,4.586380541E-2,1.231329598E0
6.773745708E0,8.324426571E-1,2.103123602E-1,-3.219272286E-1,9.169673967E-1
6.783716708E0,3.157350272E-1,1.176611817E-1,-3.099819517E-1,4.578444839E-1
6.793687708E0,-1.622974738E-1,5.081686485E-1,-7.085720247E-1,8.869330073E-1
6.803658708E0,-6.889500115E-2,5.253597549E-1,-5.768178838E-1,7.832421492E-1
6.813629708E0,-1.161371707E0,6.630865341E-1,-3.136762226E-1,1.373630506E0
6.823600708E0,-8.655809478E-1,5.549957827E-1,-2.677732408E-1,1.062522096E0
6.833571708E0,-7.479006895E-1,2.435394555E-1,-5.242683721E-1,9.452641079E-1
6.843542708E0,-6.001654140E-1,4.791185117E-1,-4.168877649E-1,8.738126120E-1
6.853513708E0,-7.732488079E-1,9.081339866E-2,3.960295773E-1,8.734988371E-1
6.863484708E0,-6.953988326E-1,2.797509697E-1,2.317134619E-1,7.845580092E-1
6.873455708E0,-5.831232288E-1,9.018394589E-2,2.106845355E-1,6.265411540E-1
6.883426708E0,-4.134437184E-1,-2.434400529E-1,-5.084843981E-1,6.991102565E-1
6.893397708E0,-2.221258920E-1,-6.931567177E-1,1.524936301E-1,7.436803442E-1
6.903368708E0,-2.022285115E-2,-8.581180733E-1,-1.163578373E-1,8.662070987E-1
6.913339708E0,4.154351704E-2,-3.048118436E-1,2.508800501E-1,3.969595991E-1
6.923310708E0,3.256881577E-1,-8.718701398E-1,6.321869230E-1,1.125118048E0
6.933281708E0,5.997966374E-1,-1.289894603E0,6.700909138E-1,1.572452202E0
6.943252708E0,5.721594437E-1,-1.092681760E0,5.434671199E-1,1.347841374E0
6.953223208E0,3.344814929E-1,-6.639343804E-1,9.171685195E-1,1.180628995E0
6.963194208E0,3.162353296E-2,-7.957636580E-1,8.488110602E-1,1.163924423E0
6.973165208E0,-1.505085003E-1,-8.223170337E-1,4.424471140E-1,9.458422497E-1
6.983136208E0,-2.381077576E-1,1.853470883E-1,1.900719309E-1,3.566177033E-1
6.993107208E0,-4.597134667E-1,2.364730954E-1,-6.827741092E-1,8.564090615E-1
7.003078208E0,-9.510147619E-1,8.345400533E-1,-1.085894605E0,1.667349175E0
7.013049208E0,-7.900551675E-1,4.409519809E-1,-1.264269766E0,1.554671624E0
7.023020208E0,-1.274840801E0,3.298312023E-1,-7.877953649E-1,1.534480116E0
7.032991208E0,-9.632805392E-1,1.023304839E0,-8.262653661E-1,1.630268888E0
7.042962208E0,-8.848565134E-1,1.454387012E0,2.816486835E-1,1.725554581E0
7.052933208E0,-2.323131669E-1,1.167105998E0,1.084204175E0,1.609846114E0
7.062903208E0,-7.380590947E-1,9.778161326E-1,3.598510998E-1,1.276850982E0
7.072874208E0,-4.205452349E-1,1.162198430E0,-8.773934197E-1,1.515711945E0
7.082845208E0,-2.467766934E-1,6.875167859E-1,-8.894971561E-1,1.150992293E0
7.092816208E0,-7.058009561E-2,-3.595069912E-1,-6.399678129E-1,7.374182180E-1
7.102787208E0,-3.605294500E-2,-6.620960158E-1,-5.202881724E-1,8.428349372E-1
7.112758208E0,2.809517685E-2,-8.758734360E-1,1.854958999E-1,8.957412259E-1
7.122729208E0,6.830116524E-1,-2.419370261E-1,4.743097615E-1,8.660301333E-1
7.132700208E0,4.424737188E-1,-5.271633285E-1,1.120820609E0,1.315265374E0
7.142671208E0,9.785734932E-1,-1.289703984E0,1.526907982E0,2.225396691E0
7.152642208E0,6.914996899E-1,-1.485802348E0,7.221480900E-1,1.790887574E0
7.162613208E0,7.835149837E-1,-1.010105042E0,5.674670166E-1,1.398651758E0
7.172584208E0,3.695875179E-2,-9.814118779E-1,3.555849713E-1,1.044497915E0
7.182555208E0,1.828099083E-2,-1.399201576E0,1.189007914E-1,1.404363430E0
7.192526208E0,-6.056764147E-1,-1.456927920E0,2.571938735E-1,1.598634283E0
7.202497208E0,-1.981631617E-1,-6.850931150E-1,6.666188371E-1,9.762181564E-1
7.212468208E0,-4.135564234E-1,-1.983945653E-1,1.199991324E0,1.284666687E0
7.222439208E0,4.622863512E-2,-7.972561598E-2,2.426769912E-1,2.595869462E-1
7.232410208E0,-5.100902628E-2,2.450538844E-2,9.145045280E-4,5.659744820E-2
7.242381208E0,5.460990979E-1,3.503759792E-1,2.127661443E-1,6.828301280E-1
7.252352208E0,9.905664980E-1,9.991371274E-1,2.378477758E-1,1.426908739E0
7.262323208E0,9.682825398E-1,1.829459292E-1,3.833422887E-1,1.057351219E0
7.272294208E0,1.267381946E0,-2.554373699E-1,-3.285351670E-1,1.333956747E0
7.282265208E0,1.096353666E0,-4.620808947E-1,-3.580653602E-1,1.242465660E0
7.292236208E0,1.646495529E0,1.617719918E-2,-2.550344968E-1,1.666208817E0
7.302207208E0,1.126986936E0,2.333436656E-1,8.225196397E-1,1.414597956E0
7.312178208E0,1.730954758E0,9.144747072E-1,6.313934559E-1,2.056970117E0
7.322149208E0,1.604982929E0,1.136474190E0,-1.506681293E-1,1.972370318E0
7.332120208E0,1.475468271E0,5.651605824E-1,-6.311782783E-1,1.701410921E0
7.342091208E0,1.059785544E0,-4.704906526E-1,-2.834642440E-1,1.193674508E0
7.352062208E0,7.409369481E-1,-6.246013302E-1,-1.052013499E0,1.430331005E0
7.362033208E0,4.663477542E-1,-2.016520491E-1,-1.489829033E0,1.574082058E0
7.372004208E0,-1.303307824E-1,-1.058518526E-1,-4.781472892E-1,5.067697284E-1
7.381975208E0,-4.815202555E-1,-6.488734147E-1,-6.840300912E-1,1.058676358E0
7.391946208E0,-8.858835769E-1,-5.475625098E-2,-9.214416647E-1,1.279391535E0
7.401917208E0,-9.912993003E-1,1.614395776E-1,-2.347177613E-1,1.031421091E0
7.411887208E0,-9.697009282E-1,5.067188314E-1,7.079843795E-1,1.303198276E0
7.421858208E0,-6.345170385E-1,6.763886574E-1,3.260033226E-1,9.830522134E-1
7.431829208E0,-4.852683207E-1,6.041255504E-1,-1.189545858E-1,7.839663368E-1
7.441800208E0,1.305980001E-1,1.485345096E0,-5.341834956E-1,1.583874331E0
7.451771208E0,2.492357399E-1,1.848308961E0,3.706134850E-1,1.901504358E0
7.461742208E0,7.516812799E-1,1.497209681E0,5.452347332E-1,1.761800922E0
7.471713208E0,1.134347631E0,1.872202730E0,2.707032806E-1,2.205712555E0
7.481684208E0,9.343719050E-1,1.046812693E0,-1.755994874E-1,1.414108500E0
7.491655208E0,1.071554966E0,1.212656978E0,-8.551014948E-1,1.830291113E0
7.501626208E0,1.237084598E0,3.388125256E-1,-8.011392957E-1,1.512281853E0
7.511597208E0,1.746531156E0,1.864823252E-1,-3.650679857E-1,1.793995922E0
7.521568208E0,1.753126376E0,-5.284622875E-1,2.090391290E-1,1.842938371E0
7.531539208E0,1.488097380E0,-1.484570047E0,6.792850757E-1,2.209029256E0
7.541510208E0,1.520436868E0,-1.905421055E0,7.888765150E-1,2.562163895E0
7.551481208E0,3.774517306E-1,-2.177815935E0,1.252059025E0,2.540276335E0
7.561452208E0,4.559076968E-1,-2.459251780E0,1.625000287E0,2.982682866E0
7.571423208E0,-4.595589906E-2,-2.092282572E0,7.564238834E-1,2.225294452E0
7.581394208E0,4.556460339E-1,-1.649110696E0,6.743576270E-1,1.839004514E0
7.591365208E0,1.084100094E-1,-1.071085947E0,5.678909397E-1,1.217159790E0
7.601336208E0,2.784460174E-1,-1.108462811E0,5.796017432E-1,1.281467974E0
7.611307208E0,4.437673422E-1,-3.984427232E-1,-6.693822312E-1,8.965258664E-1
7.621278208E0,7.786327048E-1,-7.412193686E-1,-2.179608107E-1,1.096896511E0
7.631249208E0,8.723276114E-1,-6.650456437E-1,-7.285864592E-2,1.099340508E0
7.641220208E0,1.171516334E0,-3.932264221E-1,5.265166265E-1,1.343241340E0
7.651191208E0,1.650149746E0,-2.399510193E-1,7.685054004E-1,1.836074951E0
7.661162208E0,1.446536687E0,-1.495688528E-1,1.751306577E0,2.276381768E0
7.671133208E0,1.472730897E0,-7.488090545E-2,2.154642250E0,2.610943636E0
7.681104208E0,9.661189970E-1,8.273748752E-1,1.367878919E0,1.867893958E0
7.691075208E0,5.108914775E-1,8.323517329E-1,1.471592152E-1,9.876615532E-1
7.701046208E0,9.341511726E-1,3.301697561E-1,-1.764587358E0,2.023714166E0
7.711017208E0,5.069297697E-1,-4.340189373E-1,-2.694755407E0,2.776158665E0
7.720988208E0,3.256160177E-1,-6.873600805E-1,-1.965714619E0,2.107729498E0
7.730959208E0,-2.127582505E-2,-4.389542797E-1,-3.584372431E-1,5.671073775E-1
7.740930208E0,1.446368726E-1,8.717783386E-1,4.496304184E-1,9.915063336E-1
7.750900208E0,3.942659108E-1,6.195975754E-1,2.073747776E0,2.199949227E0
7.760871208E0,3.206052462E-1,3.071103841E-2,1.455080785E0,1.490298957E0
7.770842208E0,-5.770134001E-1,3.647691929E-1,3.201946986E-1,7.540064144E-1
7.780813208E0,-9.855581385E-1,2.335538730E-1,-1.965658486E-1,1.031751127E0
7.790784208E0,-8.570151423E-1,-1.455807593E-1,-1.226102650E-2,8.693785392E-1
7.800755208E0,-5.039754640E-1,-6.461053428E-1,-3.744293779E-1,9.009110618E-1
7.810726208E0,-4.385878786E-1,-2.818702930E-1,-7.117681128E-1,8.822834214E-1
7.820697208E0,2.369149987E-1,-9.542676410E-1,-4.209685367E-1,1.069565312E0
7.830668208E0,8.373081252E-2,-4.368758869E-1,-1.330457908E-1,4.642979345E-1
7.840639208E0,1.791833921E-1,-8.936434168E-1,-1.126460248E-1,9.183650534E-1
7.850610208E0,1.723320633E-2,-5.527641928E-1,1.330234544E0,1.440614167E0
7.860581208E0,-2.177147160E-1,-1.276318538E-1,1.891828033E0,1.908586622E0
7.870552208E0,-5.542543557E-1,1.510262420E0,2.896693093E-1,1.634624966E0
7.880523208E0,-3.828867175E-1,8.811751065E-1,-8.116514200E-1,1.257716118E0
7.890494208E0,1.535142615E-2,-1.414558411E-1,-1.201229180E0,1.209626787E0
7.900465208E0,-1.133691061E-2,-5.336458442E-1,-1.630998945E0,1.716118869E0
7.910436208E0,3.786130607E-1,-1.625561035E-1,-1.245060493E0,1.311467867E0
7.920407208E0,-1.670472767E-1,1.838113171E-1,-2.481581712E-1,3.511037893E-1
7.930378208E0,-2.028336618E-1,9.100966045E-1,1.590625675E0,1.843775302E0
7.940349208E0,-6.733206233E-1,1.051495143E0,1.439074032E0,1.905239294E0
7.950319833E0,-5.444389637E-1,1.547961174E0,2.266111815E-1,1.656487310E0
7.960290833E0,-8.635491134E-1,1.428866255E0,-1.513347119E-1,1.676388392E0
7.970261833E0,-5.749205720E-1,5.706832775E-1,3.724267066E-2,8.109254490E-1
7.980232833E0,-9.059867428E-1,-1.017555857E-1,-7.961516207E-1,1.210381585E0
7.990203833E0,-1.639997810E-1,-4.784083673E-1,-1.306313585E0,1.400794659E0
8.000174833E0,-5.787625947E-1,-1.322968502E0,-5.692550951E-1,1.552180132E0
8.010145833E0,-3.348664225E-1,-6.542587003E-1,-2.551894480E-1,7.780177518E-1
8.020116833E0,-6.172253600E-1,-1.465276867E0,6.646114880E-1,1.723285197E0
8.030087833E0,-4.896959055E-1,-1.442701060E0,6.759135711E-1,1.666747606E0
8.040058833E0,-6.894273636E-1,-1.118515636E0,4.983353859E-1,1.405249257E0
8.050029833E0,-4.285337374E-1,-8.974607715E-1,5.559825003E-1,1.139382965E0
8.059999833E0,-9.527839100E-1,6.018772960E-2,1.015939686E0,1.394113764E0
8.069970833E0,-1.101182589E0,-4.284310457E-1,7.415111446E-1,1.394989259E0
8.079941833E0,-8.977927472E-1,-9.889328590E-1,2.410011792E-1,1.357240430E0
8.089912833E0,-8.056827284E-1,-1.788806233E0,-7.881836200E-1,2.114281395E0
8.099883833E0,-3.991083921E-1,-1.587410584E0,-8.813940847E-1,1.859036149E0
8.109854833E0,-8.715603836E-2,-4.666405535E-1,8.326622200E-1,9.584758493E-1
8.119825833E0,1.871216269E-1,5.787457108E-1,1.140012925E0,1.292126375E0
8.129796833E0,1.979873250E-1,1.035812618E0,1.374864002E0,1.732731308E0
8.139767833E0,-6.707764998E-2,8.495372844E-1,9.160938013E-1,1.251175792E0
8.149738833E0,3.526400211E-1,5.854597762E-1,2.990605223E-1,7.460263602E-1
8.159709833E0,-6.529249504E-2,-1.449355191E-1,-3.031173205E-1,3.422711273E-1
8.169680833E0,-6.290152471E-1,-4.495982587E-2,-7.473460811E-1,9.778587485E-1
8.179651833E0,-8.033837494E-1,-4.478791773E-2,-2.332910407E-1,8.377685337E-1
8.189622833E0,-1.090239744E0,-5.008865261E-1,-3.505932033E-2,1.200307947E0
8.199593833E0,-5.840818799E-1,-4.552954933E-1,9.167147756E-2,7.462233502E-1
8.209564833E0,-8.695014328E-1,-6.288361761E-1,5.277989209E-1,1.195842539E0
8.219535833E0,-5.813835360E-1,-7.472191966E-1,8.279774308E-1,1.257732074E0
8.229506833E0,-7.120593041E-1,-8.016126278E-1,5.609362614E-1,1.210066423E0
8.239477833E0,-6.324443467E-1,-8.751302549E-1,8.539601183E-1,1.376621480E0
8.249448833E0,-2.550616681E-1,-8.210753775E-1,-2.709599733E-2,8.602066165E-1
8.259419833E0,-3.606303144E-1,-4.206264746E-1,-1.005972522E-1,5.631169168E-1
8.269390833E0,-5.941511141E-2,-2.352182829E-1,-4.217187345E-1,4.865228536E-1
8.279361833E0,-3.891515340E-1,-5.568788785E-1,-4.122743118E-1,7.946842831E-1
8.289332833E0,-2.222449011E-1,-4.509615371E-1,-2.539124161E-1,5.632322958E-1
8.299303833E0,-4.733758150E-1,-1.116172072E-1,1.962664711E-1,5.244650521E-1
8.309274833E0,-7.499780591E-1,3.059233993E-1,3.342911661E-1,8.762458554E-1
8.319245833E0,-9.974516675E-1,8.265381387E-1,-3.606422281E-1,1.344670198E0
8.329216833E0,-1.188947103E0,3.650618461E-1,-8.555833054E-1,1.509598674E0
8.339187833E0,-1.074237596E0,1.082164666E0,-1.129618914E0,1.897657943E0
8.349158833E0,-6.653253599E-1,5.277299237E-1,-6.162713867E-1,1.049260277E0
8.359129833E0,-3.121137735E-1,5.377119979E-1,-1.233464295E-1,6.338482010E-1
8.369100833E0,9.560142774E-2,4.956298792E-1,3.117407942E-1,5.932713822E-1
8.379070833E0,7.186809835E-1,4.068574512E-1,3.777856797E-1,9.081615283E-1
8.389041833E0,5.577095485E-1,7.489692682E-1,4.710101777E-1,1.045870686E0
8.399012833E0,9.061467373E-1,3.174912384E-1,7.017547560E-1,1.189269664E0
8.408983833E0,8.739421738E-1,6.107533693E-2,1.034466004E-1,8.821600303E-1
8.418954833E0,1.048580014E0,-1.990605631E-1,3.637716579E-1,1.127596990E0
8.428925833E0,1.203464789E-1,-1.429498047E-1,-1.411190414E-1,2.341634162E-1
8.438896833E0,3.132429804E-1,2.575145933E-1,7.529868901E-2,4.124376597E-1
8.448867833E0,-3.104832408E-1,-6.034118977E-1,4.723883665E-1,8.268352496E-1
8.458838833E0,-4.251346413E-1,-1.088540178E0,1.947330973E0,2.271069594E0
8.468809833E0,-8.750035165E-1,-1.241869667E-1,1.790113962E0,1.996387125E0
8.478780833E0,-3.206829045E-1,3.206320703E-2,9.624663144E-1,1.014991124E0
8.488751833E0,-2.652652969E-1,-1.276265913E-1,-4.829765046E-1,5.656151771E-1
8.498722833E0,4.864470463E-2,1.054334843E-1,-1.327189314E0,1.332258985E0
8.508693833E0,1.808939219E-1,-1.368773250E0,-9.409754580E-1,1.670837405E0
8.518664833E0,8.437546805E-1,-1.158456797E0,-1.369077013E0,1.981997977E0
8.528635833E0,7.545510934E-1,-1.096756100E0,-1.260334005E0,1.833211144E0
8.538606833E0,4.675256027E-1,-1.508053050E0,2.939009392E-1,1.605983173E0
8.548577833E0,9.146898117E-1,-1.054935352E0,8.714497250E-1,1.645895098E0
8.558548833E0,8.300052452E-1,-4.237050337E-1,-3.039792001E-2,9.323940670E-1
8.568519833E0,5.795859557E-1,-7.780948341E-2,9.434482455E-1,1.109985940E0
8.578490833E0,1.147301625E0,-3.087022886E-1,1.683206395E0,2.060286847E0
8.588461833E0,2.267490296E-1,-1.997639832E-1,-1.417370921E-1,3.337816273E-1
8.598432833E0,4.929843796E-1,-5.313847259E-1,5.586687112E-1,9.151579395E-1
8.608403833E0,3.530279839E-1,-8.363219923E-1,-1.524638093E-1,9.204935879E-1
8.618374833E0,-2.536479027E-1,-1.500620654E-1,-2.064236695E-1,3.598146930E-1
8.628345833E0,-4.044604582E-1,6.261224833E-1,2.801248991E-1,7.962961670E-1
8.638316833E0,-4.668826282E-2,2.050349557E-1,-4.068785012E-2,2.141836317E-1
8.648287833E0,5.909891957E-1,4.404926822E-1,1.143037105E-1,7.459003759E-1
8.658258833E0,1.022503990E0,5.121582037E-1,-9.703261417E-1,1.499784403E0
8.668229833E0,1.409184527E0,-2.248125780E-1,-2.076492459E-1,1.442033265E0
8.678200833E0,1.260461620E0,-1.252480317E0,1.353647380E0,2.233793113E0
8.688170833E0,8.931187022E-1,-2.265518615E0,1.381172563E0,2.799620199E0
8.698141833E0,1.130083256E0,-1.538048097E0,6.356443816E-1,2.011647060E0
8.708112833E0,1.878993394E0,-8.343962118E-1,2.763902825E-1,2.074421559E0
8.718083833E0,1.937506189E0,-2.541220388E-1,7.715336734E-1,2.100898011E0
8.728054833E0,1.828570223E0,2.431649414E-1,8.179804462E-1,2.017892529E0
8.738025833E0,1.637736692E0,5.646223462E-1,-7.011027914E-1,1.868829845E0
8.747996833E0,1.488578021E0,5.884231451E-1,-1.495953991E0,2.190886731E0
8.757967833E0,1.156630712E0,4.222356284E-1,-1.247728577E0,1.752970089E0
8.767938833E0,4.841399543E-2,3.824236912E-1,8.679840803E-2,3.951275214E-1
8.777909833E0,-6.416654058E-2,6.965916646E-1,3.175763154E-1,7.682525679E-1
8.787880833E0,-6.794668510E-1,1.274504147E0,5.702029288E-2,1.445436729E0
8.797851833E0,-2.534325059E-1,1.431507150E0,3.127354056E-1,1.487025282E0
8.807822833E0,-2.533257942E-1,1.722923607E0,1.577562411E0,2.349753790E0
8.817793833E0,-3.743796766E-2,1.812722806E0,1.955718804E0,2.666871128E0
8.827764833E0,-5.752166969E-1,2.009675448E0,5.415702832E-1,2.159390661E0
8.837735833E0,-4.645870844E-1,1.556167741E0,-7.225106174E-1,1.777504090E0
8.847706833E0,-2.560875072E-1,8.447951925E-1,-1.064303761E0,1.382751686E0
8.857677833E0,1.111907990E-1,-5.922723672E-1,-1.140635068E0,1.290038104E0
8.867648833E0,2.351969406E-3,-5.585470891E-1,-1.512834903E0,1.612653040E0
8.877619833E0,2.406827252E-1,-6.920863849E-1,-1.567382993E0,1.730202643E0
8.887590833E0,8.061230238E-1,-1.796402643E0,-8.485362411E-2,1.970811234E0
8.897561833E0,1.323302962E0,-2.256259549E0,6.839587551E-1,2.703634121E0
8.907532833E0,5.261481057E-1,-1.689727502E0,5.977228492E-1,1.867962383E0
8.917503833E0,1.064308439E0,-1.159590280E0,1.496758568E-1,1.581077143E0
8.927474833E0,1.004420818E0,-1.238903959E0,6.006692612E-1,1.704273382E0
8.937445833E0,9.077197114E-1,-2.623020888E0,7.142198503E-1,2.866060650E0
8.947415250E0,7.926635373E-1,-2.555756858E0,7.465379959E-1,2.778043841E0
8.957386250E0,8.235448759E-1,-1.226078969E0,1.398869746E0,2.034289155E0
8.967357250E0,4.735599292E-1,1.392298061E-1,2.382029942E0,2.432634495E0
8.977328250E0,7.712079104E-1,-2.369496435E-2,1.796566365E0,1.955242644E0
8.987299250E0,4.964025157E-1,-9.872526616E-2,-6.972629249E-2,5.109049732E-1
8.997270250E0,2.846341257E-1,-7.282210082E-2,-2.318263131E-1,3.742500278E-1
9.007241250E0,5.344842618E-1,4.092536402E-1,-1.779044598E0,1.902146590E0
9.017212250E0,8.586251731E-1,-6.518399996E-1,-1.370965664E0,1.744041119E0
9.027183250E0,1.172707850E0,-2.103593718E0,2.984383786E-1,2.426811839E0
9.037154250E0,9.789570706E-1,-1.726412056E0,7.942313951E-1,2.137676085E0
9.047125250E0,1.708622780E0,-3.572686771E-1,1.403212473E0,2.239651302E0
9.057096250E0,1.145478756E0,-1.068948205E0,2.215897681E0,2.713848628E0
9.067067250E0,1.053155021E0,-1.008645577E0,2.224474377E0,2.659847299E0
9.077038250E0,4.462100165E-1,1.756988901E-1,1.042894181E0,1.147868351E0
9.087009250E0,2.304584301E-1,9.631609637E-1,6.283113885E-1,1.172844973E0
9.096980250E0,-1.444454493E-1,8.693420961E-1,3.127815986E-1,9.351216479E-1
9.106951250E0,3.738121312E-1,6.977172536E-1,-3.866915739E-1,8.809513316E-1
9.116922250E0,9.911761433E-2,7.028733283E-2,-5.179247278E-1,5.319874381E-1
9.126893250E0,4.412360094E-2,4.047527459E-1,-1.337128996E0,1.397743049E0
9.136864250E0,-5.798213793E-1,4.672360924E-1,-1.825891321E0,1.971897947E0
9.146835250E0,-8.016709538E-1,1.032647520E-1,-1.875076345E0,2.041874439E0
9.156806250E0,-7.744412745E-1,3.745480764E-1,-1.818483483E0,2.011697723E0
9.166777250E0,-5.839794805E-1,3.612170094E-1,-1.169063061E0,1.355809059E0
9.176748250E0,-5.849437594E-1,7.162216446E-1,-1.685851675E-1,9.399753213E-1
9.186718250E0,-6.539611501E-1,-2.493018866E-2,6.224384451E-1,9.031701490E-1
9.196689250E0,-9.869149849E-1,-3.878127775E-1,7.276707852E-1,1.286042266E0
9.206660250E0,-9.049118053E-1,2.861422688E-2,8.279569656E-1,1.226864657E0
9.216631250E0,-9.646641366E-1,1.041408988E0,5.496827102E-1,1.522255123E0
9.226602250E0,-8.500906502E-1,8.997268599E-1,6.384574771E-2,1.239451014E0
9.236573250E0,-1.083433877E0,3.471228808E-1,-6.823934555E-2,1.139727980E0
9.246544250E0,-9.169722723E-1,1.186823979E-1,-7.886578292E-1,1.215279734E0
9.256515250E0,-1.195409080E0,8.251298368E-2,-7.200641423E-1,1.397964102E0
9.266486250E0,-1.313488996E0,-1.007139042E-1,-5.654316008E-1,1.433565320E0
9.276457250E0,-1.396494900E0,-8.833970484E-1,-6.016428226E-1,1.758568292E0
9.286428250E0,-1.213772700E0,-1.003964881E0,-3.291596496E-1,1.609203444E0
9.296399250E0,-1.294981243E0,-7.574176177E-1,2.167042440E-1,1.515789760E0
9.306370250E0,-1.101684792E0,-1.225088158E0,4.730298060E-1,1.714149227E0
9.316341250E0,-1.392800483E0,-1.104020681E0,4.290926582E-1,1.828353182E0
9.326312250E0,-2.616559203E-1,-1.636045092E0,1.756173214E0,2.414384336E0
9.336283250E0,-1.580334283E-2,-9.414698401E-1,1.898944679E0,2.119576868E0
9.346254250E0,5.513688279E-1,-3.307299194E-1,2.233360391E0,2.324067232E0
9.356225250E0,6.111903391E-1,-6.255880478E-1,1.536822520E0,1.768258323E0
9.366196250E0,9.345178661E-1,-4.114811370E-1,2.255750549E-1,1.045717205E0
9.376167250E0,7.778194302E-1,-7.016132534E-2,-6.982353169E-1,1.047596409E0
9.386138250E0,7.049053819E-1,2.058488882E-1,-5.419754952E-1,9.126898705E-1
9.396109250E0,8.156589554E-1,-2.704290462E-1,2.054542011E-1,8.835399421E-1
9.406080250E0,9.290358091E-1,-6.494911730E-1,-2.414198399E-1,1.158977937E0
9.416051250E0,8.784782244E-1,-9.505853570E-1,-9.673791450E-1,1.615908080E0
9.426021250E0,1.537539243E-1,-8.501085573E-1,-3.384193003E-2,8.645635342E-1
9.435992250E0,3.643751271E-1,-3.928647718E-1,2.525634634E-1,5.923683527E-1
9.445963250E0,2.721460810E-1,5.124154812E-1,-5.378678262E-1,7.911604852E-1
9.455934250E0,1.363439493E-1,1.169987506E0,3.514468968E-2,1.178429288E0
9.465905250E0,-6.734551824E-1,3.900686333E-1,8.299216300E-1,1.137745724E0
9.475876250E0,6.960401259E-2,-3.786943370E-1,3.814208937E-1,5.419741853E-1
9.485847250E0,5.186832944E-1,-6.913981676E-1,-7.757734895E-1,1.161416503E0
9.495818250E0,5.862031035E-2,-3.404713807E-1,-1.758800368E0,1.792410622E0
9.505789250E0,-6.945808802E-2,4.708546418E-1,-1.828238393E0,1.889175519E0
9.515760250E0,-1.862725929E-1,-2.571459264E-2,2.571669763E-1,3.185805594E-1
9.525731250E0,4.425345299E-1,-5.944229731E-1,1.761349754E0,1.910897286E0
9.535702250E0,8.325224715E-1,-7.238779888E-1,1.171043513E0,1.608861684E0
9.545673250E0,1.242806099E0,-2.062543926E-1,-2.665885949E-1,1.287702354E0
9.555644250E0,1.268265460E0,-1.962164775E-1,-3.690557867E-1,1.335365253E0
9.565615250E0,1.860973445E0,-1.458911880E0,4.465694010E-1,2.406464267E0
9.575586250E0,1.100915517E0,-1.397755267E0,1.542322412E0,2.354674751E0
9.585557250E0,9.670929238E-1,-5.453911462E-1,1.337999062E0,1.738666649E0
9.595528250E0,6.658722939E-1,1.391301110E-1,4.121392411E-1,7.953627182E-1
9.605499250E0,1.147997663E0,-2.259282267E-1,3.383731073E-1,1.217964925E0
9.615470250E0,8.731677101E-1,-3.313576180E-1,5.550779361E-1,1.086430502E0
9.625441250E0,1.211022316E-1,4.646679953E-1,-6.003774852E-1,7.687881509E-1
9.635412250E0,-6.157553700E-1,1.282197036E0,-7.573839962E-1,1.611463445E0
9.645383250E0,-6.589600079E-1,1.357056307E0,-6.127151102E-1,1.628265924E0
9.655353250E0,-1.088458609E0,1.170981241E0,-8.969488478E-1,1.833154779E0
9.665324250E0,-8.930261701E-1,1.448385723E0,-1.471933630E0,2.249867896E0
9.675295250E0,-1.202336350E0,1.779403910E0,-9.489265019E-1,2.347839960E0
9.685266250E0,-6.054487022E-1,1.202234901E0,-4.897779858E-1,1.432417314E0
9.695237250E0,-5.539040710E-1,3.072495478E-1,-6.409191549E-2,6.366472949E-1
9.705208250E0,5.140044621E-1,5.284228188E-1,-3.337432820E-1,8.092069208E-1
9.715179250E0,3.280759778E-1,1.212429813E0,4.244096231E-1,1.325799166E0
9.725150250E0,6.895944478E-1,1.114426678E-1,5.121225357E-1,8.661578737E-1
9.735121250E0,1.031509506E-1,1.087397924E-1,3.376761192E-1,3.694450197E-1
9.745092250E0,4.226976680E-1,-3.399749520E-1,-7.430729359E-1,9.200074319E-1
9.755063250E0,5.056000763E-1,-6.076417735E-1,-7.049724787E-1,1.059172393E0
9.765034250E0,8.289144471E-1,-1.224917712E0,-2.481634337E-1,1.499702521E0
9.775005250E0,8.695775928E-1,-2.143401855E0,6.022339761E-1,2.390192976E0
9.784976250E0,1.304054221E0,-1.428095300E0,3.766080505E-1,1.970240396E0
9.794947250E0,3.544322293E-1,-1.721387251E0,9.303393728E-1,1.988549125E0
9.804918250E0,7.993987258E-1,-1.677827249E0,1.173560155E0,2.198041409E0
9.814889250E0,3.088310369E-1,-1.525840572E0,1.413757342E0,2.102920798E0
9.824860250E0,3.193931184E-1,-1.106275952E0,5.906366086E-1,1.294105888E0
9.834831250E0,-4.032861546E-1,-4.926071611E-1,5.427900124E-1,8.366137312E-1
9.844802250E0,3.088102062E-1,-4.242461935E-1,3.219874549E-1,6.156496546E-1
9.854773250E0,2.610393314E-1,-7.260312259E-1,3.738581049E-1,8.573405136E-1
9.864744250E0,2.023631436E-1,-1.539977386E0,-1.954180402E-1,1.565461402E0
9.874714250E0,2.914027894E-1,-1.366567096E0,-2.642789447E-1,1.422063491E0
9.884685250E0,3.797790321E-1,-1.010735957E0,2.704805017E-1,1.113094331E0
9.894656250E0,9.477558162E-2,-3.990058100E-1,9.429909933E-1,1.028309321E0
9.904627250E0,7.880029410E-1,1.044110402E0,7.213341576E-1,1.493799897E0
9.914598250E0,5.674246974E-1,1.980224192E0,1.041493773E0,2.308239138E0
9.924569250E0,1.177667970E0,1.006451409E0,7.654122233E-1,1.727918447E0
9.934540250E0,9.147808090E-1,4.763720745E-1,-4.919724458E-1,1.142712199E0
9.944511250E0,7.698694827E-1,4.277399048E-1,-7.306464332E-1,1.144335902E0
9.954482708E0,2.886631496E-1,1.675879249E-1,-8.196515805E-1,8.850089490E-1
9.964453708E0,4.653055976E-1,-6.363817155E-3,-1.080250872E0,1.176219259E0
9.974424708E0,6.499666978E-1,1.485333109E-1,-1.012740675E0,1.212502588E0
9.984395708E0,6.083956623E-1,-2.947859153E-1,-1.902333140E-2,6.763179023E-1
9.994366708E0,4.926999126E-1,-3.787563175E-2,-3.119261509E-1,5.843677703E-1
1.000433771E1,-6.240104690E-2,-1.045189798E-1,-4.983769011E-1,5.130279168E-1
1.001430871E1,-3.737283333E-1,-6.285093167E-1,-4.973466218E-1,8.843361864E-1
1.002427971E1,-6.412531771E-1,-9.095080823E-2,-3.167395788E-1,7.209727092E-1
1.003425071E1,-1.144830811E0,2.627288479E-1,-5.831901795E-1,1.311401853E0
1.004422171E1,-1.198505035E0,2.308355024E-1,-4.052149683E-1,1.286039859E0
1.005419271E1,-1.516772710E0,7.587902516E-2,-3.755754322E-1,1.564421294E0
1.006416371E1,-1.420825164E0,-4.715223938E-2,2.040058458E-1,1.436170556E0
1.007413471E1,-6.695370363E-1,6.213298130E-1,6.112538910E-1,1.099073200E0
1.008410571E1,-1.202319466E-1,1.177967786E0,3.553855813E-1,1.236269686E0
1.009407671E1,-1.986002045E-1,1.193363505E0,-8.295912623E-2,1.212617299E0
1.010404671E1,-1.977053613E-1,3.250294688E-1,4.355590940E-1,5.783107208E-1
1.011401771E1,-1.799198123E-1,2.447597694E-1,3.114051640E-1,4.350306423E-1
1.012398871E1,2.557363454E-1,2.997212577E-1,3.707099640E-1,5.409803953E-1
1.013395971E1,1.527763064E-1,1.278259814E-2,3.625987065E-1,3.936773000E-1
1.014393071E1,3.545237748E-1,-4.308979860E-1,1.248122095E0,1.367175536E0
1.015390171E1,-5.060747971E-1,-6.232681650E-1,6.069018084E-1,1.006431672E0
1.016387271E1,-3.837645673E-1,-6.079031441E-1,5.416515595E-1,9.001154857E-1
1.017384371E1,-1.044372357E0,-7.141420823E-1,6.116515017E-1,1.405286481E0
1.018381471E1,-1.034405486E0,-4.980550119E-1,5.362013698E-1,1.267109077E0
1.019378571E1,-1.006615131E0,-7.357642087E-1,-1.590085977E-1,1.256943407E0
1.020375671E1,-3.145188063E-1,-8.730313969E-1,-3.975200325E-1,1.009518735E0
1.021372771E1,-2.566162417E-1,-1.208939026E0,-2.882560372E-2,1.236210491E0
1.022369871E1,2.504538977E-1,-7.884461600E-1,3.290503067E-1,8.903081525E-1
1.023366971E1,3.123097648E-1,-7.209774774E-1,1.409342694E-1,7.982533310E-1
1.024364071E1,1.077577745E0,-5.390244055E-1,-2.588422036E-1,1.232363742E0
1.025361171E1,8.818479748E-1,-5.001962623E-1,8.044482350E-2,1.017016972E0
1.026358271E1,1.499447557E-1,-3.978957161E-1,8.537589741E-1,9.537865676E-1
1.027355371E1,3.983858590E-1,1.369768739E-1,4.775450259E-1,6.368070417E-1
1.028352471E1,1.018256061E-1,-1.524980155E-1,1.851906753E-1,2.606140537E-1
1.029349571E1,-4.557493469E-1,-9.887609509E-1,-9.578674793E-2,1.092945921E0
1.030346671E1,-6.866543216E-1,-7.235055211E-1,-7.680288523E-1,1.258897420E0
1.031343671E1,-1.177641365E0,2.432397857E-1,-3.488027859E-1,1.252065558E0
1.032340771E1,-4.004262814E-1,7.521612632E-1,3.398723334E-1,9.173881271E-1
1.033337871E1,-5.888502842E-1,1.110000336E-1,-4.313444209E-1,7.383249110E-1
1.034334971E1,-7.536136385E-2,-3.656120691E-1,-1.090837841E0,1.152943501E0
1.035332071E1,-3.553577704E-1,-7.290124288E-1,-1.599570161E-1,8.266344497E-1
1.036329171E1,1.699958448E-1,-5.982072911E-1,-4.590707481E-2,6.235848057E-1
1.037326271E1,-4.325760638E-1,-6.266382077E-1,4.827186424E-1,9.015624116E-1
1.038323371E1,-1.294851288E-2,-9.305554274E-1,9.491779321E-1,1.329300498E0
1.039320471E1,-2.155111928E-2,-4.145599884E-1,6.506465828E-1,7.717936320E-1
1.040317571E1,-1.458162194E-1,-4.554378730E-1,8.377826267E-1,9.646583622E-1
1.041314671E1,-7.232552603E-2,-6.391620666E-1,3.868704987E-1,7.506183530E-1
1.042311771E1,-4.128831897E-1,-8.065073320E-1,-3.971487343E-2,9.069199943E-1
1.043308871E1,-3.503630057E-1,-4.934096915E-1,-6.771309614E-2,6.089272722E-1
1.044305971E1,4.540699169E-1,-1.918410060E-1,1.244024366E-1,5.083880676E-1
1.045303071E1,1.400969847E-1,2.075863883E-1,-1.832493997E-1,3.103217946E-1
1.046300171E1,7.172033921E-2,4.588602483E-1,-1.096674532E-1,4.772038190E-1
1.047297271E1,3.777337857E-2,1.160343693E0,-2.971946758E-1,1.198394338E0
1.048294371E1,-1.519714006E-1,1.503450122E0,-1.839060420E-1,1.522261150E0
1.049291471E1,-2.070649263E-1,1.276147799E0,5.351196349E-2,1.293944597E0
1.050288571E1,-4.282870580E-1,1.290019149E0,-1.750662214E-1,1.370484364E0
1.051285671E1,-1.591883265E-1,1.460203530E0,-1.038349140E0,1.798806329E0
1.052282771E1,-6.283926648E-1,1.400308746E0,-8.976984608E-1,1.778090114E0
1.053279771E1,-5.133022480E-1,5.681894401E-1,-3.199011683E-2,7.663822840E-1
1.054276871E1,-8.963864918E-1,9.793241295E-1,5.295829064E-1,1.429350394E0
1.055273971E1,-3.171427444E-1,5.674076673E-1,7.570974827E-2,6.544180218E-1
1.056271071E1,-1.814710421E-1,6.442970914E-1,-3.706339502E-1,7.651274444E-1
1.057268171E1,2.484982599E-1,1.660480607E-1,-6.267811722E-1,6.943903667E-1
1.058265271E1,-1.901906659E-1,-5.758028072E-1,-8.121899486E-2,6.118152395E-1
1.059262371E1,3.387241961E-1,-8.297245789E-1,4.675796163E-1,1.010845020E0
1.060259471E1,-9.190938614E-2,-1.089252661E0,5.826276773E-1,1.238698391E0
1.061256571E1,4.616119846E-1,-1.598830488E0,4.970934373E-1,1.736791997E0
1.062253671E1,2.302234451E-1,-2.109909588E0,3.538846010E-1,2.151733166E0
1.063250771E1,2.954753020E-1,-1.774152818E0,7.378601432E-3,1.798604548E0
1.064247871E1,-2.786704773E-1,-1.269069160E0,6.806305200E-1,1.466782763E0
1.065244971E1,4.042019382E-2,-1.418188947E0,9.686854130E-1,1.717918831E0
1.066242071E1,-4.980890354E-1,-1.107640692E0,1.158495973E0,1.678413987E0
1.067239171E1,-5.205640879E-1,-6.677643067E-1,9.347130901E-1,1.261183848E0
1.068236271E1,-9.346479667E-1,-3.809753358E-2,9.565454239E-1,1.337907841E0
1.069233371E1,-5.270999228E-1,-6.303608376E-1,6.046646637E-1,1.020200211E0
1.070230471E1,-4.328393712E-1,-5.843096289E-1,-7.583025938E-1,1.050614338E0
1.071227571E1,-4.638102818E-2,-1.277713099E0,-8.568229151E-1,1.539106062E0
1.072224671E1,-2.213593951E-1,-6.968357858E-1,-7.048163581E-1,1.015552162E0
1.073221771E1,-2.617469176E-1,8.328510851E-2,-3.244918174E-1,4.251385630E-1
1.074218871E1,-4.753691674E-1,2.013064787E-1,4.562880582E-1,6.889839880E-1
1.075215971E1,8.708601795E-2,4.610778049E-1,3.986198938E-1,6.156902926E-1
1.076213071E1,1.889392887E-1,3.098614991E-2,5.116962737E-1,5.463435483E-1
1.077210071E1,7.461496677E-2,-3.973867160E-1,6.026824576E-1,7.257477110E-1
1.078207171E1,3.024655022E-2,-1.269638094E-1,6.900901455E-1,7.023240503E-1
1.079204271E1,5.558969848E-2,-5.005508959E-3,4.169023830E-1,4.206219997E-1
1.080201371E1,7.602577566E-1,-3.324375987E-2,2.363643372E-1,7.968469765E-1
1.081198471E1,1.225866569E0,-7.027598923E-1,8.257835555E-1,1.636624206E0
1.082195571E1,1.076380016E0,-3.272935107E-1,3.928861141E-1,1.191668779E0
1.083192671E1,1.324610838E0,9.749501199E-2,4.173157811E-3,1.328200499E0
1.084189771E1,7.052627199E-1,5.793403727E-1,-9.951814860E-1,1.350339573E0
1.085186871E1,6.215808047E-1,2.376749906E-1,-1.610258287E0,1.742350093E0
1.086183971E1,4.495114641E-1,-1.859008196E-1,-1.626915250E0,1.698079180E0
1.087181071E1,6.010856561E-1,-6.377672133E-1,-8.654539901E-1,1.231690543E0
1.088178171E1,6.480311964E-2,-9.917175955E-1,5.438331556E-1,1.132897937E0
1.089175271E1,-3.231550342E-1,-2.155783626E-1,3.431239700E-1,5.183022915E-1
1.090172371E1,-3.862369894E-1,6.407408148E-1,-6.144300985E-1,9.681178388E-1
1.091169471E1,-5.051403755E-1,6.355300686E-1,-9.008746684E-2,8.168114952E-1
1.092166571E1,-5.445561638E-1,2.976794100E-1,5.751689690E-1,8.461523442E-1
1.093163671E1,-2.247811492E-1,7.574795982E-1,1.313360649E-1,8.009688313E-1
1.094160771E1,-1.613540987E-1,1.220321216E0,-7.064670271E-1,1.419265541E0
1.095157900E1,-1.173373190E-1,7.285487446E-1,7.502386987E-2,7.417411279E-1
1.096155000E1,-1.269122078E-1,4.575402394E-1,6.449654281E-1,8.008933653E-1
1.097152100E1,1.518800379E-1,-1.991587964E-1,8.092043602E-1,8.470793757E-1
1.098149200E1,-2.220907356E-1,-5.805115700E-2,7.782755131E-1,8.114228281E-1
1.099146300E1,-5.246317400E-1,1.911864102E-2,9.056372255E-1,1.046796432E0
1.100143300E1,-7.580888781E-1,5.252688307E-1,5.736445999E-1,1.086128086E0
1.101140400E1,-5.245317526E-1,-5.456393605E-1,2.022891033E-1,7.834390548E-1
1.102137500E1,-8.018855466E-1,-1.033708790E0,-1.106671516E0,1.713562411E0
1.103134600E1,-4.340051598E-1,-1.103783284E0,-1.136828531E0,1.642886827E0
1.104131700E1,-5.989010632E-1,-1.729212580E0,-2.575862217E-1,1.848028488E0
1.105128800E1,-3.257585801E-1,-2.154340534E0,6.015346491E-1,2.260341948E0
1.106125900E1,-2.137994204E-1,-9.734754521E-1,5.186281478E-1,1.123538964E0
1.107123000E1,2.795300546E-1,-5.357102036E-1,8.170981014E-1,1.016253798E0
1.108120100E1,4.204673938E-1,-4.028281349E-1,8.147516137E-1,1.001440726E0
1.109117200E1,4.267973337E-1,-6.459354812E-1,3.985561591E-1,8.707672604E-1
1.110114300E1,1.294465007E-1,-1.206602771E0,2.520079780E-1,1.239417066E0
1.111111400E1,6.278773789E-1,-5.992869794E-1,-1.759123135E-1,8.856184442E-1
1.112108500E1,2.723665211E-1,-1.502149701E-1,-9.773597574E-1,1.025660838E0
1.113105600E1,-3.115704575E-1,-6.901760995E-2,-2.432769156E-1,4.012770092E-1
1.114102700E1,-2.147272639E-1,-3.095983744E-1,2.529254061E-1,4.537953419E-1
1.115099800E1,-6.300828025E-1,1.868331581E-2,-1.315337008E-1,6.439367350E-1
1.116096900E1,-1.906342138E-1,3.812352446E-1,-1.733553261E-1,4.601453947E-1
1.117094000E1,6.338071134E-2,2.051823056E-1,5.478724122E-1,5.884565176E-1
1.118091100E1,1.983673757E-1,-3.349030772E-1,9.651770836E-1,1.040709609E0
1.119088200E1,-3.745042954E-2,-3.591815937E-1,1.095114495E0,1.153121723E0
1.120085300E1,3.000652201E-2,3.542839658E-1,1.120735824E-1,3.727975425E-1
1.121082400E1,2.790718156E-1,-2.357065254E-1,-1.504377490E-1,3.950571614E-1
1.122079500E1,4.550487773E-1,-8.866884461E-1,-1.322330278E-1,1.005371257E0
1.123076600E1,3.687476385E-1,-1.338868543E0,-7.641275901E-1,1.585066172E0
1.124073600E1,4.174271340E-1,-8.536446610E-1,-3.872575843E-1,1.026120391E0
1.125070700E1,5.864688229E-1,-4.705915171E-1,4.415144831E-1,8.719731045E-1
1.126067800E1,4.785054311E-1,-4.895876589E-1,9.221848458E-1,1.148515744E0
1.127064900E1,4.537585527E-1,-5.698561889E-1,1.265802906E0,1.460441678E0
1.128062000E1,8.500161713E-1,-3.806335661E-1,2.971017051E-1,9.775882703E-1
1.129059100E1,5.525215699E-1,5.332014558E-1,-6.123847425E-1,9.821399852E-1
1.130056200E1,7.004528734E-1,1.649926382E-1,-4.479891050E-1,8.476738976E-1
1.131053300E1,6.209038433E-1,-7.540978611E-2,2.014131904E-1,6.570962576E-1
1.132050400E1,4.990225068E-1,4.600998580E-1,6.682303298E-1,9.524952049E-1
1.133047500E1,-4.080958184E-2,1.082601161E0,-8.849176168E-3,1.083406204E0
1.134044600E1,-1.702813717E-1,1.082119642E0,-1.027142951E0,1.501666178E0
1.135041700E1,-4.601426524E-1,4.217181498E-1,-6.749826944E-1,9.193362258E-1
1.136038800E1,-7.583391389E-1,1.624429598E-1,-7.874503791E-2,7.795298236E-1
1.137035900E1,-7.044672793E-1,7.291299579E-1,-6.984499097E-2,1.016259300E0
1.138033000E1,-5.097055891E-1,2.410350931E-1,-3.225739306E-1,6.495780510E-1
1.139030100E1,-6.358287151E-1,-1.668239862E-2,-6.563289070E-1,9.139606619E-1
1.140027200E1,-2.394749463E-1,-6.852515745E-1,3.023530895E-1,7.863430301E-1
1.141024300E1,-5.285702782E-1,-1.222776169E0,1.167711770E0,1.771473645E0
1.142021400E1,-5.411205227E-1,-3.162349641E-2,6.308344620E-1,8.317232617E-1
1.143018500E1,-1.154811570E-1,-4.357517597E-1,-1.014597166E-1,4.620709554E-1
1.144015600E1,1.584409427E-1,-5.998354483E-1,2.262188333E-1,6.603643372E-1
1.145012700E1,6.992553636E-2,-6.375637302E-1,5.460100740E-1,8.423206584E-1
1.146009800E1,-8.306605719E-1,-2.461011207E-1,5.367305428E-1,1.019138078E0
1.147006900E1,-9.354645304E-1,8.261589468E-2,2.453982854E-1,9.706387547E-1
1.148003900E1,-3.949011743E-1,-1.111997160E-1,-3.096334577E-2,4.114256228E-1
1.149001000E1,-4.388981465E-1,-4.758674598E-1,-4.946364373E-1,8.147064670E-1
1.149998100E1,-2.736384001E-1,2.794179708E-2,-4.475061250E-1,5.252813055E-1
1.150995200E1,-3.897045710E-1,1.390321702E-2,1.063105667E-1,4.041842262E-1
1.151992300E1,7.001821473E-3,4.272668651E-1,1.544542015E-1,4.543810074E-1
1.152989400E1,4.957051987E-1,-6.733185768E-1,4.671668029E-1,9.577715655E-1
1.153986500E1,8.327594300E-1,-7.122256574E-1,3.149620253E-1,1.140155574E0
1.154983600E1,8.568529551E-1,-5.443661293E-1,4.410993308E-1,1.106842396E0
1.155980700E1,6.468755673E-1,-4.517441869E-2,5.086621535E-1,8.241516329E-1
1.156977800E1,6.296280353E-1,1.247240335E-1,3.739452285E-1,7.428476164E-1
1.157974900E1,1.100367048E0,1.602248186E-1,2.551023245E-2,1.112263640E0
1.158972000E1,8.735309684E-1,-3.763159820E-1,2.731029779E-1,9.895732957E-1
1.159969100E1,1.181142240E0,-6.751879317E-1,1.678694683E-1,1.370823071E0
1.160966200E1,9.193650261E-1,-3.470234782E-1,4.967619002E-2,9.839334680E-1
1.161963300E1,8.042365658E-1,-5.032242429E-1,5.125452894E-1,1.078301334E0
1.162960400E1,6.603139307E-1,-3.806999320E-1,9.178356868E-1,1.193050407E0
1.163957500E1,4.245885479E-1,-1.244483373E-1,5.813138080E-1,7.305399147E-1
1.164954600E1,1.447555710E-1,-1.419285884E-1,2.237893152E-1,3.019595290E-1
1.165951700E1,2.211559486E-1,2.117346954E-1,-3.453055662E-1,4.614948200E-1
1.166948800E1,3.351083145E-2,-1.856461734E-1,-8.445431775E-1,8.653557974E-1
1.167945900E1,-2.446282436E-1,-2.649838266E-1,-8.396788788E-1,9.138490167E-1
1.168943000E1,-3.320654600E-1,-9.428182080E-1,-6.709738433E-2,1.001836165E0
1.169940100E1,-3.897725449E-1,-2.584937096E-1,-3.155917704E-1,5.642160935E-1
1.170937200E1,-1.610029368E-1,3.680564976E-1,-3.578495979E-1,5.379998753E-1
1.171934300E1,-1.186081383E-1,9.362473994E-1,-2.248728043E-1,9.701519786E-1
1.172931300E1,-1.870974888E-1,1.069681153E0,-1.542922336E-1,1.096826938E0
1.173928400E1,-1.033331645E-1,2.523924324E-1,-2.501146495E-2,2.738708750E-1
1.174925500E1,-2.064327692E-1,3.209507436E-1,-3.135329658E-1,4.938894498E-1
1.175922600E1,-4.044756610E-1,7.593960232E-1,-5.049105799E-1,9.976059212E-1
1.176919700E1,-8.570771228E-1,4.680029547E-1,2.256007826E-1,1.002249307E0
1.177916800E1,-4.437244017E-1,3.416025245E-1,1.667883182E-1,5.842961343E-1
1.178913900E1,-1.473265552E-1,-4.252709180E-1,5.298635727E-1,6.952092299E-1
1.179911000E1,-3.197523202E-1,-1.076712137E-1,6.484152853E-2,3.435681306E-1
1.180908100E1,-2.971068945E-1,-4.626837426E-1,5.834252375E-1,8.017067795E-1
1.181905200E1,-6.218547468E-1,-9.689611092E-1,-1.136932611E-2,1.151398375E0
1.182902300E1,-6.230444359E-1,-8.709974429E-1,6.555260843E-1,1.255601594E0
1.183899400E1,-3.890747893E-1,-4.521502760E-1,1.019758503E0,1.181408679E0
1.184896500E1,-6.330311148E-1,-8.639056474E-1,5.787574053E-1,1.217383051E0
1.185893600E1,-8.012020071E-1,-5.831524649E-1,1.152176303E-1,9.976304706E-1
1.186890700E1,-5.857630274E-1,-7.698441204E-1,-3.674536496E-1,1.034794897E0
1.187887800E1,-5.275968996E-1,-5.210939187E-1,-6.314987057E-1,9.740061478E-1
1.188884900E1,-1.028167457E-1,-7.829114780E-1,2.056939369E-1,8.159850864E-1
1.189882000E1,2.980654358E-1,-4.822268915E-1,1.149096574E0,1.281330838E0
1.190879100E1,7.649497086E-1,-2.344251081E-1,1.279171395E0,1.508768586E0
1.191876200E1,8.017959380E-1,4.889918277E-1,8.165455395E-1,1.244482363E0
1.192873300E1,5.792776247E-1,8.604230458E-1,1.189849913E-2,1.037319603E0
1.193870400E1,6.026224871E-1,3.665011382E-1,-4.199920517E-1,8.208960164E-1
1.194867458E1,4.338059891E-1,-3.463244435E-1,-9.877537680E-1,1.133042701E0
1.195864558E1,1.756241554E-1,-1.211754752E0,-1.128180499E0,1.664927825E0
1.196861658E1,2.141408978E-1,-1.286149170E0,-1.039028002E0,1.667217802E0
1.197858658E1,3.088272363E-1,-8.685638317E-1,-2.901803559E-1,9.664274575E-1
1.198855758E1,-3.097978375E-1,-1.031502051E0,1.142693288E0,1.570260848E0
1.199852858E1,2.221393041E-1,-5.375938842E-1,1.698300397E0,1.795153836E0
1.200849958E1,-4.856039875E-1,8.267378211E-3,1.039181199E0,1.147073296E0
1.201847058E1,-6.816282012E-1,1.636720446E-1,4.192026776E-1,8.167841990E-1
1.202844158E1,-9.565052243E-1,-3.066230187E-1,4.935342371E-2,1.005661812E0
1.203841258E1,-7.700287463E-1,-8.957033908E-1,1.740113837E-1,1.193946731E0
1.204838358E1,-4.041972604E-1,-8.853859788E-1,-3.404248953E-2,9.738802020E-1
1.205835458E1,-2.976165890E-1,-1.042386643E0,-1.180535299E-1,1.090450449E0
1.206832558E1,-2.606742825E-1,-8.642699289E-1,-3.591301382E-2,9.034397247E-1
1.207829658E1,5.146463402E-3,-1.588162243E-2,1.773887354E-1,1.781726002E-1
1.208826758E1,4.288192643E-1,-1.717005640E-1,6.555471343E-1,8.019408272E-1
1.209823858E1,4.235041453E-1,4.219306961E-1,2.229940939E-1,6.380498721E-1
1.210820958E1,2.486901216E-1,4.028661418E-1,-3.840211505E-1,6.096065525E-1
1.211818058E1,3.134678790E-1,-3.463580650E-1,-3.564807647E-1,5.876262043E-1
1.212815158E1,-1.913164376E-1,-1.452889833E-1,-5.926351869E-1,6.394742628E-1
1.213812258E1,-5.481517629E-1,4.141609159E-1,-6.904865867E-1,9.740489443E-1
1.214809358E1,-3.963420013E-1,4.121445036E-1,-2.037573391E-1,6.070149315E-1
1.215806458E1,-8.805868035E-1,7.113626084E-1,-1.884674549E-1,1.147601787E0
1.216803558E1,-1.018115362E0,8.937176764E-1,-4.332611382E-2,1.355421458E0
1.217800658E1,-1.086569520E0,7.101984277E-1,-4.914725089E-1,1.388005892E0
1.218797758E1,-8.661373834E-1,1.214299461E0,-7.567922580E-1,1.672558420E0
1.219794858E1,-8.880528939E-1,6.188479623E-1,-5.199531269E-1,1.200817220E0
1.220791958E1,-4.103245577E-1,1.353183112E-1,-3.572654611E-1,5.606388300E-1
1.221789058E1,-7.168942206E-1,-6.275468650E-1,-2.746191609E-1,9.915483220E-1
1.222786158E1,-2.909668795E-1,-2.887436950E-1,-2.264854664E-1,4.683271430E-1
1.223783158E1,-3.818045441E-1,-3.954939723E-2,-3.587816441E-1,5.254171037E-1
1.224780258E1,1.240430887E-1,-8.659355083E-1,7.248828328E-1,1.136083674E0
1.225777358E1,4.647252980E-1,-1.237401517E0,1.886614655E0,2.303572655E0
1.226774458E1,3.960921425E-1,-3.497778091E-1,1.887050273E0,1.959640843E0
1.227771558E1,4.748455857E-1,7.827749455E-1,1.319430644E0,1.605961447E0
1.228768658E1,3.727502403E-1,1.587498584E-1,6.093395126E-1,7.317369068E-1
1.229765758E1,-1.642598725E-1,-7.463289580E-1,-5.115290433E-1,9.195923996E-1
1.230762858E1,-3.499039628E-1,-1.285889553E0,-9.733415508E-1,1.650254072E0
1.231759958E1,-6.852711627E-1,-1.050413993E0,-3.575367719E-1,1.304146719E0
1.232757058E1,-4.905095456E-1,-7.597494873E-1,2.822450995E-1,9.473548406E-1
1.233754158E1,-8.029525173E-1,-6.619837493E-2,1.120958018E-1,8.134374215E-1
1.234751258E1,-3.620925569E-1,-4.815687874E-1,7.257797956E-1,9.432792951E-1
1.235748358E1,-1.988492228E-1,-3.635216895E-1,1.312636764E0,1.376482585E0
1.236745458E1,2.119656605E-1,5.989302993E-3,5.270194870E-1,5.680799703E-1
1.237742558E1,2.707734837E-1,1.740131378E-2,-9.140016675E-2,2.863128982E-1
1.238739658E1,7.786109971E-1,-7.554421359E-1,-3.804578573E-1,1.149641721E0
1.239736758E1,6.575783108E-1,-1.029532709E0,-5.617057550E-1,1.344566915E0
1.240733858E1,5.727266601E-1,-8.617980185E-1,-3.618748212E-1,1.096204834E0
1.241730958E1,7.391238727E-1,-2.569851279E-1,-2.542381060E-1,8.227894443E-1
1.242728058E1,8.395651504E-1,-1.787046513E-1,1.066017580E-1,8.649675884E-1
1.243725158E1,6.392131566E-1,-4.093027568E-1,5.561169863E-1,9.409507472E-1
1.244722258E1,6.651549867E-1,-2.301645344E-1,2.949218631E-2,7.044690613E-1
1.245719358E1,4.079971101E-1,-3.495056212E-2,1.454682004E-1,4.345620565E-1
1.246716458E1,3.787395433E-1,-3.311994508E-1,7.073084414E-1,8.679988186E-1
1.247713558E1,9.069042441E-2,-1.143423898E0,8.057890016E-1,1.401762775E0
1.248710658E1,3.029859775E-1,-7.628277540E-1,-3.633307779E-1,8.976168108E-1
1.249707658E1,-4.375700611E-1,-2.474582595E-1,-2.580955142E-1,5.650809172E-1
1.250704758E1,-8.851898778E-2,-2.454123187E-1,5.846455514E-2,2.673591621E-1
1.251701858E1,-2.903627159E-1,2.094522348E-1,1.626654464E-1,3.932439357E-1
1.252698958E1,-1.902778991E-1,3.049779046E-1,8.269763875E-1,9.017245403E-1
1.253696058E1,2.423089821E-2,8.579941124E-1,-5.655450368E-1,1.027901854E0
1.254693158E1,2.409455210E-1,8.427340490E-1,-1.080808112E0,1.391546477E0
1.255690258E1,1.019849792E-1,9.948803544E-2,-6.113854533E-1,6.277666587E-1
1.256687358E1,2.491917762E-1,3.582612419E-1,-8.454319543E-1,9.514214881E-1
1.257684458E1,-8.374177605E-2,4.046086121E-1,-1.269909990E0,1.335437081E0
1.258681558E1,-1.117705139E-1,5.996120846E-1,-1.116426426E-1,6.200736887E-1
1.259678658E1,1.063740820E-1,4.532241172E-1,4.827127951E-1,6.706259675E-1
1.260675758E1,-4.548391912E-2,4.368831959E-1,-3.265576386E-1,5.473350027E-1
1.261672858E1,6.126286810E-1,1.306589574E-2,-2.251470387E-2,6.131814824E-1
1.262669958E1,2.082406552E-1,9.914012611E-2,5.905892462E-1,6.340257035E-1
1.263667058E1,7.867484209E-1,-1.506976578E-1,1.034042666E0,1.308024119E0
1.264664158E1,3.058154086E-1,-3.774962425E-1,7.676534611E-1,9.084703152E-1
1.265661258E1,1.906369912E-1,-1.678498802E-1,6.153270614E-1,6.656901961E-1
1.266658358E1,-3.374032004E-1,-5.766793048E-1,8.940217316E-2,6.740865589E-1
1.267655458E1,-5.848135858E-1,-1.109854741E0,6.205924791E-1,1.399614054E0
1.268652558E1,-4.636899754E-1,-1.150197897E0,3.958225858E-1,1.301783052E0
1.269649658E1,-3.760212824E-1,-1.582256556E-1,1.976265335E-1,4.533029998E-1
1.270646758E1,-1.025066240E-1,-2.469396114E-2,-2.399463415E-2,1.081348332E-1
1.271643858E1,-2.704632524E-1,-3.275005022E-1,3.581694406E-1,5.556008441E-1
1.272640958E1,2.698798464E-1,-5.016370162E-1,-3.172699213E-3,5.696357552E-1
1.273638058E1,7.028763981E-1,-1.744581109E-1,-3.161051559E-1,7.901856321E-1
1.274635158E1,8.280234776E-1,-2.843120903E-2,-5.737931192E-2,8.304959955E-1
1.275632158E1,9.744152458E-1,-1.808026323E-1,8.013702607E-1,1.274507339E0
1.276629258E1,8.287349376E-1,-1.304835409E-1,7.807658422E-1,1.146046618E0
1.277626358E1,7.741293986E-1,1.456596968E-1,-3.285819447E-1,8.534981942E-1
1.278623458E1,6.135952623E-1,3.011175728E-1,-1.000131739E0,1.211377081E0
1.279620558E1,5.846996382E-1,-7.333668503E-1,-2.771872580E-1,9.780252451E-1
1.280617658E1,2.527599299E-1,-2.087300452E0,9.578885293E-1,2.310467743E0
1.281614758E1,-2.529808085E-1,-1.406726065E0,3.619812405E-1,1.474417828E0
1.282611858E1,-4.179355860E-2,3.457631108E-1,-5.806062949E-1,6.770542814E-1
1.283608958E1,-3.647814721E-1,1.729337418E-1,2.719107306E-1,4.867309800E-1
1.284606058E1,-3.988030578E-1,-4.689613134E-1,1.368912706E0,1.500963221E0
1.285603158E1,-1.174041235E0,-6.832202518E-1,6.078209907E-1,1.488156272E0
1.286600258E1,-1.183537551E0,3.201467514E-1,-4.190804708E-1,1.295717376E0
1.287597358E1,-7.718763202E-1,1.611130106E-1,-4.189869153E-1,8.929168445E-1
1.288594458E1,-1.268624626E0,-1.110035419E0,7.081153572E-2,1.687187407E0
1.289591558E1,-1.106606905E0,-8.662611982E-1,5.374082351E-1,1.504591279E0
1.290588658E1,-4.672087567E-1,-2.175968215E-1,4.196476507E-1,6.646326427E-1
1.291585758E1,-4.788777891E-1,-2.017464817E-2,7.623605615E-1,9.005135085E-1
1.292582858E1,7.623830733E-1,-8.729951441E-1,-1.446782416E-1,1.168024086E0
1.293579958E1,9.069018321E-1,-9.634571251E-1,-1.110597337E0,1.727468382E0
1.294577058E1,1.050708839E0,-1.541399136E-1,-2.707138056E-1,1.095917032E0
1.295574225E1,1.111977134E0,2.599803641E-1,-2.826526505E-1,1.176424862E0
1.296571325E1,1.056022788E0,-9.666616917E-3,-3.960746008E-1,1.127897452E0
1.297568425E1,1.218211029E0,-1.051792474E0,1.140224594E-1,1.613476569E0
1.298565525E1,1.151161080E0,2.975776684E-1,7.859125614E-2,1.191595941E0
1.299562625E1,6.333654293E-1,1.985396055E0,-4.430084467E-2,2.084445208E0
1.300559625E1,4.499170051E-1,1.447698382E0,1.879470527E-1,1.527605974E0
1.301556725E1,-2.987783942E-1,4.960350913E-1,2.891986084E-1,6.472674684E-1
1.302553825E1,-6.593815921E-1,6.757042408E-3,-3.023571825E-1,7.254306359E-1
1.303550925E1,-4.393170629E-1,4.846964630E-1,-5.820031947E-1,8.755900078E-1
1.304548025E1,-4.321962506E-1,8.150951377E-1,-2.391236383E-1,9.530759659E-1
1.305545125E1,2.042111561E-1,4.682821593E-1,1.003668720E-1,5.206379606E-1
1.306542225E1,3.290988751E-1,-6.649956501E-1,3.810373163E-1,8.340951508E-1
1.307539325E1,6.621329994E-1,-1.000745112E-1,2.086690003E-1,7.014112691E-1
1.308536425E1,5.510697794E-1,2.137481841E-1,5.872633499E-1,8.332133161E-1
1.309533525E1,6.189315775E-1,-4.519847998E-1,1.224712182E0,1.444744436E0
1.310530625E1,5.736411647E-1,-7.338512921E-1,1.803656114E0,2.029969774E0
1.311527725E1,5.582560805E-1,-1.337756402E0,1.021048983E0,1.773071648E0
1.312524825E1,1.725992445E-1,-1.567889947E-1,-8.300455910E-1,8.621768793E-1
1.313521925E1,1.753547449E-1,-7.620953903E-1,-1.048495814E0,1.308006935E0
1.314519025E1,1.254801515E-1,-1.302122886E0,-9.525476825E-1,1.618213943E0
1.315516125E1,-2.667531209E-1,-2.172295286E0,-3.981626415E-1,2.224535351E0
1.316513225E1,9.485397086E-2,-1.213096688E0,6.248539299E-1,1.367860843E0
1.317510325E1,1.141785800E-1,-3.032488829E-1,7.071780485E-1,7.778800842E-1
1.318507425E1,6.527045835E-2,-8.418452722E-1,1.329928150E0,1.575332530E0
1.319504525E1,5.580337036E-1,-1.016087621E0,1.009214219E0,1.536993496E0
1.320501625E1,4.875341533E-1,-3.129982379E-1,1.708117872E-1,6.040149951E-1
1.321498725E1,6.528528835E-1,8.806666911E-2,-7.399768353E-2,6.629089552E-1
1.322495825E1,1.294772497E0,-1.230064139E-1,5.764652967E-2,1.301879226E0
1.323492925E1,9.638268153E-1,-8.586150867E-1,-1.964910042E-1,1.305676343E0
1.324490025E1,7.762228480E-1,-6.115187699E-1,7.047765970E-2,9.906786644E-1
1.325487125E1,1.276492347E0,9.445516151E-1,-2.272286475E-1,1.604133200E0
1.326484225E1,9.071137206E-1,9.321818304E-1,3.449559027E-1,1.345664461E0
1.327481325E1,4.956316699E-1,-2.874804041E-1,3.138025224E-2,5.738296395E-1
1.328478425E1,5.691542672E-1,6.648488849E-2,-7.009554416E-1,9.053702841E-1
1.329475525E1,1.138890332E-1,5.046711364E-1,-5.108531052E-1,7.270725981E-1
1.330472525E1,-3.944086194E-1,3.589325023E-1,-3.197696060E-1,6.218064821E-1
1.331469625E1,-5.614607567E-1,-1.195360329E0,5.413703084E-1,1.427307363E0
1.332466725E1,-6.640084939E-1,-1.881509744E0,-1.045072854E-1,1.997975968E0
1.333463825E1,-5.174881601E-1,-1.144636318E0,-2.786402911E-1,1.286711587E0
1.334460925E1,-5.593022570E-1,3.691253686E-1,4.728678381E-1,8.201686075E-1
1.335458025E1,-5.542541365E-1,1.066293569E0,1.282025421E0,1.757204826E0
1.336455125E1,-7.678070236E-1,4.767419109E-1,4.997562593E-1,1.032747207E0
1.337452225E1,-1.017664469E0,5.101909080E-1,-9.108307225E-1,1.457926040E0
1.338449325E1,-1.445929892E0,5.805598095E-1,-1.309821330E0,2.035533066E0
1.339446425E1,-1.495207594E0,-1.345157808E-1,-5.331497079E-1,1.593106668E0
1.340443525E1,-1.127266872E0,1.117800522E-1,-2.321309531E-1,1.156334796E0
1.341440625E1,-1.338726748E0,7.308072317E-1,-1.177845579E-1,1.529752175E0
1.342437725E1,-8.733380833E-1,7.743476459E-1,7.442710304E-1,1.384295146E0
1.343434825E1,-7.762953535E-1,8.762602293E-1,1.332688036E0,1.773844375E0
1.344431925E1,-5.046698208E-1,4.065302995E-1,3.117700303E-1,7.191377227E-1
1.345429025E1,-6.759996714E-1,-2.108213603E-2,-1.221296239E0,1.396060355E0
1.346426125E1,-7.867416966E-1,-7.469633809E-1,-9.189834952E-1,1.421776162E0
1.347423225E1,-1.107593330E0,-1.419536145E0,1.777389836E-1,1.809264215E0
1.348420325E1,-1.030157045E0,-1.287353696E0,1.331519178E0,2.119303281E0
1.349417425E1,-7.760942093E-1,-4.932228729E-1,8.175307953E-1,1.230425790E0
1.350414525E1,-7.507424363E-1,4.867742711E-1,8.156152475E-1,1.210698818E0
1.351411625E1,-3.367801430E-1,-7.008218327E-1,7.389927489E-1,1.072698648E0
1.352408725E1,1.422896906E-1,-7.145817930E-1,4.082286233E-1,8.351790848E-1
1.353405825E1,8.523900678E-1,-1.575894785E-1,-2.879303473E-1,9.134041583E-1
1.354402925E1,1.468414921E0,-7.881461978E-3,4.028965473E-2,1.468988684E0
1.355400025E1,1.789921004E0,-4.017645264E-1,3.861857897E-1,1.874665677E0
1.356397025E1,1.913930362E0,-4.524698263E-1,1.465206993E-1,1.972137594E0
1.357394125E1,1.245374634E0,-9.503874287E-1,1.076367152E-1,1.570280200E0
1.358391225E1,1.148430503E0,-1.538417056E-1,-2.152804470E-1,1.178518376E0
1.359388325E1,4.932415109E-1,-4.100424296E-1,7.909411669E-2,6.462800178E-1
1.360385425E1,3.234912857E-1,-9.646891335E-1,3.212565529E-1,1.066994615E0
1.361382525E1,3.849127047E-1,-9.086266145E-1,-1.539659590E-1,9.987320118E-1
1.362379625E1,2.575194173E-1,-7.527933472E-1,-1.253537786E-1,8.054363064E-1
1.363376725E1,-1.230097760E-1,-7.764997137E-1,3.299244654E-1,8.526038724E-1
1.364373825E1,5.707932052E-1,-1.485243354E0,5.810015666E-1,1.693905406E0
1.365370925E1,7.279456043E-1,-1.284512241E0,-6.757831782E-1,1.623748566E0
1.366368025E1,3.969687132E-1,-6.743816006E-1,-1.522585720E-1,7.972185241E-1
1.367365125E1,5.148797172E-1,1.554157761E-1,5.912710315E-1,7.992850676E-1
1.368362225E1,2.053461738E-2,-1.049972820E-1,4.468126452E-1,4.594427490E-1
1.369359325E1,6.097841933E-2,-3.981179103E-1,-2.278034288E-1,4.627209097E-1
1.370356425E1,3.929032903E-1,-3.314815789E-1,1.587916660E-1,5.380221426E-1
1.371353525E1,2.883336590E-1,-3.546725133E-1,5.944677043E-1,7.498804852E-1
1.372350625E1,8.669930504E-1,-1.225839525E-1,7.125434536E-1,1.128902984E0
1.373347725E1,5.385811865E-1,-5.252890036E-1,1.861461103E-2,7.525587920E-1
1.374344825E1,8.238755360E-1,-5.837480038E-1,2.228081524E-2,1.009964883E0
1.375341925E1,9.548435917E-1,-3.020627752E-1,5.451522875E-1,1.140245246E0
1.376339025E1,8.773345821E-1,5.011610529E-1,1.874786907E-1,1.027631563E0
1.377336125E1,6.673455729E-1,4.017428917E-1,2.990880042E-1,8.343866604E-1
1.378333225E1,5.107434699E-1,2.816258794E-1,-5.213319004E-2,5.855680127E-1
1.379330325E1,2.134118962E-1,2.108520582E-1,-2.342809743E-1,3.806452453E-1
1.380327425E1,1.802383029E-1,5.926705626E-1,1.690079212E-2,6.197014429E-1
1.381324525E1,-9.154247336E-2,1.013425384E0,-3.390449524E-2,1.018116176E0
1.382321625E1,-2.366866650E-1,9.293786752E-1,-1.010873074E0,1.393423723E0
1.383318725E1,-7.267584734E-2,5.986084101E-1,-1.134290255E0,1.284612077E0
1.384315725E1,-2.276141983E-1,1.696747962E-1,-4.679216784E-1,5.473102017E-1
1.385312825E1,-2.596511659E-1,7.964764336E-1,-5.193736678E-1,9.856685265E-1
1.386309925E1,-1.851764958E-1,1.006399369E0,-3.175681293E-2,1.023786365E0
1.387307025E1,2.313655525E-2,-2.362128943E-2,9.221105862E-1,9.227032018E-1
1.388304125E1,-2.943848694E-1,-3.885261378E-1,3.607135642E-1,6.064068654E-1
1.389301225E1,4.994656527E-1,5.737171054E-2,-2.722206330E-1,5.717180463E-1
1.390298325E1,3.270759212E-1,-3.298174614E-1,-1.986632448E-1,5.051982788E-1
1.391295425E1,4.342394505E-1,-5.432817632E-1,6.638899416E-1,9.614930208E-1
1.392292525E1,3.938742936E-1,-1.174419111E0,6.768029326E-1,1.411545046E0
1.393289625E1,3.350404868E-1,-8.036895588E-1,3.022484243E-1,9.216957983E-1
1.394286725E1,4.751611892E-1,-7.726311958E-1,5.110940105E-1,1.041131216E0
1.395283796E1,5.219631804E-1,-6.269340768E-1,1.668678403E-2,8.159475149E-1
1.396280896E1,4.415863308E-1,-1.327751232E0,2.787233216E-1,1.426747529E0
1.397277996E1,7.069875024E-1,-1.014672010E0,3.639435661E-1,1.289125880E0
1.398275096E1,1.773887354E-1,-7.128372762E-1,5.643808562E-1,9.263527927E-1
1.399272196E1,1.120453696E-1,-1.498030338E-1,1.209088422E0,1.223474530E0
1.400269296E1,3.276617391E-1,-2.158850491E-1,1.755860388E-1,4.298825732E-1
1.401266396E1,3.912347873E-1,-6.465909541E-1,-7.764967901E-1,1.083555160E0
1.402263496E1,4.466113548E-1,-1.142580729E0,-8.582087052E-1,1.497155505E0
1.403260596E1,6.932690573E-1,-1.541898488E0,2.038532335E-1,1.702829726E0
1.404257696E1,2.071548638E-1,-1.373425880E0,2.867357612E-1,1.418248632E0
1.405254796E1,7.490881860E-1,-5.767216972E-1,2.577657312E-1,9.798898910E-1
1.406251896E1,1.113003685E0,-3.293166474E-1,8.609142119E-1,1.445129731E0
1.407248996E1,1.348941834E0,-9.149986178E-2,1.150478271E0,1.775279287E0
1.408246096E1,1.268421873E0,-6.747979224E-1,1.802565608E0,2.305100661E0
1.409243196E1,6.169859165E-1,-5.105513889E-1,8.803626359E-1,1.190114580E0
1.410240296E1,2.604239120E-1,-4.607588392E-1,2.683491915E-1,5.934059407E-1
1.411237396E1,1.592960615E-2,-2.085748601E-1,-4.679286951E-1,5.125568147E-1
1.412234496E1,2.243445449E-1,-8.098130554E-2,-2.875824380E-1,3.736202689E-1
1.413231496E1,2.369201151E-1,1.597435927E-1,-5.060285676E-1,5.811317127E-1
1.414228596E1,-1.054218264E-1,1.817022264E-2,-2.165136248E-1,2.414996236E-1
1.415225696E1,-1.261076309E-1,-1.327084064E-1,2.113557959E-1,2.796174675E-1
1.416222796E1,-3.875737725E-1,1.655288279E-1,-1.044967604E-1,4.342036330E-1
1.417219896E1,-6.677083196E-1,2.633609319E-1,-2.383927363E-1,7.563229979E-1
1.418216996E1,-7.752903633E-1,3.833519366E-1,-3.025665128E-1,9.162861722E-1
1.419214096E1,-1.255732100E0,1.673616377E-1,-3.979468793E-1,1.327868496E0
1.420211196E1,-1.104716207E0,-5.977766436E-1,-1.949373990E-1,1.271115811E0
1.421208296E1,-1.023883275E0,5.820590356E-1,-6.630456036E-1,1.351576544E0
1.422205396E1,-8.920990209E-1,8.561507776E-1,-2.940599835E-1,1.270946927E0
1.423202496E1,-8.606158577E-1,9.184666014E-1,-2.460683763E-2,1.258906688E0
1.424199596E1,-8.153361891E-1,9.734798375E-1,-1.359518570E-1,1.277074392E0
1.425196696E1,-1.003735816E0,8.906777090E-1,-5.844794905E-1,1.463696910E0
1.426193796E1,-5.151857458E-1,3.967022994E-1,2.871275246E-2,6.508559666E-1
1.427190896E1,-1.025441704E0,9.493305445E-2,6.517481983E-1,1.218736513E0
1.428187996E1,-8.356149177E-1,7.710372448E-2,9.426892769E-1,1.262085713E0
1.429185096E1,-9.825100581E-1,9.319613904E-2,3.388256818E-1,1.043462686E0
1.430182196E1,-6.527305305E-1,-2.554207054E-1,2.169843256E-1,7.337431974E-1
1.431179296E1,-6.175304385E-1,-1.197439891E0,-1.574380356E-1,1.356463369E0
1.432176396E1,-5.494528050E-1,-1.126465803E0,-1.145621574E-1,1.258549990E0
1.433173496E1,-6.509864523E-1,-5.532176444E-1,3.436940736E-1,9.208467512E-1
1.434170596E1,5.783272695E-2,-4.641856000E-1,9.063535094E-1,1.019945871E0
1.435167696E1,-1.666680482E-1,-4.699836990E-1,1.129942850E0,1.235084515E0
1.436164796E1,4.293869924E-1,-5.623778924E-1,1.005353887E0,1.229381357E0
1.437161896E1,2.480620576E-1,1.603142810E-1,-3.621233279E-1,4.672994304E-1
1.438158996E1,6.448446831E-1,-4.373568204E-1,-2.658483374E-1,8.232745546E-1
1.439156096E1,2.843444327E-1,-4.953611997E-1,-8.714234126E-1,1.041927655E0
1.440153196E1,1.662236599E-1,-1.126154439E0,-5.637341541E-1,1.270295368E0
1.441150196E1,4.959381737E-2,-6.980484983E-1,-8.255701321E-1,1.082264892E0
1.442147296E1,3.486352631E-1,-6.944103608E-1,7.437091130E-1,1.075572192E0
1.443144396E1,2.056822425E-1,-7.210605079E-1,1.371452737E0,1.563047040E0
1.444141496E1,3.123342135E-1,-1.264111598E0,1.233020491E0,1.793284786E0
1.445138596E1,-4.390435959E-1,-9.185139638E-1,3.697586221E-1,1.083119855E0
1.446135696E1,-6.075536267E-1,-3.751228577E-1,7.520969439E-1,1.037057559E0
1.447132796E1,-1.059384499E0,-3.382362825E-1,9.637445158E-1,1.471564742E0
1.448129896E1,-8.027724961E-1,-4.838509557E-1,6.048283857E-1,1.115514592E0
1.449126996E1,-9.821061616E-1,-9.339196229E-1,-3.013654947E-3,1.355266563E0
1.450124096E1,-4.724822874E-1,-5.493999973E-1,-1.162970263E-1,7.338970413E-1
1.451121196E1,-4.463026218E-1,-3.071682715E-1,-4.075830907E-1,6.779840360E-1
1.452118296E1,-1.369632060E-1,-6.696921337E-1,-1.865828973E-1,7.085616778E-1
1.453115396E1,-1.880772629E-1,-5.430124989E-1,1.940918916E-1,6.065536194E-1
1.454112496E1,-1.287423132E-1,-7.207970908E-1,1.072599791E0,1.298689085E0
1.455109596E1,-1.031688577E-1,-1.765154538E-1,5.247531062E-1,5.631761191E-1
1.456106696E1,-2.143447098E-1,-4.160720783E-1,-7.891460717E-2,4.746442291E-1
1.457103796E1,-2.657032534E-1,-7.633060563E-1,-7.597082645E-1,1.109229914E0
1.458100896E1,-1.958064415E-2,-1.132760623E0,-7.107799333E-1,1.337437155E0
1.459097996E1,-6.648507122E-2,-7.753992677E-1,8.673642755E-2,7.830628946E-1
1.460095096E1,3.319193527E-1,-1.323686832E-1,1.035305080E0,1.095239030E0
1.461092196E1,5.225558688E-1,7.013489592E-1,3.563147038E-1,9.444126041E-1
1.462089296E1,6.544368211E-1,7.341702577E-1,-1.729723334E-1,9.986055019E-1
1.463086396E1,1.003637291E0,8.114034981E-1,-5.439606249E-1,1.400555822E0
1.464083496E1,9.022845051E-1,8.754863504E-1,-6.940001786E-1,1.436046631E0
1.465080596E1,8.573424402E-1,1.056965505E0,-9.095911127E-1,1.636938646E0
1.466077696E1,6.820224497E-1,1.094766293E0,-8.980475396E-1,1.571673389E0
1.467074796E1,9.860813181E-1,4.472938710E-1,-1.070590687E0,1.522692547E0
1.468071896E1,1.274514526E0,9.554312369E-1,-4.249873281E-1,1.648590414E0
1.469068996E1,1.666568435E0,7.366386598E-1,9.793197441E-1,2.068611618E0
1.470065996E1,1.538903983E0,5.026851296E-1,7.596550548E-1,1.788293491E0
1.471063096E1,1.891859023E0,-1.154138044E-1,2.568249142E-1,1.912697034E0
1.472060196E1,1.619216221E0,1.254037723E-1,-1.011527377E-1,1.627212080E0
1.473057296E1,1.744993338E0,-1.412558663E-1,2.022540200E-1,1.762345499E0
1.474054396E1,6.678830051E-1,-9.476342672E-1,9.307796681E-1,1.486751224E0
1.475051496E1,3.127068638E-1,-1.344318148E0,3.573332888E-1,1.425715240E0
1.476048596E1,-8.364518736E-2,-1.871884934E0,-2.302844024E-1,1.887850797E0
1.477045696E1,4.318837535E-2,-1.273968835E0,-5.124207437E-2,1.275730213E0
1.478042796E1,5.430207581E-1,-1.415209206E0,4.051097184E-1,1.569013232E0
1.479039896E1,-1.639935683E-2,-9.356214550E-1,8.882540381E-1,1.290213813E0
1.480036996E1,-2.958829992E-2,-9.056600296E-1,1.374918966E0,1.646662601E0
1.481034096E1,-3.449674144E-1,-7.702297443E-1,1.456018093E0,1.682927528E0
1.482031196E1,-7.994691847E-1,-6.774303389E-1,9.686748880E-1,1.427022733E0
1.483028296E1,-1.051882082E0,1.712924284E-1,-1.862367421E-1,1.081887765E0
1.484025396E1,-1.250713581E0,4.531533659E-2,-7.792350411E-2,1.253957740E0
1.485022496E1,-6.530179211E-1,-2.559443235E-2,5.529080343E-1,8.560343303E-1
1.486019596E1,-2.707451978E-1,-1.536352989E-1,3.978211641E-1,5.051420056E-1
1.487016696E1,-1.075998046E-1,6.259996918E-1,2.938436365E-1,6.998552813E-1
1.488013796E1,-3.210303753E-1,8.469411206E-1,6.107206249E-1,1.092405348E0
1.489010896E1,-8.409600768E-2,7.968003693E-1,1.245614809E-1,8.108504977E-1
1.490007996E1,1.354466575E-1,-3.841433573E-1,-6.600676167E-1,7.756295344E-1
1.491005096E1,-1.108193912E-1,-9.697838125E-1,-9.679492486E-1,1.374658986E0
1.492002196E1,-2.597938745E-1,-1.220204856E0,-2.891448140E-2,1.247889737E0
1.492999296E1,3.428266391E-2,-5.643674076E-2,1.034858937E0,1.036963561E0
1.493996396E1,-2.792774914E-1,3.870435762E-1,1.118344898E0,1.215933369E0
1.494993496E1,-3.205059897E-2,-9.098852277E-3,7.492049110E-1,7.499453505E-1
1.495990613E1,-3.512960752E-1,-6.207465532E-1,-5.782136142E-2,7.155966221E-1
1.496987712E1,-4.553789989E-1,-9.703299424E-1,-6.536157990E-1,1.255437709E0
1.497984713E1,-8.492044316E-1,-1.107922528E0,-1.690733516E0,2.192537415E0
1.498981813E1,-8.283702175E-1,-1.022708423E0,-1.272324305E0,1.830556985E0
1.499978912E1,-7.606232075E-1,-9.566869265E-1,2.647098845E-1,1.250547425E0
1.500976013E1,-5.636880707E-1,-1.624064147E-2,1.057562506E0,1.198518441E0
1.501973113E1,-8.894087170E-1,7.272147024E-1,9.114382482E-1,1.466495404E0
1.502970213E1,-6.931499934E-1,2.950569338E-1,8.598412478E-1,1.143172113E0
1.503967313E1,-3.648343528E-1,7.353397009E-1,-3.083780605E-1,8.768840339E-1
1.504964413E1,-4.925654266E-1,6.930008894E-1,-7.323298466E-1,1.122130980E0
1.505961513E1,-8.942481650E-1,1.361496390E0,-8.058948362E-1,1.817365865E0
1.506958613E1,-1.045562339E0,4.998580009E-1,-1.433916203E0,1.843684979E0
1.507955712E1,-9.002605645E-1,-7.467414790E-1,-1.470920307E0,1.879281371E0
1.508952813E1,-2.596766378E-1,9.215153396E-2,-1.429903259E0,1.456209872E0
1.509949913E1,-5.504492071E-2,-1.498875260E-1,-1.047410570E0,1.059511735E0
1.510947012E1,-1.511521326E-1,-3.090972680E-1,6.919185698E-1,7.727479508E-1
1.511944113E1,-2.532934152E-1,8.440485030E-2,2.523801532E0,2.537884140E0
1.512941213E1,-5.812979839E-1,2.312605950E-1,2.624927373E0,2.698450022E0
1.513938313E1,3.527757496E-1,4.567523271E-2,2.475709353E0,2.501134494E0
1.514935413E1,2.177650020E-1,1.780974180E-2,8.949385750E-1,9.212240966E-1
1.515932512E1,-1.477677276E-1,-7.891045564E-1,2.855897069E-1,8.521049131E-1
1.516929613E1,-5.805929925E-1,-1.354565978E0,-9.077568412E-2,1.476542392E0
1.517926713E1,-1.102849995E0,-1.018992518E0,-5.513310403E-1,1.599559245E0
1.518923812E1,-1.290950611E0,-3.774404016E-1,-7.156208432E-1,1.523524836E0
1.519920913E1,-1.104633250E0,-8.380287945E-2,1.048107558E-1,1.112754615E0
1.520918013E1,-9.509483229E-1,-2.936340138E-1,4.155265331E-1,1.078510986E0
1.521915112E1,-1.202066391E-1,-3.999083278E-1,-8.788365126E-4,4.175848166E-1
1.522912213E1,-1.539809424E-3,-9.930264947E-1,1.271155447E-1,1.001130537E0
1.523909313E1,1.766558966E-2,-5.729461500E-1,4.011605090E-1,6.996492820E-1
1.524906413E1,-4.671667663E-1,-5.408025438E-1,7.654508150E-1,1.047199661E0
1.525903513E1,-1.583972713E-1,-9.592000598E-1,3.022308826E-1,1.018085437E0
1.526900612E1,-2.801239490E-1,-3.102000529E-1,-8.065777910E-1,9.084388986E-1
1.527897613E1,-4.604213087E-1,-4.696966007E-1,-1.265442717E0,1.426165470E0
1.528894713E1,-1.075287098E0,-4.933018103E-1,-5.462802154E-1,1.303077547E0
1.529891812E1,-9.866859933E-1,-3.913050270E-1,9.646578509E-1,1.434305979E0
1.530888913E1,-1.068370573E0,-6.295638621E-1,7.548737866E-1,1.451757821E0
1.531886013E1,-1.008373389E0,-2.388327393E-1,-2.024896628E-1,1.055869326E0
1.532883112E1,-1.087464802E0,-5.654412487E-1,-2.231706798E-1,1.245836527E0
1.533880213E1,-1.333727963E0,-1.426672087E0,7.686018795E-1,2.098802605E0
1.534877313E1,-6.924861152E-1,-1.265294490E0,4.635695958E-1,1.515059054E0
1.535874412E1,-9.499266681E-1,-1.100434584E0,-5.809834403E-1,1.565521864E0
1.536871513E1,-1.007183481E0,-8.226207966E-1,3.369557422E-1,1.343377353E0
1.537868613E1,-5.625660266E-1,-2.666435587E-1,1.815646999E0,1.919414845E0
1.538865713E1,-4.432012221E-1,-1.145995796E-2,1.393313137E0,1.462149155E0
1.539862813E1,-1.289665904E-1,6.201355192E-1,1.120323011E0,1.286982553E0
1.540859912E1,1.534896301E-1,7.209839094E-1,6.869887823E-1,1.007636071E0
1.541857013E1,4.192449237E-1,4.976974547E-2,6.779454786E-1,7.986572516E-1
1.542854113E1,3.014458939E-1,-2.789914164E-1,-4.382844812E-1,6.006655674E-1
1.543851212E1,4.462924988E-1,1.976247793E-1,-1.840726292E0,1.904338685E0
1.544848313E1,6.478400655E-1,5.530132842E-1,-1.525131013E0,1.746867210E0
1.545845413E1,1.438400432E0,-2.687929952E-1,-1.479918587E0,2.081202658E0
1.546842513E1,1.395238041E0,-6.873545256E-1,-1.044474099E0,1.873518502E0
1.547839613E1,8.605255182E-1,-5.451286063E-1,-2.363444567E-2,1.018934714E0
1.548836713E1,7.431573551E-1,9.508698240E-1,7.864797413E-2,1.209389011E0
1.549833813E1,4.000780432E-1,1.403089682E0,7.333577871E-2,1.460856335E0
1.550830913E1,1.278675697E0,1.178026843E-1,2.001407193E0,2.377923414E0
1.551828012E1,8.735477060E-1,-3.410900161E-1,4.138748116E0,4.243661622E0
1.552825113E1,2.738165940E-1,9.488104346E-1,2.317005395E0,2.518676392E0
1.553822213E1,5.944879137E-1,2.248736814E0,-9.105740297E-1,2.497874737E0
1.554819312E1,1.418803928E0,1.508249224E0,-2.118994115E0,2.962761612E0
1.555816313E1,2.059105470E0,2.577902895E-1,-2.506330637E0,3.253930613E0
1.556813413E1,2.433025994E0,-7.176890033E-1,-8.898748863E-1,2.688228098E0
1.557810512E1,1.973467442E0,9.144869864E-2,1.628112175E0,2.560016770E0
1.558807613E1,2.639878119E0,2.191558354E0,3.173231310E-1,3.445660817E0
1.559804713E1,2.618717045E0,6.589084062E-1,1.785312814E-1,2.706235886E0
1.560801812E1,2.597747176E0,-1.743273380E0,7.050245190E-1,3.206922518E0
1.561798913E1,1.513674271E0,-1.358024898E0,3.530806088E-1,2.064002747E0
1.562796013E1,7.934675295E-1,2.612497947E-1,-5.349219990E-1,9.919595357E-1
1.563793113E1,2.121718479E-1,-1.167985127E0,-4.257211536E-1,1.261128325E0
1.564790213E1,-3.107961765E-1,-1.797729084E0,-7.778276163E-1,1.983290176E0
1.565787312E1,-7.624586485E-1,-1.782720743E0,-6.973424470E-1,2.060515209E0
1.566784413E1,-1.084467300E0,-9.612386915E-1,-2.794150472E-1,1.475846169E0
1.567781513E1,-1.525851682E0,-6.395050058E-1,1.782821900E-1,1.664023602E0
1.568778612E1,-9.331005011E-1,-8.397353044E-1,7.742964828E-1,1.474912530E0
1.569775713E1,-3.806269880E-1,-1.717928331E0,1.415787495E0,2.258452764E0
1.570772813E1,-3.065899819E-1,5.997565109E-1,1.107302431E0,1.296080230E0
1.571769913E1,-7.124811807E-1,1.170860788E0,1.369588060E0,1.937605706E0
1.572767013E1,2.065146668E-1,-6.010405594E-1,1.974960821E0,2.074697160E0
1.573764113E1,1.397010916E-1,-2.609995923E0,1.583177492E0,3.055821671E0
1.574761213E1,-1.192928107E-1,-1.905638864E0,-3.147439241E-1,1.935136685E0
1.575758313E1,-4.717343554E-2,1.361263964E0,-1.672334082E0,2.156841717E0
1.576755412E1,1.920958349E-1,2.091878529E0,-5.640960968E-1,2.175100227E0
1.577752513E1,-2.358709053E-1,-2.870237365E-1,8.551085114E-2,3.812214776E-1
1.578749613E1,-1.223255787E-2,-1.000130569E0,-6.364325863E-1,1.185519813E0
1.579746712E1,-1.016506281E-1,3.969850123E-2,-1.047267314E0,1.052937627E0
1.580743813E1,-4.443432929E-1,4.821280736E-1,-9.048507750E-2,6.618730925E-1
1.581740913E1,-2.032342691E-1,4.013555136E-1,1.833045389E0,1.887444255E0
1.582738013E1,2.311024278E-1,4.353541490E-1,1.013002045E0,1.126549915E0
1.583735113E1,1.055022987E-1,1.102910587E0,-3.208109951E-1,1.153456628E0
1.584732113E1,3.007717465E-1,1.112571357E0,-9.359158623E-1,1.484660624E0
1.585729213E1,-5.923408892E-1,6.002242881E-1,-1.145473055E0,1.422408325E0
1.586726313E1,-4.852106891E-1,-1.267075552E0,-1.824973308E0,2.274079471E0
1.587723413E1,3.251744432E-1,-8.409088406E-1,-1.448110904E0,1.705840346E0
1.588720513E1,1.143019198E-1,-9.353703171E-2,-1.219281288E0,1.228194189E0
1.589717613E1,1.010435044E-1,2.530022970E-1,-2.260568655E-1,3.540079921E-1
1.590714712E1,-3.610694403E-1,-5.807127142E-1,9.598128480E-1,1.178490178E0
1.591711813E1,-1.677347996E-1,-1.874751824E-1,8.418020028E-1,8.785855217E-1
1.592708913E1,-5.491395404E-1,6.804515952E-1,2.691175157E-1,9.148731308E-1
1.593706012E1,-2.778166742E-1,2.994812295E-1,3.194684744E-2,4.097459119E-1
1.594703113E1,2.858943468E-1,-3.892842293E-2,5.404049331E-1,6.126079426E-1
1.595700200E1,7.520503854E-1,-1.306902400E-1,4.673819804E-1,8.950450473E-1
1.596697300E1,-2.566655410E-1,4.852662742E-2,4.985371149E-1,5.628243851E-1
1.597694400E1,-6.331218928E-2,9.320564076E-1,-2.972724438E-1,9.803614059E-1
1.598691500E1,-1.958674718E-1,5.647714502E-1,-4.558261281E-1,7.517368665E-1
1.599688600E1,-2.745161768E-1,-7.192747682E-2,2.357421935E-2,2.847603151E-1
