"Time (s)","Linear Acceleration x (m/s^2)","Linear Acceleration y (m/s^2)","Linear Acceleration z (m/s^2)","Absolute acceleration (m/s^2)"
8.857625013E-3,1.472403892E0,-1.573822239E0,-1.507523292E-1,2.160466599E0
1.882862503E-2,1.348022651E0,-5.971802276E-1,3.766963434E-1,1.521738949E0
2.879962506E-2,8.744433533E-1,4.018411249E-1,-6.990691298E-1,1.189464214E0
3.877062502E-2,7.151755046E-1,1.342390029E0,-1.713953394E0,2.291532943E0
4.874162504E-2,1.477830400E-1,3.254381892E-1,5.191748625E-1,6.303113356E-1
5.871262500E-2,1.228936357E-1,-8.123878768E-1,-2.468612587E-1,8.579145582E-1
6.868362502E-2,-2.658193937E-1,-2.883224031E-1,5.064817268E-1,6.405571776E-1
7.865462505E-2,-2.688956138E-1,7.470943585E-1,2.405505928E0,2.533162766E0
8.862562501E-2,3.108605324E-1,1.927291688E0,4.786910802E-1,2.010033003E0
9.859662503E-2,-7.215977208E-1,4.688396913E-1,-1.414073092E-1,8.720722183E-1
1.085676251E-1,1.701590918E-2,-4.801520070E-1,1.472107877E0,1.548527394E0
1.185386250E-1,2.582725386E-1,2.411989613E0,-2.626196219E0,3.575095128E0
1.285096250E-1,-5.371777451E-1,3.037499016E0,-3.664466422E0,4.789913815E0
1.384806250E-1,7.416954781E-1,1.052353514E0,-2.777942575E0,3.061784618E0
1.484516250E-1,-5.796249128E-1,1.730389917E-1,-8.146405166E-1,1.014665809E0
1.584226250E-1,-2.769912666E-1,5.576103652E-1,4.941897100E-1,7.949068817E-1
1.683936250E-1,-5.146556592E-1,1.633215332E0,-1.791224349E-1,1.721728090E0
1.783646250E-1,-1.147663860E0,1.520453240E0,-1.236732304E0,2.271214913E0
1.883356250E-1,3.137784392E-1,-2.711809981E-1,7.577260584E-1,8.637967482E-1
1.983066250E-1,4.904928445E-1,2.272271857E-1,-4.035485119E-1,6.745864109E-1
2.082776250E-1,4.232795756E-1,1.878967667E0,-1.489180577E0,2.434613703E0
2.182486251E-1,7.566456391E-1,1.030453060E0,1.749065924E-1,1.290324939E0
2.282196250E-1,4.457990304E-2,3.075728989E-1,2.236092210E-1,3.828701341E-1
2.381906250E-1,-8.441563842E-1,7.112190592E-1,5.436928225E-1,1.230461067E0
2.481616250E-1,-1.362152009E0,5.920139202E-1,8.555096304E-1,1.714011466E0
2.581326250E-1,-1.710433955E0,9.481543770E-1,-1.996777368E0,2.794942019E0
2.681036250E-1,-3.893613394E-2,-2.117180309E-1,-1.218553310E0,1.237421802E0
2.780746250E-1,4.539402914E-1,-1.102780487E0,-1.341003946E0,1.794569077E0
2.880456250E-1,8.985160477E-1,-1.112879213E0,5.852133161E-1,1.545414461E0
2.980166250E-1,1.323223440E0,-8.539273739E-2,1.389858018E0,1.920915798E0
3.079876250E-1,-1.067958856E-1,-1.217102908E0,-5.181299651E-1,1.327103429E0
3.179586250E-1,6.487646565E-1,-9.844664633E-1,-3.015087515E-1,1.216954118E0
3.279296251E-1,6.143806896E-1,-9.182862148E-1,6.167420876E-1,1.265339483E0
3.379006250E-1,3.025774033E-1,-1.070636296E0,2.456550951E0,2.696749476E0
3.478716250E-1,5.023184361E-1,-7.069181398E-1,3.426330378E0,3.534373626E0
3.578426250E-1,1.189269577E-1,-2.035556102E-1,1.330809326E0,1.351529492E0
3.678136250E-1,4.823103971E-1,1.170625437E0,1.389853925E0,1.880074777E0
3.777846250E-1,7.758402939E-1,1.170194790E0,8.451881254E-1,1.638788264E0
3.877556250E-1,1.150661143E0,-2.231630784E-1,5.478782594E-2,1.173381665E0
3.977266250E-1,7.936928666E-1,-1.207186908E-1,-2.351333229E0,2.484610497E0
4.076976251E-1,6.043542496E-1,1.739468596E0,-2.893978815E0,3.430176153E0
4.176686250E-1,6.698576099E-1,8.778892636E-1,-7.703671539E-1,1.346426503E0
4.276396250E-1,5.598551843E-1,7.564806014E-2,-9.294371474E-1,1.087664409E0
4.376106251E-1,6.111838706E-1,-9.847801664E-1,-8.996409059E-1,1.467205323E0
4.475816250E-1,3.814089069E-1,-2.947929320E-1,-1.487602998E0,1.563757752E0
4.575526250E-1,2.038932869E-1,1.584320623E-1,-2.771691316E-1,3.788085510E-1
4.675236250E-1,3.010012863E-1,1.095052514E0,1.631173192E0,1.987578367E0
4.774946250E-1,2.872509740E-1,5.352704930E-1,4.555600798E-1,7.593171992E-1
4.874656250E-1,6.750443825E-1,6.256807262E-1,3.611918664E-1,9.887471132E-1
4.974366250E-1,4.670117786E-1,1.038603494E0,1.257689309E-1,1.145694132E0
5.074076250E-1,9.967596495E-1,1.894705448E0,-2.645945190E0,3.403595816E0
5.173786251E-1,9.394733814E-1,8.086532602E-1,-1.990590429E0,2.344990530E0
5.273496250E-1,1.593240550E0,1.014360353E0,-1.421421872E0,2.363849089E0
5.373206250E-1,2.213911528E0,1.746951278E0,-1.247440310E0,3.083723455E0
5.472916250E-1,1.910641449E0,7.330695194E-1,-1.351193889E0,2.452277838E0
5.572626250E-1,2.744413471E0,-2.053242175E0,9.038585025E-1,3.544653568E0
5.672336250E-1,2.828787038E0,-1.706753132E0,1.890472648E0,3.806432608E0
5.772046250E-1,2.900661890E0,7.895115227E-1,2.164999423E0,3.704644429E0
5.871756250E-1,3.021910046E0,4.936707696E-1,1.211144303E0,3.292798457E0
5.971466250E-1,2.063259332E0,-1.452441059E0,1.034589381E0,2.727086227E0
6.071176250E-1,9.446954566E-1,1.571980074E-1,2.141472566E-1,9.813357055E-1
6.170886250E-1,8.432222915E-1,5.993355113E-1,-1.454942790E0,1.785240995E0
6.270596251E-1,9.388511646E-1,1.754286903E0,-7.728469580E-1,2.134538935E0
6.370306250E-1,8.133917706E-1,1.032432050E0,-7.284712690E-1,1.502728352E0
6.470016250E-1,6.894016358E-1,-6.314554363E-2,-4.313993847E-1,8.157005604E-1
6.569726250E-1,5.688348996E-1,8.859122282E-1,-7.066009283E-1,1.267950508E0
6.669437501E-1,1.663334925E0,1.304079364E0,-2.032483390E0,2.932284909E0
6.769147500E-1,2.041167236E0,-5.907763571E-1,4.684765792E-1,2.175971207E0
6.868857500E-1,1.940389451E0,-7.198916495E-1,2.144804894E0,2.980527343E0
6.968567500E-1,2.077806913E0,1.044902115E0,1.137140772E0,2.588859041E0
7.068277500E-1,1.227289489E0,1.247252906E0,1.872900596E0,2.563130106E0
7.167987500E-1,1.300450143E0,-3.429716501E-1,-1.019883049E-1,1.348777870E0
7.267697500E-1,8.835794815E-1,-9.104828131E-1,8.939457178E-2,1.271881694E0
7.367407500E-1,5.624513481E-1,1.522287512E0,8.978364551E-1,1.854675467E0
7.467117500E-1,1.250716651E0,1.857716254E0,1.732354581E-2,2.239576282E0
7.566827500E-1,1.054757816E0,1.615433657E0,-4.241283721E-1,1.975354355E0
7.666537500E-1,4.354316247E-1,1.794280396E0,-2.203528481E0,2.874818360E0
7.766247501E-1,-3.023990632E-1,9.559846759E-2,-2.225484191E0,2.247968893E0
7.865957500E-1,3.352844618E-2,4.293952516E-1,-8.793440509E-1,9.791580049E-1
7.965667500E-1,6.575392807E-1,-4.104809707E-1,-5.620484018E-1,9.574711165E-1
8.065377500E-1,8.666012869E-1,-1.781298700E0,1.764186823E0,2.652617198E0
8.165087500E-1,1.578675867E-1,-6.590072241E-1,1.104461269E0,1.295780611E0
8.264797500E-1,3.594303927E-1,2.809025788E-1,1.398254619E0,1.470786336E0
8.364507500E-1,3.792978428E-1,4.011064222E-1,-2.918485665E-1,6.244427926E-1
8.464217500E-1,-4.066794035E-1,-7.944231838E-2,-1.346420807E-1,4.356922183E-1
8.563927501E-1,-4.586300142E-2,1.737456277E-1,-2.297049433E-1,2.916424506E-1
8.663637500E-1,1.400342368E-1,9.312269801E-1,-1.480460039E0,1.754581205E0
8.763347500E-1,-1.708958410E-2,9.084909591E-1,-1.964691356E0,2.164638539E0
8.863057501E-1,-4.949806921E-1,-8.581057942E-1,1.878599292E0,2.123790653E0
8.962767500E-1,4.280199865E-1,-1.151938321E0,2.676740136E0,2.945352400E0
9.062477500E-1,-2.661472032E-1,5.150280172E-1,2.225956646E0,2.300211117E0
9.162187500E-1,-5.544707027E-1,3.691674685E-1,8.937966138E-1,1.114717348E0
9.261897500E-1,-1.760471941E0,-2.832107672E-1,-1.058944788E0,2.073845187E0
9.361607500E-1,-1.479606638E0,3.161335149E-1,-1.760832860E0,2.321574588E0
9.461317500E-1,-7.708922338E-1,1.642701855E0,-4.131362498E0,4.512305432E0
9.561027500E-1,-1.259887862E0,3.688742307E-1,-4.201040844E0,4.401378170E0
9.660737501E-1,-2.145132923E-1,-4.809621388E-1,-4.760127631E0,4.789170658E0
9.760447500E-1,-1.344309231E-1,-1.076500176E0,-7.069911715E0,7.152662159E0
9.860157500E-1,-1.323461276E0,-4.718754487E0,3.406866167E0,5.968662391E0
9.959867500E-1,9.703458030E-2,-4.174587748E0,1.391646447E1,1.452943846E1
1.005957750E0,1.633077630E0,2.384082314E-1,1.081775008E1,1.094291998E1
1.015928750E0,-1.519874804E0,3.229408142E0,2.894879871E0,4.595587648E0
1.025899750E0,-2.921706312E0,2.884899259E0,-1.728917003E0,4.455128001E0
1.035870750E0,-1.273396392E0,4.695039350E-1,-5.276322168E0,5.448077453E0
1.045841750E0,-5.058198950E-1,-1.086430502E0,-6.866956029E0,6.970743870E0
1.055812750E0,-1.383882090E-1,4.150613871E-1,-6.402363170E0,6.417295491E0
1.065783750E0,-4.367670191E-1,1.013392639E0,-7.241948494E0,7.325540803E0
1.075754750E0,-4.393417674E-1,-5.710349876E-1,-5.371731770E0,5.419834348E0
1.085725750E0,-6.271976401E-1,-2.272144680E0,1.820813014E0,2.978485917E0
1.095696750E0,-1.545558992E0,-3.581925956E0,1.456250462E1,1.507599041E1
1.105667750E0,-1.219570726E0,-8.947041017E-1,1.718126435E1,1.724771558E1
1.115638750E0,-7.453378184E-2,5.122821062E0,3.896444762E0,6.436702005E0
1.125609750E0,-2.361637485E0,5.210079646E0,-4.307723878E0,7.160917995E0
1.135580750E0,-2.211316388E0,-5.521262616E-2,-1.080022831E0,2.461588494E0
1.145551750E0,-3.171305383E-1,-3.453997064E-1,-3.963868421E0,3.991506683E0
1.155522750E0,-2.192068816E0,3.541631331E0,-4.853522868E0,6.395701870E0
1.165493750E0,-9.454804453E-1,3.104022788E0,-6.022650833E0,6.841141264E0
1.175464750E0,4.972250728E-1,-1.704346711E0,-4.517305044E0,4.853666176E0
1.185435750E0,7.768480615E-1,-1.240041243E0,-7.893466312E-1,1.662607380E0
1.195406750E0,6.732482640E-1,-1.142317020E0,1.915953645E0,2.330027847E0
1.205377750E0,-3.112788641E-1,-1.227384652E0,2.849431803E0,3.118113085E0
1.215348750E0,1.249409798E0,3.898604724E-1,-5.821493751E-1,1.432450322E0
1.225319750E0,3.119464992E0,1.358325738E0,-8.956232840E0,9.580721128E0
1.235290750E0,1.159742088E0,-2.117218900E0,-1.112087558E1,1.137987220E1
1.245261750E0,2.190104297E0,-4.054506404E0,-1.039896314E1,1.137426979E1
1.255232750E0,3.606973381E-1,-1.158145959E1,1.578043520E1,1.957760056E1
1.265203750E0,-2.888091254E0,-7.560357453E0,4.856776843E1,4.923746750E1
1.275174750E0,-4.673859273E-1,1.202443061E1,4.401546546E0,1.281323508E1
1.285145750E0,-1.218443455E0,1.058566824E1,-4.193490334E0,1.145104090E1
1.295116750E0,1.532549832E-1,-3.645312113E-1,-3.121125602E0,3.146076146E0
1.305087750E0,-1.051372351E0,1.340700768E0,-7.790013279E0,7.974156335E0
1.315058750E0,-1.057056503E0,6.518484195E0,-7.602991841E0,1.007042648E1
1.325029750E0,-1.758219301E0,2.561853750E0,-9.185436677E0,9.696735363E0
1.335000750E0,1.172580527E0,-5.674514630E0,-4.877390032E0,7.573902224E0
1.344971750E0,4.306970885E-2,-5.206716328E0,-8.457161289E-1,5.275128974E0
1.354942750E0,-4.615972934E-2,1.661555032E0,-7.125095397E-1,1.808470539E0
1.364913750E0,9.002858537E-1,2.959598608E0,-1.853650392E0,3.606349722E0
1.374884750E0,5.823651008E-1,2.131260404E-1,-2.649682730E0,2.721284695E0
1.384855750E0,-4.106973269E-2,8.106737655E-1,-2.071888361E0,2.225219103E0
1.394826750E0,-6.641785017E-1,3.319698215E0,4.978401268E-1,3.421896274E0
1.404797750E0,-1.438525709E0,1.046178562E0,1.766953726E0,2.507183932E0
1.414768750E0,-2.485997090E-1,-3.269496945E0,1.195996506E0,3.490246371E0
1.424739750E0,1.070730217E0,-6.199548402E0,-2.248069646E0,6.680919153E0
1.434710750E0,1.111625497E0,-5.589566281E0,-6.427292190E0,8.590055142E0
1.444681750E0,2.073895381E-1,-2.659578265E0,-8.373536165E0,8.788200890E0
1.454652750E0,-4.885447715E-1,-2.775404883E0,-1.110062551E1,1.145274792E1
1.464623750E0,-2.155733194E0,-6.569963082E0,-7.239262868E0,1.001092041E1
1.474594750E0,-2.356779033E0,-5.906759019E0,2.348491365E1,2.433074965E1
1.484565750E0,1.349609878E0,1.884551465E0,3.322727072E1,3.330802457E1
1.494536750E0,-8.061820807E-1,1.003403724E1,6.093361797E0,1.176694059E1
1.504507750E0,-3.367015345E0,4.054724505E0,-7.642744136E0,9.283809621E0
1.514478750E0,6.095891887E-1,-6.248273250E0,-6.441470518E0,8.994724011E0
1.524449750E0,1.866802900E-1,-5.663562795E0,-7.561796452E0,9.449421075E0
1.534420750E0,3.504290062E-1,-2.470851486E0,-3.902306596E0,4.632051848E0
1.544391750E0,-9.828646917E-1,5.243296509E0,-7.200326843E0,8.961187864E0
1.554362750E0,-1.892158547E0,1.294770246E1,-3.778162022E0,1.361975665E1
1.564333750E0,-2.749865999E0,1.299736637E1,4.839614096E0,1.413913576E1
1.574304750E0,-4.042636263E0,1.800465873E0,1.146105139E1,1.228577569E1
1.584275750E0,1.966946335E0,-8.145768989E0,1.206038631E1,1.468588943E1
1.594246750E0,3.229641446E0,-1.319924149E1,-3.758835804E0,1.409891508E1
1.604217750E0,-1.177934019E0,-7.591945281E0,-9.095131693E0,1.190573737E1
1.614188750E0,-1.093561182E0,3.776318979E-1,2.907336195E0,3.129071053E0
1.624159750E0,5.697382213E-1,2.043472647E0,9.105895248E0,9.349743866E0
1.634130750E0,1.432014981E0,1.208023059E0,6.968350257E0,7.215808473E0
1.644101750E0,4.356768788E-1,1.739666232E0,6.215221864E-1,1.898036557E0
1.654072750E0,-2.306708449E0,1.764938775E0,-1.272412013E0,3.170953339E0
1.664043750E0,-9.698968830E-1,2.724209002E-1,-1.154641489E0,1.532354423E0
1.674015250E0,1.154402630E-1,-7.224775806E-1,-2.963424441E0,3.052406383E0
1.683986250E0,-6.247843480E-1,-1.935599412E0,-2.811607919E0,3.470164211E0
1.693957250E0,-3.512055530E-1,-3.645101613E-1,-3.453216460E0,3.490117035E0
1.703928250E0,-1.718925720E-1,1.282907766E0,-3.129151490E0,3.386294204E0
1.713899250E0,4.025336545E-1,6.581547001E-1,-1.956871875E0,2.103461073E0
1.723870250E0,1.270867764E0,-6.599167585E-2,-1.314921856E0,1.829885040E0
1.733841250E0,1.182599658E0,-1.267597124E0,-2.522763652E-1,1.751852672E0
1.743812250E0,2.041957049E0,-2.180284045E0,-3.186767029E0,4.367918406E0
1.753783250E0,1.140145364E0,-5.369875864E0,-4.569533544E0,7.142558019E0
1.763754250E0,7.325421736E-1,-6.754159731E0,-5.942329971E0,9.025883734E0
1.773725250E0,-1.634262605E-1,9.676898076E0,-7.042078384E0,1.196912413E1
1.783696250E0,-2.063501553E0,2.148736211E1,-3.357797502E0,2.184581363E1
1.793667250E0,-1.055200231E0,2.351678566E1,2.523195761E0,2.367528610E1
1.803638250E0,3.440406673E0,2.112718883E-1,1.221861197E1,1.269549181E1
1.813609250E0,6.036979435E0,-1.265756362E1,1.811925597E1,2.291214687E1
1.823580250E0,3.251876945E0,-1.638271712E1,1.338703067E0,1.675590194E1
1.833551250E0,1.193299697E0,-3.783619228E0,-1.748854254E1,1.793289879E1
1.843522250E0,4.002585175E0,8.898068247E0,-1.256077583E1,1.590501166E1
1.853493250E0,3.579665422E0,5.822801188E0,-2.719189167E-2,6.835185265E0
1.863464250E0,-3.239193384E-1,2.028785026E0,4.817991092E0,5.237740981E0
1.873435250E0,-1.614364055E0,-2.354793611E0,6.618041813E0,7.207614147E0
1.883406250E0,-2.373387465E0,-4.644570570E0,4.343236358E0,6.787393159E0
1.893377250E0,-2.083029353E0,-3.255817968E0,-3.712578481E-1,3.882936301E0
1.903348250E0,-4.245198066E-1,-2.323332375E0,-7.913949108E-1,2.490862561E0
1.913319250E0,-1.628957536E-1,-1.371912913E0,6.283090496E-1,1.517712861E0
1.923290250E0,-2.822741529E-1,-2.259431371E-1,1.936335284E0,1.969802866E0
1.933261250E0,-1.111246085E0,7.901982781E-1,5.892204130E-1,1.485416398E0
1.943232250E0,-1.426332656E0,1.115122497E-1,-1.106104921E0,1.808404801E0
1.953203250E0,-1.036832738E0,1.049060655E-1,1.044752426E0,1.475647330E0
1.963174250E0,8.318555966E-1,1.766429231E0,9.780017817E-1,2.183745279E0
1.973145250E0,1.587049226E0,6.493397301E-1,-6.521107256E-2,1.715989456E0
1.983116250E0,8.750649123E-1,-8.860569468E-1,9.943763244E-1,1.593618458E0
1.993087250E0,1.330314066E0,-2.290178955E-1,-5.990718019E-1,1.476845197E0
2.003058250E0,4.965898459E-1,-2.214708942E-1,-9.488183284E-1,1.093575353E0
2.013029250E0,1.097860859E0,-9.913875201E-1,3.741592366E-1,1.525825290E0
2.023000250E0,9.648319517E-1,-8.551237142E-1,-1.426516551E0,1.922780989E0
2.032971250E0,9.952474865E-1,-1.556611837E0,-1.764055846E0,2.554496232E0
2.042942250E0,5.185890446E-1,-9.675741497E-1,-2.390100269E0,2.630154677E0
2.052913250E0,-4.092980425E-1,-7.003198493E-1,-1.072810290E0,1.344951560E0
2.062884250E0,-4.981947604E-1,-1.243291125E0,-2.252031720E-1,1.358192663E0
2.072855250E0,-1.385734561E0,-1.530967703E0,-6.869232935E-1,2.176232063E0
2.082826250E0,-1.969346910E0,3.069533864E-1,-1.173288260E0,2.312823593E0
2.092797250E0,-2.652041497E0,1.590872428E0,-1.787009091E0,3.571778363E0
2.102768250E0,-3.146247579E0,2.267320142E0,1.418143923E0,4.129254974E0
2.112739250E0,-2.684937932E0,7.355624798E-1,4.040972146E0,4.907076497E0
2.122710250E0,-1.621714882E0,2.463350093E-1,1.981759964E0,2.572549834E0
2.132681250E0,-1.979861665E0,1.463951303E0,-1.501705897E0,2.884116196E0
2.142652250E0,-2.529980870E0,3.787142175E-1,-6.222062522E0,6.727428163E0
2.152623250E0,-9.832519966E-1,-3.124655566E-1,-3.882902026E-1,1.102355884E0
2.162594250E0,-5.055430659E-1,-4.511618042E-1,5.713637765E0,5.753675110E0
2.172565250E0,8.094309399E-1,1.860230264E-1,7.727154542E0,7.771660075E0
2.182536250E0,9.224133258E-1,3.773757314E0,4.133995500E0,5.672918949E0
2.192507250E0,-7.701035175E-1,4.430654278E0,2.420934976E0,5.107316606E0
2.202478250E0,1.516824897E0,1.053736088E0,5.389051223E-1,1.923937692E0
2.212449250E0,1.347218075E0,-3.081044108E-2,-1.837935416E0,2.279024444E0
2.222420250E0,9.781217958E-1,-1.035479034E0,-3.841579753E-1,1.475302148E0
2.232391250E0,1.067314346E0,-8.288390180E-1,1.704308411E0,2.175040504E0
2.242362250E0,3.882496376E-1,1.037326462E0,6.690091789E-2,1.109621423E0
2.252333250E0,-4.335306948E-1,-7.661899030E-1,-1.989927939E0,2.175961634E0
2.262304250E0,-8.901581108E-1,4.838395536E-2,-5.546720223E0,5.617902429E0
2.272275250E0,-1.167145759E0,-1.222170690E0,-5.328624927E0,5.590185509E0
2.282246250E0,-8.249184600E-1,-5.196878972E0,6.410909461E0,8.293841187E0
2.292217250E0,1.054162496E0,-2.442935709E0,1.690548393E1,1.711357883E1
2.302188250E0,-1.479556645E0,1.448978630E0,1.040398239E1,1.060808543E1
2.312159250E0,-2.934764021E0,3.018663965E0,4.284504585E0,6.006842060E0
2.322130250E0,-1.101607389E0,3.974311841E0,-3.574490052E0,5.457625178E0
2.332101250E0,1.115489556E0,-3.964915073E-1,-8.084262713E0,8.170485057E0
2.342072250E0,6.674737000E-1,-2.030582168E0,-9.931501633E0,1.015891282E1
2.352043250E0,5.853194430E-1,-4.324498370E-1,-9.761514303E0,9.788604252E0
2.362014250E0,2.678159986E-1,-4.721281654E-1,-6.226930329E0,6.250543315E0
2.371985250E0,1.151713934E0,-9.835341248E-1,-2.882677317E-2,1.514798780E0
2.381956250E0,1.973420811E0,-8.652502146E-1,3.785084540E0,4.355446316E0
2.391927250E0,2.299723657E0,-4.662862122E-3,1.605949473E0,2.804964234E0
2.401898250E0,2.886080981E0,2.635954052E-2,-3.746173659E0,4.729056495E0
2.411869250E0,1.259859796E0,-3.631957657E0,-4.394704134E0,5.838817308E0
2.421840250E0,1.481384777E0,-2.905241722E0,-3.760762462E0,4.977777076E0
2.431811250E0,1.019227283E0,1.884203556E0,-3.610008379E0,4.197762236E0
2.441782250E0,2.536149390E-1,7.374774429E-1,-3.510766511E0,3.596341893E0
2.451753250E0,-1.325871864E-1,-2.153121974E0,5.064612615E-1,2.215855728E0
2.461724250E0,4.409005255E-2,-5.952763742E0,1.384757959E1,1.507291613E1
2.471695250E0,-2.476801248E-1,-3.121814404E0,1.310570241E1,1.347466164E1
2.481666250E0,-1.629970566E0,3.123728782E0,2.953263150E0,4.597417621E0
2.491637250E0,2.690000597E-2,6.147402933E-1,3.195871729E-1,6.933723384E-1
2.501608250E0,2.683290917E-2,-1.853106309E0,3.042639595E-1,1.878110634E0
2.511579250E0,-4.886650049E-1,-3.484595543E-1,3.006549411E0,3.065869682E0
2.521550250E0,-1.550765206E0,1.869778183E0,2.546528490E0,3.519339502E0
2.531521250E0,-1.046919112E0,9.961275655E-1,1.549102843E-1,1.453377773E0
2.541492250E0,-1.425896162E-1,7.975046664E-1,-2.334327772E0,2.470917165E0
2.551463250E0,1.008769611E0,1.799334144E0,-3.282498813E0,3.876856710E0
2.561434250E0,5.006801925E-1,4.585411658E0,-3.648729225E0,5.881318363E0
2.571405250E0,7.052901287E-1,2.225031617E0,-3.463663681E0,4.176741068E0
2.581376250E0,1.748296722E0,-1.697669775E0,-5.105761811E0,5.657510739E0
2.591347250E0,3.009437935E0,-1.287933740E0,-7.950711138E0,8.598214791E0
2.601318250E0,2.235389667E0,-3.697047400E0,-8.223110695E0,9.288954513E0
2.611289250E0,2.441758080E0,-1.118463011E1,8.809117479E0,1.444502281E1
2.621260250E0,2.035578614E0,-7.936562630E0,1.459126707E1,1.673432644E1
2.631231250E0,-3.067386766E0,-1.598827272E0,5.426790907E0,6.435461892E0
2.641202250E0,-1.507044990E0,4.881127573E0,-1.927124750E0,5.459890181E0
2.651173250E0,5.673866905E-1,4.758580458E0,2.658668731E0,5.480377272E0
2.661144250E0,-2.749415764E0,1.709962669E0,-3.002767432E0,4.415865897E0
2.671114750E0,-2.476459258E0,-5.554530934E0,2.184912116E0,6.462159493E0
2.681085750E0,-1.202157790E0,-2.114770963E0,1.326083255E1,1.348210368E1
2.691056750E0,8.818967991E-2,7.574444565E0,3.869890802E0,8.506235519E0
2.701027750E0,-3.524388185E0,5.122865501E0,-4.524766676E0,7.690161018E0
2.710998750E0,4.341394485E0,-8.056878448E-1,-7.169062366E0,8.419756183E0
2.720969750E0,1.191815893E0,-2.639768483E0,-5.836967238E0,6.516056269E0
2.730940750E0,1.085929615E0,-9.187829357E-1,-6.039783760E0,6.205029660E0
2.740911750E0,2.023661111E0,2.353121892E0,-6.322809463E0,7.043458414E0
2.750882750E0,1.399939787E0,5.720105370E0,-7.159354818E0,9.270156324E0
2.760853750E0,1.954600378E0,7.555671494E0,-3.988340188E0,8.764444753E0
2.770824750E0,1.198589089E0,5.907319182E0,4.613057878E0,7.590345098E0
2.780795750E0,1.641137140E0,3.223014504E-2,1.144908097E1,1.156614996E1
2.790766750E0,1.854381148E0,-1.696088980E0,4.518220133E0,5.170083214E0
2.800737750E0,-3.105505203E-1,4.194587857E-1,-4.604656599E0,4.634139585E0
2.810708750E0,-7.097816674E-1,9.818784857E-1,-4.911291604E0,5.058523559E0
2.820679750E0,5.884888532E-1,3.952890274E-1,-3.877441311E0,3.941715828E0
2.830650750E0,4.491667708E-1,-1.893121144E0,2.199890344E0,2.936864992E0
2.840621750E0,2.503711230E-1,-2.640150891E0,5.641599483E0,6.233837274E0
2.850592750E0,7.676302184E-1,-5.482843485E-1,1.029729175E0,1.396500645E0
2.860563750E0,-5.265081480E-1,-4.971855310E-1,-6.276008348E0,6.317648698E0
2.870534750E0,-1.515221736E0,-5.818911620E0,-8.657545370E0,1.054081217E1
2.880505750E0,-1.535372850E0,-9.764509832E0,-4.508418446E0,1.086410875E1
2.890476750E0,-2.942080058E0,-5.981537306E0,-1.966949551E0,6.950072959E0
2.900447750E0,-3.214497157E0,5.494343204E0,-2.588823740E0,6.871885300E0
2.910418750E0,-1.573997510E0,1.056424872E1,-2.740553139E0,1.102685135E1
2.920389750E0,1.349423060E0,8.606551802E0,-4.824069273E0,9.958178592E0
2.930360750E0,3.129209085E0,-4.325111158E0,-6.990979566E0,8.796154348E0
2.940331750E0,6.296414546E0,-1.607650428E1,2.714699207E1,3.217231736E1
2.950302750E0,1.604880895E0,-1.193616689E0,4.454516473E1,4.459004445E1
2.960273750E0,4.202643566E0,1.011137602E1,6.206765621E0,1.258674213E1
2.970244750E0,-1.946943010E0,1.955941875E0,-1.891974681E1,1.911996640E1
2.980215750E0,-1.175066252E0,-9.280477320E0,-5.889069437E0,1.105392142E1
2.990186750E0,-3.544503922E-1,-3.520637196E0,-6.596135804E0,7.485287495E0
3.000157750E0,-2.695423159E0,-9.789317814E-1,-3.261847617E0,4.343185849E0
3.010128750E0,1.842368921E0,-2.010084461E0,-6.505741358E0,7.054036674E0
3.020099750E0,1.822817439E0,-5.334481498E0,-8.418936287E0,1.013202075E1
3.030070750E0,-1.745312157E0,-3.242254182E0,-5.732535966E0,6.813244111E0
3.040041750E0,-3.944069164E0,-4.274086601E-1,6.132268585E0,7.303634556E0
3.050012750E0,-3.536061566E0,-3.136166102E0,2.007542092E1,2.062430106E1
3.059983750E0,-3.060302864E0,1.144484583E0,8.381045160E0,8.995399744E0
3.069954750E0,-3.721788138E0,5.224180207E0,-4.543568982E0,7.860520649E0
3.079925750E0,-2.635783021E0,4.655370377E0,-4.460343808E0,6.965234552E0
3.089896750E0,-7.255096543E-1,7.823062912E-1,2.465560341E-1,1.095060395E0
3.099867750E0,5.053315429E-1,-1.301160434E0,2.332219850E0,2.718019108E0
3.109838750E0,1.842413213E0,1.565676776E-1,-2.158013754E0,2.841834487E0
3.119809750E0,2.197938689E0,3.644611908E0,-4.966698065E0,6.540811885E0
3.129780750E0,1.724373717E0,2.437101650E0,-2.576286140E0,3.943371583E0
3.139751750E0,3.388980046E-1,-2.006983390E0,4.160644770E-1,2.077484978E0
3.149722750E0,-9.043066185E-1,-4.906825501E0,1.149738014E-1,4.990784100E0
3.159693750E0,-1.146540610E0,-2.920297425E0,-1.559119123E0,3.503361937E0
3.169664750E0,-1.253181106E0,2.636546083E0,-3.626426775E0,4.655406458E0
3.179635750E0,-6.893111502E-1,2.857529319E0,-2.415758436E0,3.804801242E0
3.189606750E0,-1.857175094E0,2.398324085E0,-4.970373040E-1,3.073776802E0
3.199577750E0,-1.679811209E0,1.421702539E0,-1.225851805E0,2.519070554E0
3.209548750E0,-2.053843269E0,-1.438117427E0,-2.580338845E0,3.597860818E0
3.219519750E0,-7.989954141E-1,3.516745289E0,-3.858718527E0,5.281628515E0
3.229490750E0,-4.266108440E-1,1.247365933E1,-4.878141984E0,1.340038966E1
3.239461750E0,-1.276714102E0,2.164458439E1,-1.192997469E0,2.171500115E1
3.249432750E0,-2.442419546E0,7.853812834E0,8.331436213E0,1.170728912E1
3.259403750E0,-1.360446377E0,-8.817588340E0,1.020454205E1,1.355482781E1
3.269374750E0,-4.543383041E-1,-8.230230850E0,-6.538800931E-1,8.268656621E0
3.279345750E0,4.728520141E-1,-1.143448281E1,-5.804776561E0,1.283224131E1
3.289316750E0,2.413176159E0,-8.760052907E-1,-1.664515770E0,3.059643311E0
3.299287750E0,2.318391185E0,5.837426244E0,-7.695310020E-1,6.327927054E0
3.309258750E0,1.874829884E0,6.194201124E0,1.038780080E0,6.554554044E0
3.319229750E0,2.090977474E0,1.529024381E0,-1.780071369E0,3.143048907E0
3.329200750E0,-8.724906756E-1,1.699385056E-1,-2.606601030E-1,9.263167730E-1
3.339171750E0,-1.879488654E0,-2.830043605E-1,-8.650341600E-1,2.088265588E0
3.349142750E0,-1.801625376E0,-5.545888749E0,-5.858892542E-1,5.860546240E0
3.359113750E0,-2.079654706E-1,-6.102351891E0,-3.800931079E0,7.192289295E0
3.369084750E0,1.678701115E0,-6.335137147E0,-4.804296913E0,8.126085708E0
3.379055750E0,3.343823826E-1,-7.659868877E0,3.718483000E0,8.521297942E0
3.389026750E0,-1.512131446E-1,-5.469711809E0,1.072206741E1,1.203758041E1
3.398997750E0,-1.685405679E0,3.889716956E-1,8.629170002E0,8.800821905E0
3.408968750E0,-1.144075716E0,1.583415181E0,3.898818147E0,4.360836597E0
3.418939750E0,-7.783217061E-1,-4.380307120E-1,1.728998864E0,1.946045389E0
3.428910750E0,-2.068969650E-2,-1.698345129E0,8.691044068E-1,1.907916851E0
3.438881750E0,-9.664810858E-1,6.062802494E-1,8.913951623E-1,1.447842107E0
3.448852750E0,-9.568829544E-1,1.731207650E0,-6.366641361E-1,2.077990890E0
3.458823750E0,2.682589252E-2,-2.752740490E-1,-1.612800656E0,1.636343908E0
3.468794750E0,1.078524701E0,-1.194591128E0,-1.727440581E0,2.360998614E0
3.478765750E0,8.248609380E-1,-1.396923208E-1,-2.840934044E-1,8.835262157E-1
3.488736750E0,1.693922733E0,1.043438557E0,4.273659754E-1,2.034890642E0
3.498707750E0,2.297927685E0,1.220337003E0,2.522264884E0,3.623743119E0
3.508678750E0,1.045666565E0,1.751842182E0,-2.477932464E0,3.209753712E0
3.518649750E0,-1.772526415E-1,3.267985439E-1,-1.079606509E-1,3.871321343E-1
3.528620750E0,1.155045531E0,1.783020705E0,-1.812951432E0,2.792863389E0
3.538591750E0,3.897960799E-1,1.819316419E0,-2.138150178E0,2.834349908E0
3.548562750E0,-6.247592050E-1,2.535004505E0,-3.949063271E-1,2.640553524E0
3.558533750E0,8.094163584E-3,1.830423790E0,-2.364813985E0,2.990461829E0
3.568504750E0,-1.223920689E0,-1.664594123E0,2.086466639E0,2.936358030E0
3.578475750E0,-1.215217108E0,-5.820216134E-1,-2.788005048E-1,1.375947492E0
3.588446750E0,-7.727444856E-1,-2.217264175E0,-2.250166458E-1,2.358818975E0
3.598417750E0,-8.705592672E-1,-1.288595060E0,3.483268225E-1,1.593638052E0
3.608388750E0,-1.030270773E0,2.887346026E0,-2.148581611E0,3.743611609E0
3.618359750E0,-1.146127139E0,5.121643433E-1,-5.283023661E-1,1.361992336E0
3.628330750E0,4.087205934E-1,-3.299398144E0,-1.615847640E0,3.696490799E0
3.638301750E0,1.173342273E0,-2.454230191E0,-1.136681766E0,2.948223763E0
3.648272750E0,-4.567977526E-1,1.562135994E0,-2.149631186E0,2.696265433E0
3.658243750E0,-4.897051880E-1,1.666364660E0,-2.396690665E0,2.959849404E0
3.668214750E0,-6.441472565E-1,4.600875789E-1,-4.434725987E0,4.504819735E0
3.678186625E0,-4.329117671E-1,-3.029157378E0,8.088377398E-1,3.165031675E0
3.688157625E0,1.378268763E-1,-3.591940190E0,1.067177902E1,1.126090129E1
3.698128625E0,1.788301289E-1,3.064022863E-1,9.104767320E0,9.111676604E0
3.708099625E0,-3.365514073E-1,4.546063405E0,-5.094158596E-1,4.586879533E0
3.718070625E0,-5.175416621E-1,2.021099446E0,-4.813263618E0,5.245969787E0
3.728041625E0,-5.730274994E-2,-2.266214141E0,-4.061440324E0,4.651269466E0
3.738012625E0,-6.207309119E-1,-1.246951190E0,-2.223622438E0,2.623869448E0
3.747983625E0,-9.918057422E-1,1.058073553E0,-1.715629206E0,2.246459847E0
3.757954625E0,-8.923501588E-1,1.965180184E0,-1.206226210E0,2.472489359E0
3.767925625E0,-1.773482873E0,-1.369534265E0,1.544343209E-1,2.246044426E0
3.777896625E0,-8.277967519E-1,-5.873058007E0,3.735311871E0,7.009323262E0
3.787867625E0,-6.158977497E-1,-2.648893940E-1,3.239714736E0,3.308360319E0
3.797838625E0,-1.916357102E0,3.605970291E0,6.155884320E-1,4.129696769E0
3.807809625E0,-2.311115349E0,-6.110887071E-1,7.831117451E-2,2.391822778E0
3.817780625E0,-1.213491522E0,-2.317475804E0,8.437883019E-2,2.617322212E0
3.827751625E0,3.959016329E-1,-1.372182177E0,1.738518716E0,2.249904299E0
3.837722625E0,7.427152325E-1,9.699364248E-1,1.160602140E0,1.685051902E0
3.847693625E0,-1.176773931E0,9.802745944E-1,1.082436562E0,1.875474360E0
3.857664625E0,-1.941029136E0,-1.204476723E0,2.389262363E0,3.305591161E0
3.867635625E0,-1.090164315E0,1.914708772E-1,-4.774883080E0,4.901492401E0
3.877606625E0,-1.303541420E0,-2.897532168E-1,-4.629538840E0,4.818278430E0
3.887577625E0,-1.537971791E0,-4.610821903E-1,-6.750135092E0,6.938463647E0
3.897548625E0,-1.501607664E0,1.002686095E0,-6.016869106E0,6.281951832E0
3.907519625E0,2.014302204E-1,-3.184495094E0,2.941847631E0,4.340051914E0
3.917490625E0,7.722274455E-1,-5.761152824E0,1.382574726E1,1.499795000E1
3.927461625E0,-5.226015501E-1,2.636208406E0,1.109698503E1,1.141778367E1
3.937432625E0,-3.692468445E0,5.898095784E0,1.158446272E0,7.054350067E0
3.947403625E0,-2.311726821E0,3.651754867E0,-3.284120246E0,5.428152568E0
3.957374625E0,-2.742569844E0,3.437830682E0,-4.740915434E0,6.466579335E0
3.967345625E0,-4.282052262E0,2.583349869E0,-6.397124650E0,8.119905905E0
3.977316625E0,-4.387254197E0,9.582905254E-1,-4.681833998E0,6.487363849E0
3.987287625E0,-2.268018884E0,-1.596343668E0,-2.697486641E0,3.868934859E0
3.997258625E0,2.882619575E-1,-3.918910057E0,-9.058752072E-1,4.032562570E0
4.007229625E0,-6.098636424E-1,-4.048092885E0,3.620330468E0,5.464959503E0
4.017200625E0,-6.216940214E-1,-1.167103952E0,3.742387587E0,3.969143477E0
4.027171625E0,-1.625292063E0,4.150552475E-1,2.026875910E0,2.630982916E0
4.037142625E0,-2.344230031E0,8.511435145E-1,-3.046440285E-1,2.512502280E0
4.047113625E0,-1.527344330E0,-7.994082275E-1,3.023246720E0,3.480209038E0
4.057084625E0,-4.562040044E-1,2.409406605E-1,-5.780925769E-1,7.748325774E-1
4.067055625E0,-2.877057265E0,3.606507066E-1,-1.425812547E0,3.231171437E0
4.077026625E0,-1.315881384E0,-6.829676521E-1,-4.298674142E-1,1.543623861E0
4.086997625E0,-8.255251817E-1,-5.240172341E-1,-2.095028132E-1,9.999886579E-1
4.096968625E0,-2.169317884E0,7.753527823E-1,1.256875961E0,2.624280702E0
4.106939625E0,-9.404656539E-1,1.926172531E0,2.839168185E0,3.557455867E0
4.116910625E0,4.792809181E-1,-2.170658943E-1,-3.189661986E-1,6.152781783E-1
4.126881625E0,-2.929588797E-1,-2.373887402E0,2.749916285E-1,2.407651697E0
4.136852625E0,1.275962004E0,-6.342591763E-1,1.230811413E0,1.882886208E0
4.146823625E0,5.315581689E-1,1.177771320E0,1.300748205E-1,1.298698898E0
4.156794625E0,-2.166770837E0,7.965837300E-2,2.007717508E0,2.955024688E0
4.166765625E0,-8.717497603E-1,-2.905496076E-1,3.307761708E0,3.433024066E0
4.176736625E0,-1.415431108E0,3.120971820E-1,2.867848778E-1,1.477530182E0
4.186707625E0,-1.339073780E0,1.340190891E0,-4.583842850E-1,1.949191208E0
4.196678625E0,-6.739864019E-1,2.033587929E0,-1.611162851E0,2.680593827E0
4.206649625E0,4.901278686E-2,4.388385049E-1,3.852864879E-1,5.860265902E-1
4.216620625E0,9.561060787E-1,-1.159385920E0,9.254709810E-1,1.764882739E0
4.226591625E0,9.946490239E-1,-8.331340903E-1,6.312747574E-1,1.442895323E0
4.236562625E0,-4.580135350E-1,-3.048182756E-2,2.679083115E-1,5.314888554E-1
4.246533625E0,3.879664131E-2,-3.382915387E-1,-3.539908449E0,3.556247766E0
4.256504625E0,-6.126121992E-1,-2.579716117E0,-8.599932754E-1,2.787439216E0
4.266475625E0,2.200139435E0,-8.655645025E-1,-2.799939215E-2,2.364444841E0
4.276446625E0,6.095114938E-1,5.025836805E-1,7.226591367E-1,1.070668410E0
4.286417625E0,3.111077235E-1,-4.058678100E-1,2.267986432E0,2.324925623E0
4.296388625E0,1.446289788E0,-5.295560092E-2,2.962761952E0,3.297349971E0
4.306359625E0,4.805024380E-1,2.490642265E0,-3.322265142E-1,2.558232972E0
4.316330625E0,-7.863607505E-1,1.737663268E0,-1.128651785E0,2.216233678E0
4.326301625E0,-9.399152847E-1,-1.445382008E-1,-2.695712596E-1,9.884334565E-1
4.336272625E0,-8.214354929E-2,4.651761183E-1,-1.754249480E0,1.816735430E0
4.346243625E0,-1.030277498E0,8.753188276E-1,-1.816862050E0,2.264650631E0
4.356214625E0,-4.084092657E-1,1.189989954E0,6.520966923E-1,1.417075974E0
4.366185625E0,-3.966550101E-2,1.289085056E0,6.078402865E-1,1.425757149E0
4.376156625E0,-1.010076245E0,7.132345945E-2,-6.756299812E-1,1.217299030E0
4.386127625E0,-3.773725374E-1,-1.286665186E-1,-8.064643550E-1,8.996387391E-1
4.396098625E0,-1.414205020E-1,1.558884942E0,-1.453938239E0,2.136365704E0
4.406069625E0,-9.504171033E-1,2.062603275E0,3.280124259E-1,2.294606086E0
4.416040625E0,-9.224326216E-1,1.519342854E0,2.458730793E-1,1.794362901E0
4.426011625E0,-1.715981939E0,1.366497222E0,-8.801585680E-1,2.363596365E0
4.435982625E0,-2.826535568E0,-4.275940168E-1,-6.360039854E-1,2.928590280E0
4.445953625E0,-1.565859501E0,-2.944359010E0,2.184166011E0,3.986445424E0
4.455924625E0,-1.498485690E0,-1.474704917E0,2.186641722E0,3.033416552E0
4.465895625E0,-1.532614864E0,2.056514862E0,-4.379447579E-1,2.601914162E0
4.475866625E0,-1.268824016E0,-2.336726884E0,1.081817926E0,2.870633543E0
4.485837625E0,-4.419685559E-1,-4.455052370E0,1.893106234E0,4.860728242E0
4.495808625E0,-1.608531896E0,-2.765601441E-1,3.385590488E-1,1.666878101E0
4.505779625E0,-1.984599810E0,-1.590302032E0,2.526556156E0,3.584854665E0
4.515750625E0,-5.486435138E-1,-1.229427669E0,-4.266046679E-1,1.412265429E0
4.525721625E0,-2.160900232E0,-7.191975850E-1,-3.503782012E0,4.178902173E0
4.535692625E0,-1.950768697E0,-1.255249851E0,-1.269017705E0,2.644155183E0
4.545663625E0,-1.646955704E0,-9.444946048E-1,4.476195610E-1,1.950614370E0
4.555634625E0,-1.669970199E0,5.554088885E-1,1.325967246E0,2.203512795E0
4.565605625E0,-1.325590393E0,-5.588464665E-1,9.021844447E-2,1.441401620E0
4.575576625E0,-6.125705743E-1,-6.925149858E-2,-9.682398552E-1,1.147835744E0
4.585547625E0,-2.634301117E-1,-1.892658922E-1,3.206320703E-1,4.560942076E-1
4.595518625E0,3.233053442E-2,-1.080641174E0,3.461544650E0,3.626447569E0
4.605489625E0,6.209552258E-1,1.350700384E0,-7.504959762E-1,1.665299111E0
4.615460625E0,-1.746425613E0,4.760379061E-1,-2.288980860E0,2.918226840E0
4.625431625E0,-8.683300893E-1,-6.255781075E-1,3.532226962E-1,1.126992185E0
4.635402625E0,1.838224268E-1,-1.551525344E0,-1.978224152E-1,1.574850878E0
4.645373625E0,-1.908427986E0,-1.261252018E0,5.188713920E-1,2.345651626E0
4.655344625E0,5.987726437E-1,-1.524085823E0,2.993880833E0,3.412431497E0
4.665315625E0,2.997868561E-1,3.108572799E-1,2.224664412E0,2.266194200E0
4.675285917E0,-9.944527768E-1,2.878288981E-1,4.471504388E0,4.589785757E0
4.685256917E0,5.726783110E-1,1.797398716E0,3.634630419E0,4.095014148E0
4.695227917E0,-1.336923759E0,8.441514140E-1,4.388655190E0,4.664788433E0
4.705198917E0,-1.581478584E0,1.261471288E0,-8.070607710E-1,2.178010884E0
4.715169917E0,-2.394796899E0,1.501747120E0,-3.641671636E0,4.609996627E0
4.725140917E0,-2.739268798E0,-5.578749517E-1,-2.440257685E0,3.710751349E0
4.735111917E0,-1.119747206E0,-1.536899704E-1,-1.032834046E0,1.531078241E0
4.745082917E0,-1.387838828E0,1.754975120E0,-1.436928688E0,2.659097279E0
4.755053917E0,-1.568943176E0,2.121749908E-1,-4.851610243E-1,1.655893154E0
4.765024917E0,-4.743002963E-1,-2.205325038E0,-5.428116471E-1,2.320143051E0
4.774995917E0,-6.801267824E-1,-1.864392020E0,-1.062398154E0,2.251048618E0
4.784966917E0,-1.393480952E0,5.246501952E-2,-2.348040662E0,2.730904006E0
4.794937917E0,-1.667103017E0,-5.840915278E-1,-2.347269414E0,2.937697922E0
4.804908917E0,-1.486095147E0,-1.828090166E0,-9.693245137E-1,2.547544397E0
4.814879917E0,-1.544527543E0,-5.494654861E-1,1.866717750E0,2.484373726E0
4.824850917E0,-1.096508252E0,3.031623441E-1,4.080442021E0,4.236064782E0
4.834821917E0,-1.725490389E0,-3.632804918E-1,2.040184758E0,2.696598532E0
4.844792917E0,-1.469412018E0,1.119420201E-2,2.591450894E-1,1.492130412E0
4.854763917E0,-7.799173381E-1,5.496789095E-1,-3.394122160E0,3.525689038E0
4.864734917E0,-2.938027243E-1,-7.922693619E-1,-1.594310006E0,1.804393299E0
4.874705917E0,-7.679839750E-1,4.656053039E-1,-8.124454719E-1,1.211055461E0
4.884676917E0,-1.039380589E0,3.621516868E-1,-9.934553879E-1,1.482706802E0
4.894647917E0,-1.200065291E0,-4.108332655E-1,-7.320790011E-1,1.464540999E0
4.904618917E0,-9.205549344E-1,1.217150855E0,-1.792683814E0,2.354271192E0
4.914589917E0,-4.331705794E-1,2.285907856E0,-3.258355075E0,4.003734416E0
4.924560917E0,8.597261673E-2,3.618938246E-1,-2.154923501E0,2.186790737E0
4.934531917E0,-2.098057721E-2,-2.782168357E0,4.708068116E0,5.468711579E0
4.944502917E0,1.742443075E0,-1.260335467E0,6.712335182E0,7.048403858E0
4.954473917E0,2.173647747E0,1.023635792E0,3.629952062E0,4.353059468E0
4.964444917E0,1.333475217E0,1.484957718E0,-1.007972855E0,2.235903588E0
4.974415917E0,1.772188007E0,8.648262915E-1,-3.653548501E0,4.151745596E0
4.984386917E0,2.039185030E0,-1.266859790E0,-3.812183461E0,4.505102891E0
4.994357917E0,1.167498273E0,-1.914139546E0,-3.229329497E0,3.931354909E0
5.004328917E0,-5.115709240E-1,-2.978629248E0,-6.794026047E-1,3.097664428E0
5.014299917E0,-2.290082110E-1,-4.030226425E0,2.939691762E0,4.993691766E0
5.024270917E0,6.649439022E-1,-2.361141933E0,4.124340577E0,4.798679695E0
5.034241917E0,4.842776562E-1,-6.053666219E-1,3.937935435E0,4.013518293E0
5.044212917E0,-2.039004315E-1,-1.121411470E0,2.332730312E0,2.596299247E0
5.054183917E0,1.216601473E-1,1.104109851E0,2.864434004E-1,1.147131020E0
5.064154917E0,-7.304328637E-1,1.012353589E0,-8.452471823E-1,1.507592371E0
5.074125917E0,-1.302732165E0,1.924497011E-1,-2.383350828E0,2.722959631E0
5.084096917E0,-1.298266647E0,2.597023290E-1,-2.916911010E0,3.203328180E0
5.094067917E0,-1.817939838E0,-1.420420537E0,-3.367627841E-1,2.331503577E0
5.104038917E0,-2.984439334E0,-1.095134667E0,1.372986462E0,3.462844193E0
5.114009917E0,-1.883342407E0,4.118161824E-1,1.926555816E0,2.725470327E0
5.123980917E0,-7.636554274E-1,6.911598936E-1,-5.701351011E-1,1.177253432E0
5.133951917E0,-1.572295678E0,1.379188896E0,-7.565840971E-1,2.224116724E0
5.143922917E0,-8.177855878E-1,8.852801442E-1,-1.966153745E0,2.306134157E0
5.153893917E0,-2.041662788E-1,-2.677761644E-2,-2.293643430E0,2.302868015E0
5.163864917E0,3.758843479E-1,1.170169939E0,-2.918423685E0,3.166667576E0
5.173835917E0,1.031277518E0,1.632779422E-1,1.891813999E-1,1.061123276E0
5.183806917E0,1.747457062E0,-1.143008453E0,4.619804395E0,5.069779794E0
5.193777917E0,1.045376178E0,1.618442927E0,3.034375141E0,3.594384698E0
5.203748917E0,1.049533402E0,1.992026505E0,3.073368468E0,3.809892872E0
5.213719917E0,1.780720410E0,2.982816147E0,2.115252482E0,4.067241130E0
5.223690917E0,2.755524935E0,3.174673233E0,-5.814471245E-2,4.204146597E0
5.233661917E0,2.401606127E0,-9.826690292E-1,-7.741643357E-1,2.707892323E0
5.243632917E0,1.958361161E0,-2.867912220E0,-2.173449234E0,4.096825663E0
5.253603917E0,2.304876516E0,-4.199996531E-2,-2.906967820E0,3.710078390E0
5.263574917E0,3.404943017E0,2.074274902E0,-2.831486113E0,4.890149990E0
5.273545917E0,4.060116515E0,1.291707825E0,-2.041605046E0,4.724532398E0
5.283516917E0,4.595806545E0,-3.231223994E-1,-1.801716592E0,4.946921120E0
5.293487917E0,4.170142110E0,-8.053840819E-1,-4.630316520E-1,4.272367850E0
5.303458917E0,4.620977055E0,3.431438506E-1,-2.567110105E0,5.297285241E0
5.313429917E0,4.769240224E0,-1.449163695E0,-1.014807665E0,5.086802761E0
5.323400917E0,3.847197758E0,-4.135068756E0,1.765237568E0,5.917413952E0
5.333371917E0,1.252790658E0,-3.430335721E0,3.469458856E0,5.037244519E0
5.343342917E0,1.688264675E0,3.026082912E0,-3.716548741E-2,3.465371073E0
5.353313917E0,2.608324496E0,3.848180967E0,3.472351474E-1,4.661804981E0
5.363284917E0,1.962570279E0,-1.003689770E0,-5.736878693E-2,2.205077421E0
5.373255917E0,3.882727194E0,-3.068584276E0,1.670080565E0,5.223116792E0
5.383226917E0,2.203419577E0,-1.876067740E0,4.610603217E0,5.443560418E0
5.393197917E0,4.021254750E0,1.480206270E0,7.845005758E0,8.938994110E0
5.403168917E0,4.541425978E0,3.151888973E0,2.074302676E0,5.904378511E0
5.413139917E0,2.178106542E0,-1.562086585E0,1.065191135E1,1.098396458E1
5.423110917E0,-3.601141076E0,3.367612931E0,2.030012941E0,5.331977724E0
5.433081917E0,-2.730355010E0,3.894167272E0,-1.679400442E0,5.043784598E0
5.443052917E0,-2.753728670E-1,2.765016135E0,-4.531497990E0,5.315601422E0
5.453023917E0,3.515360668E-2,4.048241697E0,-1.162919860E1,1.231372229E1
5.462994917E0,5.287962220E0,3.616017562E-1,-1.057781894E1,1.183146456E1
5.472965917E0,9.220920213E-1,-5.279304832E0,-6.087487684E0,8.110414262E0
5.482936917E0,1.170110736E0,-5.764838909E0,2.377118281E0,6.344542387E0
5.492907917E0,-8.889396241E-1,-2.693596781E0,7.568972740E0,8.083008451E0
5.502878917E0,2.581485484E0,-5.676833636E-1,5.820340095E0,6.392393177E0
5.512849917E0,-4.038811892E0,-4.384253991E-1,-5.681853470E0,6.984817620E0
5.522820917E0,-1.192103576E0,-2.169138959E0,-1.140190095E1,1.166745988E1
5.532791917E0,3.440665412E-1,-5.858765658E0,-1.079352389E1,1.228591367E1
5.542762917E0,-6.722580381E-1,-9.776523521E0,-3.439273775E-1,9.805642716E0
5.552732917E0,1.907578970E0,-7.664997470E0,4.955714539E1,5.018268329E1
5.562704917E0,3.562012971E0,1.250553133E1,1.611569115E1,2.070728741E1
5.572675917E0,-1.504463006E0,7.397273930E0,-8.876171594E0,1.165201668E1
5.582646917E0,-5.884417977E0,-6.485114136E0,8.468711879E0,1.218204257E1
5.592617917E0,1.199073457E0,3.941695195E0,-1.831117094E1,1.876895627E1
5.602588917E0,2.931094016E0,3.434045487E0,-9.619563203E0,1.062638117E1
5.612559917E0,4.806573527E-1,-6.548524851E-1,-7.080723801E0,7.127167237E0
5.622530917E0,-4.645729780E-2,1.581440869E0,-1.705592460E0,2.326404768E0
5.632501917E0,8.948669466E-1,7.145305713E0,-2.852248406E-1,7.206769998E0
5.642472917E0,7.994297160E-1,1.935726589E0,1.659679538E0,2.672201614E0
5.652443917E0,-4.151081648E-1,-3.975905499E0,8.496121287E-1,4.086805611E0
5.662414917E0,-2.977071843E-1,7.442698610E-1,-1.005070297E0,1.285586829E0
5.672385667E0,1.292515326E-1,1.073247370E0,2.760432503E0,2.964549456E0
5.682356667E0,9.357192497E-1,-3.331611332E0,4.995076942E0,6.076676578E0
5.692327667E0,2.373344341E0,-3.448794504E0,2.183922767E0,4.721913335E0
5.702298667E0,1.289225974E0,-4.137264093E0,-3.996373093E0,5.894917785E0
5.712269667E0,-1.483117014E-2,-6.367793262E0,-2.151559013E0,6.721474331E0
5.722240667E0,-2.369756636E-1,-3.791190788E0,-2.707586537E0,4.664794734E0
5.732210667E0,6.701948480E-1,-3.988479937E0,-5.724966161E0,7.009448686E0
5.742181667E0,1.745804054E0,-5.630623090E0,4.545647083E0,7.444102067E0
5.752152667E0,1.703288657E0,-1.339497703E-1,1.418639767E1,1.428891226E1
5.762123667E0,4.114502929E-1,9.352870528E0,4.346404964E0,1.032166239E1
5.772095667E0,-5.289857595E-1,5.668221272E0,-3.696282291E0,6.787566655E0
5.782066667E0,9.330659294E-1,-2.304357868E0,-5.272624973E0,5.829343987E0
5.792036667E0,5.375950536E-1,-6.759804633E0,-7.028592365E0,9.766528439E0
5.802007667E0,3.443666495E-1,-8.436072137E0,-1.219953484E1,1.483625801E1
5.811978667E0,-7.345285459E-1,-6.803845861E0,-1.413438786E1,1.570390941E1
5.821949667E0,-2.820809390E-1,9.606871237E0,6.952085642E0,1.186183120E1
5.831921667E0,-1.337350021E0,2.352267029E1,2.377465020E1,3.347145822E1
5.841891667E0,-4.015998395E0,2.554005325E1,1.439491523E1,2.959114982E1
5.851863667E0,-1.708682421E0,-5.001698914E0,6.178881419E-1,5.321501047E0
5.861834667E0,2.945493662E0,-1.877876225E1,-1.244991262E1,2.272263561E1
5.871804667E0,1.008548221E1,-2.083784872E1,-1.297777937E1,2.653969947E1
5.881775667E0,4.527396169E0,5.142470630E0,-4.669666527E0,8.291447746E0
5.891746667E0,-3.799910448E0,7.377850649E0,8.459735819E0,1.185070166E1
5.901717667E0,-3.404683693E0,-1.653862143E0,6.921163226E0,7.888576009E0
5.911688667E0,2.125918972E0,2.403812574E0,1.025603380E0,3.368932867E0
5.921659667E0,3.739564551E0,1.606700548E0,-1.545570540E0,4.353690156E0
5.931630667E0,4.705346822E0,-5.207492253E-1,5.578290510E-1,4.766827217E0
5.941601667E0,3.940022306E0,-1.610015627E0,1.426843411E0,4.489076544E0
5.951572667E0,1.065331409E0,-2.029440499E0,1.958085757E0,3.014574527E0
5.961543667E0,-2.083634833E-1,6.432747057E-1,1.382490526E0,1.538992444E0
5.971514667E0,5.246015172E-1,-4.891032171E-1,3.047229660E0,3.130501127E0
5.981485667E0,4.178566486E-3,-3.701119985E0,6.300918657E-1,3.754373765E0
5.991456667E0,-1.884360261E-1,-4.344595543E0,-1.283381975E0,4.534102762E0
6.001427667E0,2.134141620E-1,-5.642849618E-1,-2.865092985E0,2.927920924E0
6.011398667E0,6.126814887E-1,3.383391058E0,-2.657721482E0,4.345825253E0
6.021369667E0,-8.988854456E-1,2.484296866E0,-1.870060603E0,3.236796661E0
6.031340667E0,-1.260797397E0,5.158782023E0,-2.174244456E0,5.738465038E0
6.041311667E0,8.243353464E-1,2.523479936E0,-2.362831779E0,3.553934969E0
6.051282667E0,2.490656590E0,-2.468902025E0,5.399786711E-2,3.507386952E0
6.061253667E0,4.284408983E0,3.197196123E-1,4.112950786E0,5.947667200E0
6.071224667E0,4.370908890E0,5.469561535E0,-2.406870083E0,7.403645826E0
6.081195667E0,5.308820992E0,8.656863585E0,-6.055643163E0,1.182352238E1
6.091166667E0,5.873315284E0,5.121406036E0,-7.302566578E0,1.067951829E1
6.101137667E0,5.017182341E0,-3.285568017E0,-4.367335072E0,7.418941398E0
6.111108667E0,1.388121979E0,-6.931629158E0,3.002063427E0,7.680283213E0
6.121079667E0,1.547974769E0,-2.482704085E0,6.779538401E0,7.383914029E0
6.131050667E0,1.747443321E0,2.531088625E0,5.819575279E0,6.582357041E0
6.141021667E0,2.312665738E0,1.096119339E0,3.170376114E0,4.074455194E0
6.150992667E0,2.626319010E0,-2.312274705E0,1.296190885E0,3.731524711E0
6.160963667E0,1.646278597E0,-1.658719425E0,1.855161313E0,2.983824198E0
6.170934667E0,1.415663973E0,1.235020239E0,3.073232812E0,3.601963269E0
6.180905667E0,9.282953323E-1,6.035706496E-1,3.215811903E0,3.401099227E0
6.190876667E0,9.887574425E-1,-2.296840395E0,2.226864719E0,3.348438973E0
6.200847667E0,5.970924463E-1,-2.912312467E0,1.139729919E0,3.183876189E0
6.210818667E0,1.222545570E0,-1.326790827E0,1.703575171E0,2.481362515E0
6.220789667E0,1.710287920E0,-6.903304660E-1,2.262110565E0,2.918695793E0
6.230760667E0,1.945246148E0,-1.590755191E0,1.146186415E0,2.761924683E0
6.240731667E0,7.317091647E-1,-1.963986767E0,-6.618054092E-1,2.197869132E0
6.250702667E0,7.157453158E-1,-9.710450569E-1,1.307285392E-1,1.213387741E0
6.260673667E0,1.307243000E0,7.620471507E-1,3.979574043E-1,1.564599059E0
6.270644667E0,1.534314065E0,1.070792709E0,-4.661780387E-1,1.928221626E0
6.280615667E0,8.644718041E-1,4.925849417E-1,9.309580082E-1,1.362583663E0
6.290586667E0,5.328061840E-1,-1.466235225E0,2.479068578E0,2.929079921E0
6.300557667E0,1.742760433E0,-3.982038644E-1,3.525298011E0,3.952658132E0
6.310528667E0,-6.395053712E-1,1.211389886E0,-2.925139797E-1,1.400713034E0
6.320499667E0,-6.679288327E-1,-4.746772590E-1,-4.582641832E0,4.655325293E0
6.330470667E0,7.242485560E-2,-1.333574766E0,-7.442099270E0,7.560985952E0
6.340441667E0,-2.358043494E0,-1.808212849E0,-7.175188494E0,7.766165897E0
6.350412667E0,-2.732747106E0,-3.937423219E0,6.399239588E-1,4.835360485E0
6.360383667E0,1.314491355E-1,-3.984252107E0,2.531085643E1,2.562286082E1
6.370354667E0,-5.157745604E-1,8.464623506E0,1.484582443E1,1.709720380E1
6.380325667E0,-3.405075749E0,1.270950560E1,-6.167889823E0,1.453165298E1
6.390296667E0,-9.552922194E-1,2.384045477E0,-1.334683808E1,1.359170124E1
6.400267667E0,-4.602866181E0,-5.542679797E0,-8.789269690E0,1.136481140E1
6.410238667E0,-3.641575742E0,-3.774842557E0,-1.032375040E1,1.157973802E1
6.420209667E0,-1.313608864E0,-9.709740132E-2,-1.091082255E1,1.099004298E1
6.430180667E0,-4.281117146E-1,-6.157094693E-1,-3.193665574E0,3.280530078E0
6.440151667E0,-2.087597198E0,-1.507979667E0,4.897983926E0,5.533742972E0
6.450122667E0,-1.175080943E0,-2.758894393E0,3.391420162E0,4.527034814E0
6.460093667E0,-1.163390678E0,-3.418093405E0,1.933247370E-1,3.615828377E0
6.470064667E0,-7.494857966E-1,-1.703892090E0,-7.035311401E-1,1.989958110E0
6.480035667E0,5.985943767E-1,-2.956840476E-1,8.845977741E-1,1.108267795E0
6.490006667E0,4.004432018E-1,-1.983242233E0,3.059111202E0,3.667664905E0
6.499977667E0,1.190057782E0,-2.538964532E0,2.714787968E0,3.902903039E0
6.509948667E0,1.554269004E0,6.602895185E-1,1.452347796E0,2.227341129E0
6.519919667E0,2.111417878E0,1.102040229E0,2.082702202E0,3.163894211E0
6.529890667E0,3.071618981E0,1.171370080E0,3.579328623E0,4.859891400E0
6.539861667E0,2.790121155E0,2.303754143E0,2.019465734E0,4.143706199E0
6.549832667E0,3.728926419E0,-2.316022771E0,2.675343820E0,5.140653487E0
6.559803667E0,2.782674726E0,3.383155122E-1,1.538035233E0,3.197387746E0
6.569774667E0,2.782143799E0,3.630185658E0,5.254834235E-2,4.573984407E0
6.579745667E0,2.280132853E0,2.180499807E-1,-2.445656419E-2,2.290665787E0
6.589716667E0,1.991500255E0,-9.921909276E-1,-4.431569660E-1,2.268678955E0
6.599687667E0,1.948060413E0,6.218523202E0,-3.191119696E0,7.255908979E0
6.609658667E0,2.400239341E0,7.431602933E0,-2.751622503E0,8.280174965E0
6.619629667E0,1.481451142E0,1.210590572E0,1.592423694E0,2.489184654E0
6.629600667E0,-1.510368694E-1,-3.897525913E0,4.983077871E0,6.328079127E0
6.639571667E0,-1.398538355E0,-6.290709418E0,2.084748142E0,6.773116663E0
6.649542667E0,-3.198881291E0,-5.102474506E0,-1.495498493E0,6.205207759E0
6.659513667E0,-2.031196418E0,-1.936805693E0,-3.921908802E-1,2.833864652E0
6.669484667E0,-1.897599235E0,-4.475239590E-1,-9.112727720E-1,2.152110270E0
6.679456125E0,-1.488881199E0,-2.898289967E0,1.391171887E0,3.542909987E0
6.689427125E0,-2.078115938E0,-8.102776167E-1,1.531093419E0,2.705432077E0
6.699398125E0,-1.961620253E0,2.305719392E0,9.392031670E-2,3.028715397E0
6.709369125E0,-1.991104984E0,2.946927399E0,-6.103446490E-1,3.608517804E0
6.719340125E0,-2.080698361E0,1.230172605E0,-1.443569371E0,2.815408112E0
6.729311125E0,-2.183074775E0,5.041603822E-1,-3.375527430E0,4.051441545E0
6.739282125E0,-1.342282878E0,5.394720098E-1,-4.030805007E0,4.282539245E0
6.749253125E0,-4.839073082E-1,8.426463407E-1,-3.380389389E0,3.517279000E0
6.759224125E0,5.692918960E-1,4.854592323E-1,-1.899941044E0,2.041945127E0
6.769195125E0,1.395737685E0,7.550190899E-1,-1.815341190E0,2.411141047E0
6.779166125E0,1.841685381E0,2.637692137E0,-1.978881379E0,3.776929489E0
6.789137125E0,2.298173268E0,3.519023072E0,-1.453175177E0,4.447116127E0
6.799108125E0,2.958790230E0,1.972623397E0,-1.047088974E0,3.707030889E0
6.809079125E0,2.324571692E0,-1.319550512E0,6.944603544E-1,2.761724514E0
6.819050125E0,1.285617365E0,-2.367285310E0,1.955270907E0,3.328653793E0
6.829021125E0,3.387789041E-1,-1.561358314E0,3.125871202E0,3.510510177E0
6.838992125E0,-3.193780984E-1,-6.054268482E-1,2.857175270E0,2.938025623E0
6.848963125E0,1.207227692E0,-1.744114794E0,2.349928143E0,3.165674871E0
6.858934125E0,9.724967743E-1,-2.665685974E0,1.735996812E0,3.326457067E0
6.868905125E0,1.286227084E0,-3.008498580E0,2.091233289E0,3.883130243E0
6.878876125E0,1.376608227E0,-1.714791884E0,2.223989058E0,3.127569144E0
6.888847125E0,8.124980968E-1,-2.015756845E0,2.898315110E0,3.622659147E0
6.898818125E0,7.073572657E-1,-2.631425968E0,1.794861317E0,3.262864397E0
6.908789125E0,2.892296352E-1,-1.435981732E0,8.770443410E-1,1.707309021E0
6.918760125E0,-4.438573528E-1,-8.151237890E-1,1.420868726E0,1.697145862E0
6.928731125E0,-9.587411995E-1,-8.073385137E-1,1.438972875E0,1.908303723E0
6.938702125E0,-1.390822223E0,-4.913722292E-1,8.790557832E-1,1.717140703E0
6.948673125E0,-1.225793479E0,-4.542736924E-1,-6.971611834E-1,1.481542424E0
6.958644125E0,-1.084245544E0,5.404981962E-1,-1.877760801E0,2.234661569E0
6.968615125E0,-7.207794761E-1,4.330711037E-2,-2.532211583E0,2.633152874E0
6.978586125E0,-6.504069201E-1,-4.257749480E-1,-2.862007409E0,2.965703943E0
6.988557125E0,-1.157428564E-1,-8.126062703E-1,-2.076454452E0,2.232798345E0
6.998528125E0,-6.078187980E-2,-6.397976589E-1,-1.492484838E0,1.624975838E0
7.008499125E0,-1.049385175E-2,5.190968022E-1,-1.449810689E0,1.539974885E0
7.018470125E0,3.258273214E-2,6.321772751E-1,-1.493783505E0,1.622374464E0
7.028441125E0,5.400908645E-2,4.690285563E-2,-1.274992974E0,1.276998020E0
7.038412125E0,-1.391856961E-1,3.783753714E-1,-1.274922808E0,1.337149485E0
7.048383125E0,1.433807445E-1,8.486566937E-1,-1.523799017E0,1.750068475E0
7.058354125E0,4.270429898E-2,1.241624376E0,-2.003564816E0,2.357483132E0
7.068325125E0,2.186913106E-1,1.464738923E0,-1.829557525E0,2.353840848E0
7.078296125E0,3.944951217E-1,1.375899252E0,-2.076880129E0,2.522331505E0
7.088267125E0,1.076039342E-1,1.290660881E0,-2.007826851E0,2.389299642E0
7.098238125E0,3.982155954E-1,7.809038365E-1,-2.115215060E0,2.289655260E0
7.108209125E0,1.231825320E0,-3.466004321E-1,-2.477840078E0,2.788766203E0
7.118180125E0,1.073730496E0,-1.487283740E0,4.638666344E-1,1.892110556E0
7.128151125E0,7.183039843E-1,-1.111342565E0,4.895795898E0,5.071475168E0
7.138122125E0,3.359848121E-1,1.078245862E0,5.876150014E0,5.983697763E0
7.148093125E0,5.565673315E-1,1.882792330E0,5.525419986E0,5.863867340E0
7.158064125E0,1.075186672E0,2.317274952E0,1.463190873E0,2.943928857E0
7.168035125E0,9.053336819E-1,1.170255893E0,-5.357061106E-1,1.573565686E0
7.178006125E0,1.146837137E0,1.657836496E0,-3.867853047E0,4.361644697E0
7.187977125E0,9.168781321E-1,1.303651348E0,-9.210455743E0,9.347334772E0
7.197948125E0,9.390732126E-1,-1.967808799E0,-9.807916637E0,1.004735581E1
7.207919125E0,9.672266789E-1,-5.312515848E0,-3.175666675E0,6.264440191E0
7.217890125E0,4.444149213E-1,-7.358551329E0,1.159126537E1,1.373692888E1
7.227861125E0,-2.075037964E-2,-2.583711227E0,1.731416454E1,1.750589295E1
7.237832125E0,8.789878093E-2,5.578272969E0,6.949901122E0,8.912125510E0
7.247803125E0,2.001882572E0,3.717355657E0,3.085966294E0,5.229670628E0
7.257774125E0,1.683684916E-1,-2.641380561E0,3.698853312E0,4.548269456E0
7.267745125E0,-2.626519935E-1,-1.181793035E0,-1.790626763E0,2.161472889E0
7.277716125E0,2.387033331E-1,2.162496230E0,-6.688397266E0,7.033351065E0
7.287687125E0,-1.083190122E0,2.509310670E0,-6.963328083E0,7.480499908E0
7.297658125E0,-5.725926858E-1,-5.566408968E-1,-5.658986764E0,5.715054039E0
7.307629125E0,-6.436990674E-1,-3.223369430E0,-3.059029925E0,4.490225279E0
7.317600125E0,-7.782429148E-1,-1.249042154E0,5.151747823E-2,1.472556413E0
7.327571125E0,-4.609149965E-2,1.837514708E0,1.618926199E0,2.449389060E0
7.337542125E0,5.800813245E-1,1.190606543E0,1.412858625E0,1.936545320E0
7.347513125E0,6.571679825E-1,-1.229448135E0,3.928346586E-1,1.448354771E0
7.357484125E0,5.661393332E-1,-9.588711539E-1,-4.182367176E-1,1.189482907E0
7.367455125E0,5.968365941E-1,1.850248775E0,7.115786630E-1,2.070260525E0
7.377426125E0,-1.635143159E-1,4.004152814E0,1.301792518E0,4.213625570E0
7.387397125E0,5.264028616E-1,3.007600740E0,8.591898680E-2,3.054528484E0
7.397368125E0,6.261642909E-1,2.500258888E0,-8.741423678E-1,2.721672483E0
7.407339125E0,9.673258988E-2,2.761853376E-1,-1.918021220E-1,3.498908239E-1
7.417310125E0,4.427517905E-1,-2.614784500E0,-3.579753131E-1,2.676055578E0
7.427281125E0,-2.589126991E-1,-5.105792216E0,-1.010090716E0,5.211183474E0
7.437252125E0,5.872439810E-1,-5.051293827E0,-1.556432912E0,5.318167752E0
7.447223125E0,2.040825539E-1,-1.477679981E0,-6.399403310E-1,1.623179424E0
7.457194125E0,-5.234142400E-1,3.115938537E0,1.783268042E0,3.628095966E0
7.467165125E0,-7.031794301E-1,1.655250857E0,4.820998900E0,5.145517185E0
7.477136125E0,-1.777602675E0,1.842075829E0,3.847932168E0,4.621655180E0
7.487107125E0,-1.216780873E0,3.015233111E0,1.790757741E0,3.712007501E0
7.497078125E0,-2.519086045E0,-1.182378341E0,-2.038859779E-1,2.790229836E0
7.507049125E0,-1.716627472E0,-4.259830504E0,-2.336015278E-1,4.598644961E0
7.517020125E0,-7.920082106E-1,-2.732276990E0,-1.668567306E-1,2.849641332E0
7.526991125E0,-3.150138097E-2,-4.173637283E-1,1.937773114E-1,4.612314659E-1
7.536962125E0,5.895924055E-1,-7.664930812E-1,2.298809445E0,2.493923758E0
7.546933125E0,6.917389506E-2,-1.339423736E0,1.493338532E0,2.007212232E0
7.556904125E0,4.997392293E-1,1.560221323E-1,1.348418800E0,1.446483828E0
7.566875125E0,7.147658341E-1,4.024714547E-1,1.719666123E0,1.905288704E0
7.576846125E0,5.523813464E-1,6.968495268E-1,2.022070084E0,2.208957183E0
7.586817125E0,3.527078854E-1,7.416801292E-1,3.029383957E-2,8.218333062E-1
7.596788125E0,-1.944502894E-1,1.006763943E0,-2.865570118E0,3.043497438E0
7.606759125E0,-5.398303345E-1,1.065895081E0,-4.000024095E0,4.174654701E0
7.616730125E0,-3.807225534E-1,1.140157351E0,-2.407409781E0,2.690823350E0
7.626701125E0,-4.287402903E-1,3.521947557E-1,3.027898765E-1,6.320926291E-1
7.636672125E0,5.851195414E-2,-3.278796941E-2,2.193160198E0,2.194185579E0
7.646643125E0,1.865325747E-1,8.409778377E-1,1.007146059E0,1.325285369E0
7.656614125E0,6.138885733E-2,1.461207497E0,-3.809291428E-1,1.511291816E0
7.666585125E0,2.174591196E-1,4.916581580E-1,2.074925405E-1,5.762546029E-1
7.676555375E0,-3.018882358E-1,5.676570511E-1,-7.844513422E-1,1.014265716E0
7.686526375E0,-1.015698635E-1,2.060781867E0,-1.459587234E0,2.527356966E0
7.696497375E0,-5.183553021E-1,3.068812610E0,-2.487961024E0,3.984501614E0
7.706468375E0,1.066886622E-1,2.275982792E0,-2.083605596E0,3.087538246E0
7.716439375E0,6.866630924E-1,8.307680145E-1,-1.196813362E0,1.610603589E0
7.726410375E0,1.563826424E0,3.302533713E-1,-1.704747537E0,2.336832159E0
7.736381375E0,3.479157048E0,1.070317915E0,-8.632453798E0,9.368530983E0
7.746352375E0,4.554810839E0,-5.457770625E-1,-1.400334474E1,1.473559765E1
7.756323375E0,7.411824726E0,-5.593030171E0,-1.120697232E1,1.455380916E1
7.766294375E0,6.678180426E0,-9.837738022E0,-9.363170983E0,1.513433692E1
7.776264375E0,-9.034526473E0,-1.376741426E1,1.466454788E1,2.205024555E1
7.786236375E0,3.451117310E0,-7.750150471E0,6.629163802E1,6.683229993E1
7.796206375E0,4.024351435E0,1.445089413E1,1.300667981E1,1.985440670E1
7.806177375E0,5.259478678E0,1.261129928E1,-1.097193998E1,1.752399647E1
7.816148375E0,7.093045639E0,-8.971353740E0,-3.542516892E0,1.197271524E1
7.826119375E0,-1.187967548E0,-7.991470324E0,-1.174456299E1,1.425516134E1
7.836090375E0,3.011343835E0,9.603651760E0,-3.918806854E0,1.080071136E1
7.846061375E0,8.077746575E0,6.057665130E0,-1.170963991E0,1.016447014E1
7.856032375E0,-1.769061939E0,-7.667197777E0,-8.921523768E-1,7.919055358E0
7.866003375E0,-1.599712248E0,-4.651694233E0,-3.918588168E0,6.289091488E0
7.875974375E0,-2.762559720E0,7.215464115E0,-4.649017670E0,9.017096201E0
7.885945375E0,2.496173438E-1,4.674343130E0,8.013316691E-2,4.681689208E0
7.895916375E0,-3.633503661E-2,-6.121006848E0,-5.939069563E-1,6.149859392E0
7.905887375E0,-3.788476802E0,-6.570012199E0,-1.999976964E0,7.843310821E0
7.915858375E0,-9.497970061E-1,2.911269909E0,-1.861320770E-1,3.067939371E0
7.925829375E0,-5.073802976E-1,3.773734510E0,4.141210964E0,5.625667531E0
7.935800375E0,-2.097917388E0,-4.267799382E0,3.764722781E0,6.065352962E0
7.945771375E0,-2.195325422E0,-5.380172811E0,-4.210427964E-1,5.826061295E0
7.955742375E0,-1.825222545E0,4.342501947E-1,-1.390614647E0,2.335341446E0
7.965713375E0,-1.176508467E0,1.890318866E0,3.060286492E-1,2.247472163E0
7.975684375E0,-5.666940512E-1,-2.654648478E0,-7.035872734E-1,2.804164000E0
7.985655375E0,-1.597465748E0,-6.847601745E0,-3.421577761E0,7.819766036E0
7.995626375E0,-1.473906188E0,-5.491819546E0,-4.276789184E0,7.115012797E0
8.005597375E0,-1.060030981E0,-5.128047888E0,-4.449662114E0,6.871683473E0
8.015568375E0,-1.316504990E0,-7.326344866E0,-3.238703168E0,8.117740615E0
8.025539375E0,-2.389911623E-1,6.258460854E0,-3.058580275E0,6.969961430E0
8.035510375E0,8.380140303E-1,1.998823191E1,4.166310722E0,2.043501474E1
8.045481375E0,-7.743206757E-1,2.626174935E1,1.108529411E1,2.851600948E1
8.055452375E0,-2.287433394E0,-3.927489677E0,1.219553769E1,1.301494011E1
8.065423375E0,9.565483840E-2,-1.509673898E1,1.097171545E-2,1.509704601E1
8.075394375E0,1.938577984E0,-1.938013786E1,-1.406682211E1,2.402547216E1
8.085365375E0,8.630379937E-1,4.688384634E0,-9.110858949E0,1.028268135E1
8.095336375E0,2.377115722E-1,1.078280828E1,3.491873572E0,1.133660630E1
8.105307375E0,2.660556943E-1,-7.265492308E0,1.130078505E1,1.343748142E1
8.115278375E0,1.901832473E0,-1.764198810E0,4.572968198E0,5.257509138E0
8.125249375E0,2.269254109E0,3.569438642E0,-9.323946691E-1,4.331254581E0
8.135220375E0,1.494619218E0,5.467710891E-1,1.943357790E0,2.511868773E0
8.145191375E0,5.666306089E-1,-2.170420377E0,3.600952796E0,4.242482280E0
8.155162375E0,-2.504999226E0,-1.562060857E0,1.690648146E0,3.401962139E0
8.165133375E0,-3.045211201E0,3.619221836E-1,-5.192988235E-1,3.110300659E0
8.175104375E0,-2.011918586E0,2.850172645E-1,-7.139450312E-4,2.032006828E0
8.185075375E0,-4.095425657E-1,9.570029685E-1,-1.312497600E0,1.675180511E0
8.195046375E0,5.370710700E-1,5.442936239E-1,-2.767751462E0,2.871436756E0
8.205017375E0,4.604081890E-1,-2.804072320E0,-3.227166027E0,4.299929981E0
8.214988375E0,2.193084660E-1,-1.458914512E0,-3.652200717E0,3.938920897E0
8.224959375E0,-1.373211287E-1,2.792565876E-1,-2.409681424E0,2.429692553E0
8.234930375E0,4.855947050E-1,-3.634351507E-1,-8.976622081E-1,1.083367327E0
8.244901375E0,6.383533236E-1,-1.527595322E0,-1.386720986E0,2.159638286E0
8.254872375E0,7.609948712E-1,5.929100060E-1,-2.185036662E0,2.388522699E0
8.264843375E0,3.158625330E-1,2.141207687E0,-2.385569261E0,3.221099222E0
8.274814375E0,-4.608675609E-1,2.027886894E0,-1.095105724E0,2.350315023E0
8.284785375E0,-1.284119601E0,1.288595060E0,9.032807976E-1,2.031097382E0
8.294756375E0,-1.929997341E0,7.266381669E-1,1.170402659E0,2.371230724E0
8.304727375E0,-1.789755967E0,1.262600970E-1,1.262480518E0,2.193860773E0
8.314698375E0,-2.937532970E0,1.044195771E0,6.117123127E-1,3.177048428E0
8.324669375E0,-3.543533138E0,-3.365578392E-1,4.369630104E-1,3.586200629E0
8.334640375E0,-4.545076395E0,-1.071576820E0,-2.761253452E0,5.424990041E0
8.344611375E0,-5.311017206E0,-8.980963638E-1,-1.682152727E0,5.642970728E0
8.354582375E0,-6.040401810E0,1.297894764E-1,9.364491284E-2,6.042521718E0
8.364553375E0,-5.975792416E0,-1.670553020E0,5.040464784E0,7.994193370E0
8.374524375E0,-4.046786909E0,-2.934053000E0,7.383716576E0,8.916525207E0
8.384495375E0,-5.071887721E0,8.903789163E-2,1.634478039E0,5.329492589E0
8.394466375E0,-4.763233672E0,1.882777128E-1,1.680883881E0,5.054623045E0
8.404437375E0,-2.495651867E0,-1.916514100E0,9.909562880E-1,3.298984526E0
8.414408375E0,-1.528398729E0,-2.923145311E0,-2.080293149E-1,3.305156181E0
8.424379375E0,-2.349907532E-1,-2.250231070E0,1.651662421E0,2.801204968E0
8.434350375E0,2.422749951E-2,-7.652786145E-1,2.942154025E0,3.040149443E0
8.444321375E0,-1.229117475E0,-1.240253497E0,2.664200197E0,3.185423236E0
8.454292375E0,-4.610992934E-1,-2.673835824E0,1.815240033E0,3.264522468E0
8.464263375E0,6.690133450E-1,-1.320793045E0,2.330873237E0,2.761348071E0
8.474234375E0,6.784409570E-1,3.031866100E-1,1.484742540E0,1.660320651E0
8.484205375E0,1.692689702E0,-2.592389372E-1,1.679483473E0,2.398555396E0
8.494176375E0,1.114574686E0,6.013235646E-1,-1.405810391E0,1.892133615E0
8.504148375E0,3.079794265E-2,1.542893100E0,-3.299141743E0,3.642225127E0
8.514119375E0,1.447821028E0,6.692801973E-1,-2.166667634E0,2.690459133E0
8.524090375E0,1.476488903E0,4.156157032E-1,-1.653350512E0,2.255287966E0
8.534061375E0,1.882099289E0,6.643781841E-1,-1.781869388E0,2.675584912E0
8.544032375E0,2.603659295E0,4.266450137E-1,-1.101367507E0,2.859034466E0
8.554003375E0,1.145836605E0,1.862531728E0,-2.183221686E-1,2.197642039E0
8.563974375E0,1.585018780E0,1.704207839E0,-7.608198202E-1,2.448561964E0
8.573945375E0,7.621063538E-1,7.330323896E-1,-1.614999209E0,1.930379503E0
8.583916375E0,1.836815381E0,-1.646390863E0,-6.252082711E-1,2.544676601E0
8.593887375E0,1.564518881E0,-1.586079465E0,-1.148430576E0,2.506443733E0
8.603858375E0,8.659679604E-1,-4.032584900E-1,-1.201640823E0,1.535076085E0
8.613829375E0,1.019187376E0,1.698926634E0,-4.479891050E-1,2.031203794E0
8.623800375E0,5.297732332E-1,2.004739229E0,-1.282473317E0,2.438109281E0
8.633771375E0,-2.234458096E-1,-1.345758902E0,-1.663784283E-1,1.374291393E0
8.643742375E0,-5.084233678E-1,-1.504488880E0,9.325221384E-1,1.841623916E0
8.653713375E0,-1.341795659E0,-1.187915654E0,2.918949934E0,3.425175603E0
8.663684375E0,-7.247208649E-1,-6.680139828E-1,3.183410727E0,3.332501594E0
8.673655875E0,-1.133151144E0,3.968826860E-1,3.464040241E0,3.666213602E0
8.683626875E0,-6.046857867E-1,1.719850018E0,2.423127097E0,3.032338028E0
8.693597875E0,-5.420547981E-1,1.788768518E0,-2.387100647E0,3.031792492E0
8.703568875E0,-1.968943598E0,1.361796645E0,-4.277245266E0,4.901638100E0
8.713539875E0,-1.357634012E0,-3.894128680E-2,-2.915495399E0,3.216333309E0
8.723510875E0,-1.439096543E0,-8.906888187E-1,-3.809066895E0,4.168131002E0
8.733481875E0,-1.053398923E0,-4.396673769E0,2.046964020E0,4.962907537E0
8.743452875E0,-1.575136109E-1,-4.563358299E0,4.504325979E0,6.413891333E0
8.753423875E0,-4.860889957E-2,-2.245558852E-1,8.875628972E-1,9.168184483E-1
8.763394875E0,9.754314188E-2,4.754835901E-1,2.095015268E0,2.150508843E0
8.773365875E0,1.098854520E0,-1.586496956E0,4.967537141E-1,1.992791535E0
8.783336875E0,7.615571541E-1,-1.695994548E0,1.228513457E0,2.228365347E0
8.793307875E0,2.700185351E-1,4.381964806E-1,1.073779174E0,1.190767769E0
8.803278875E0,6.314705112E-2,1.495619823E0,-1.666210293E0,2.239893512E0
8.813249875E0,6.015311043E-1,-5.016454947E-1,-2.291080595E0,2.421267884E0
8.823220875E0,-3.940386369E-1,-9.282609800E-1,-2.081376638E0,2.312804272E0
8.833191875E0,-1.178136917E0,-2.322914007E0,-1.445445158E0,2.978799722E0
8.843162875E0,-1.850211243E-1,-1.261142090E-1,-1.040259426E0,1.064085186E0
8.853133875E0,4.387210855E-1,1.413736292E0,4.812808120E-1,1.556521029E0
8.863104875E0,1.030377850E0,-1.223506486E0,2.216431532E0,2.733352405E0
8.873075875E0,4.886156324E-1,1.179889181E-1,3.189966626E0,3.229327127E0
8.883046875E0,1.805876302E0,2.841780721E0,1.305969769E-1,3.369564134E0
8.893017875E0,1.680472529E0,2.031739917E0,4.977530032E-1,2.683228105E0
8.902988875E0,1.604790409E0,2.163017509E0,-1.205429819E0,2.950772450E0
8.912959875E0,7.525469602E-1,1.136037695E0,-3.439967839E0,3.700038825E0
8.922930875E0,1.154832254E0,-1.193805555E-1,-1.269770241E0,1.720524838E0
8.932901875E0,1.284603604E0,-2.969879767E-1,-2.834690387E0,3.126320180E0
8.942872875E0,3.196636983E-1,-3.578293958E0,1.761539204E0,4.001173940E0
8.952843875E0,-3.748419721E-1,-3.957818307E0,5.144187373E0,6.501345706E0
8.962814875E0,-1.381733896E0,7.744344771E-3,1.953695083E0,2.392942333E0
8.972785875E0,-1.763288399E0,6.143324500E-1,-1.552163860E0,2.428127465E0
8.982756875E0,-1.010806123E0,-7.265954822E-1,-3.577296715E0,3.787706668E0
8.992727875E0,-5.634331687E-1,-7.643918842E-1,-5.207050204E0,5.292931486E0
9.002698875E0,-1.171522912E0,-4.100894412E0,2.375432528E0,4.881852170E0
9.012669875E0,8.247868611E-2,-3.935582516E0,9.842523383E0,1.060051315E1
9.022640875E0,-7.782803370E-1,6.443751517E-1,7.591299748E0,7.658248592E0
9.032611875E0,-2.163570948E0,3.715579565E0,2.606261891E0,5.027839675E0
9.042582875E0,-1.211220025E0,2.019584140E0,-4.517129043E0,5.094136711E0
9.052553875E0,-2.235379946E-1,-2.660602113E0,-4.396413276E0,5.143658477E0
9.062524875E0,-1.141272488E0,-1.172885971E0,-6.703713462E0,6.900575235E0
9.072495875E0,-2.769912301E0,5.562935722E-1,-5.272669997E0,5.981883114E0
9.082466875E0,-1.746840473E0,-1.850209598E0,5.884209816E0,6.410823064E0
9.092437875E0,-9.879754505E-1,-2.291281155E-1,7.692657723E0,7.759225350E0
9.102408875E0,-1.739223452E0,2.757299857E0,3.082391306E0,4.486506088E0
9.112379875E0,-2.406564274E0,3.117592129E0,-6.196750510E0,7.342387157E0
9.122350875E0,-1.278243880E0,1.789200042E0,-1.233360682E1,1.252808850E1
9.132321875E0,-1.685049510E-1,-1.526567089E0,-1.100513813E1,1.111178952E1
9.142292875E0,-6.948641961E-2,-5.926165343E0,-3.341918219E0,6.803872531E0
9.152263875E0,-4.678134757E0,-6.649479368E0,1.717404186E1,1.900126929E1
9.162234875E0,-9.495203597E-1,4.478592968E-1,1.927073879E1,1.929931451E1
9.172205875E0,-7.432865786E-1,7.476714202E0,2.586041635E0,7.946152625E0
9.182176875E0,-2.867964991E-1,3.929713958E0,-3.954110003E0,5.582104436E0
9.192147875E0,9.235361958E0,-2.692592814E0,-3.753062264E0,1.032605650E1
9.202118875E0,7.726885570E0,2.514835704E0,-2.622221866E0,8.538454587E0
9.212089875E0,2.196411104E0,3.844847470E0,-1.677749773E0,4.735178783E0
9.222060875E0,2.510303527E0,-8.752881297E-1,-1.319527708E0,2.967980202E0
9.232032875E0,1.607060006E0,-1.968406093E0,-2.569340817E0,3.613692937E0
9.242003875E0,1.314826692E0,1.282276851E0,-2.930288270E0,3.458264377E0
9.251974875E0,3.488040284E-1,4.132320857E0,-4.067143698E0,5.808562454E0
9.261945875E0,1.325913525E-1,5.917487490E-1,-3.802853644E0,3.850901568E0
9.271916875E0,-6.584549546E-1,-2.258755141E0,-2.337161332E0,3.316302279E0
9.281887875E0,-1.595671969E0,-5.359397069E-1,7.388068074E-1,1.838269811E0
9.291858875E0,-1.311288104E0,-2.359925128E0,7.418169540E-1,2.799824190E0
9.301829875E0,-3.964029951E-1,-3.002230657E0,-6.746827322E-1,3.102534616E0
9.311800875E0,-1.123421596E0,-3.535429774E0,5.878545619E0,6.951160936E0
9.321771875E0,-1.412687594E0,-2.211475724E0,5.264998450E0,5.882730641E0
9.331742875E0,-1.385963973E-1,6.080668661E-1,1.647783962E0,1.761858752E0
9.341713875E0,-1.414864659E0,3.417525348E0,-3.108681557E0,4.831689408E0
9.351684875E0,-1.266524013E0,1.637377088E0,-3.050301787E0,3.686384108E0
9.361655875E0,1.805480445E0,-6.109202489E0,3.827207297E-1,6.381895474E0
9.371626875E0,1.232527278E0,-1.006246874E1,1.161577924E1,1.541748124E1
9.381597875E0,1.609410660E-1,2.192549749E0,1.398101071E1,1.415280315E1
9.391568875E0,7.761121602E0,1.296031841E1,4.098102366E0,1.565245364E1
9.401539875E0,2.854116007E0,3.242515260E0,-3.059355615E0,5.293348673E0
9.411510875E0,-4.751526377E0,-3.011088020E-1,-9.064963569E0,1.023920084E1
9.421481875E0,-2.968946552E0,3.585767284E0,-1.028866009E1,1.129286930E1
9.431452875E0,-1.116331350E1,1.337930650E0,-1.028533653E1,1.523803709E1
9.441423875E0,-9.067824612E0,-6.814265599E0,-2.846412885E-1,1.134639500E1
9.451394875E0,-2.979739050E0,-7.107602867E0,1.268740313E1,1.484476546E1
9.461365875E0,-3.935682795E0,1.207384251E0,1.090415438E1,1.165538324E1
9.471336875E0,-2.009616391E0,6.659901445E0,2.540012353E0,7.405707802E0
9.481307875E0,-8.602154696E-1,-3.347902259E-1,4.567961812E-1,1.029911598E0
9.491278875E0,8.580296342E-1,-3.530864268E0,7.422630966E-1,3.708661731E0
9.501249875E0,9.060003376E-1,-1.273743424E0,-2.788722501E0,3.196909776E0
9.511220875E0,3.711162724E-1,4.795330793E-2,-4.450668420E0,4.466371704E0
9.521191875E0,1.223821286E0,-4.820327640E-2,-6.960996798E0,7.067923211E0
9.531162875E0,1.248926964E0,-3.043124622E0,-6.523547884E0,7.305963525E0
9.541133875E0,7.068549167E-1,-3.980265476E0,-3.148420989E0,5.123935192E0
9.551104875E0,-2.320771313E-3,-9.586472055E-1,-5.122798258E-1,1.086940877E0
9.561075875E0,1.374131054E0,2.062108600E0,1.113239109E0,2.716584132E0
9.571046875E0,1.226556394E0,-2.836452153E-1,4.743736131E0,4.907945362E0
9.581017875E0,-1.613968930E-1,1.596429037E0,6.222834939E0,6.426376063E0
9.590988875E0,-5.550874743E-1,-1.117864841E0,3.485590739E0,3.702308295E0
9.600959875E0,-1.664739426E0,-1.848117464E0,-3.024281677E0,3.915759847E0
9.610930875E0,-1.249182634E0,8.950242952E0,-6.162516232E0,1.093818598E1
9.620901875E0,-2.555829071E0,1.559099243E1,-2.455044708E0,1.598870075E1
9.630872875E0,-3.631036136E0,6.619629917E-1,5.146091811E0,6.332841333E0
9.640843875E0,-5.392797826E-1,-1.195924936E1,9.012998194E0,1.498494593E1
9.650814875E0,3.184628995E0,-1.528397501E1,2.420108179E0,1.579869228E1
9.660785875E0,4.926030096E0,-2.453955664E0,-6.727216930E0,8.691554437E0
9.670756875E0,6.810729788E0,5.181527107E0,-7.213294798E-1,8.588048651E0
9.680727250E0,3.905371122E0,-2.620806840E-1,7.183109717E0,8.180322432E0
9.690698250E0,4.733928085E-1,-9.607887483E-1,7.240973178E0,7.319761495E0
9.700669250E0,-2.600442157E0,4.429061789E0,-1.571892366E0,5.371194779E0
9.710640250E0,-1.039188070E0,5.068216839E0,-5.277889221E0,7.390727190E0
9.720611250E0,2.575620727E0,-3.338247044E0,-5.596816828E0,7.007287212E0
9.730582250E0,2.693991176E0,-6.988077593E0,-1.427664945E0,7.624240558E0
9.740553250E0,2.388597534E0,-2.704497161E0,3.629407101E0,5.117841242E0
9.750524250E0,2.312440474E0,7.831690478E-1,3.730242335E0,4.458188262E0
9.760495250E0,2.682176292E0,9.575628394E-1,-1.967841836E0,3.461704457E0
9.770466250E0,2.299741199E0,-1.506265556E0,-6.074134398E0,6.667289868E0
9.780437250E0,1.624486901E0,-3.359752811E0,-7.100353489E0,8.021341304E0
9.790408250E0,2.027408592E0,-2.545408164E0,-3.599047188E0,4.852074709E0
9.800379250E0,1.062092929E0,-1.677266209E0,-3.252455235E-1,2.011727609E0
9.810350250E0,3.964064303E-1,1.449913600E0,3.034871569E0,3.386714182E0
9.820321250E0,2.853526754E-1,5.509313246E0,4.540935981E0,7.145212256E0
9.830292250E0,8.616315190E-1,7.884408975E0,3.599631325E0,8.709974709E0
9.840263250E0,3.036361147E0,5.643201621E0,3.276707731E0,7.197362510E0
9.850234250E0,1.048163838E0,1.412728232E-1,5.083265233E-1,1.173456985E0
9.860205250E0,-2.137693803E-1,-2.305761784E0,-1.925500978E0,3.011609000E0
9.870176250E0,3.515403061E-1,-6.371827841E-2,-2.911008246E0,2.932850084E0
9.880147250E0,1.578336875E0,2.942322717E0,-6.069612161E0,6.927380605E0
9.890118250E0,4.231132662E0,2.395300490E0,-2.479220606E0,5.457699410E0
9.900089250E0,2.768187080E0,1.699007910E-1,-4.622212279E-1,2.811649774E0
9.910060250E0,3.123384381E0,-1.081203676E0,2.369747280E0,4.066968595E0
9.920031250E0,2.211735925E0,-6.006941119E-1,7.966117966E0,8.289248740E0
9.930002250E0,1.263608153E0,-1.205891749E-1,8.361901960E0,8.457697778E0
9.939973250E0,-4.019404545E-1,-7.233707428E-2,5.487028338E0,5.502205809E0
9.949944250E0,-3.587062881E-1,4.804306269E-2,4.133782661E-1,5.494178081E-1
9.959915250E0,1.397003607E-1,-2.465560633E0,-1.217824162E0,2.753470740E0
9.969886250E0,-7.791224822E-2,-3.190860665E-1,-4.500391388E0,4.512361785E0
9.979857250E0,8.961045829E-1,-1.772434321E-1,-1.761108264E0,1.983915567E0
9.989828250E0,6.962909715E-1,-4.143301636E0,1.220906230E0,4.375200748E0
9.999799250E0,-3.372096576E-2,-1.853658286E0,2.679094809E-1,1.873222260E0
1.000977025E1,-4.651984108E-1,-5.807744023E-1,1.613251476E0,1.776594718E0
1.001974125E1,-7.615959650E-1,-2.374453120E0,3.000227986E0,3.901208018E0
1.002971225E1,-1.187430774E0,-3.239095224E0,5.339303112E-1,3.490961370E0
1.003968325E1,-1.760818242E0,-2.442749183E0,-1.990782217E0,3.609808623E0
1.004965425E1,-1.400454926E0,-4.401471117E-1,-4.632592256E0,4.859620818E0
1.005962525E1,-6.879779850E-1,-8.404907647E-1,-3.597230458E-1,1.144176168E0
1.006959625E1,-1.756696394E0,-1.628941310E0,3.844444889E0,4.529811090E0
1.007956725E1,1.800519229E-1,1.931218386E-1,2.477615545E0,2.491644744E0
1.008953825E1,-1.085490709E0,5.244144355E0,-1.154978873E0,5.478441046E0
1.009950925E1,1.402080306E0,7.855179913E0,-1.844579022E0,8.189758996E0
1.010948025E1,3.182851149E0,3.645022091E0,1.111299003E0,4.965049139E0
1.011945125E1,-2.613135293E0,-5.749064291E0,-3.644008183E-1,6.325583312E0
1.012942325E1,1.796274589E0,-8.616596149E0,-1.415045484E0,8.914857560E0
1.013939425E1,3.471940707E0,-1.632175113E0,-1.800363547E0,4.237885884E0
1.014936425E1,2.964496528E0,2.879947544E0,1.024847919E0,4.258245035E0
1.015933525E1,9.628951346E-1,3.576911384E0,-1.856958747E-2,3.704295738E0
1.016930725E1,8.262106946E-1,3.704297362E0,-2.130390338E0,4.352356379E0
1.017927825E1,1.919849937E-1,1.895753561E0,-3.132787873E0,3.666756013E0
1.018924925E1,2.517742355E-1,-3.868408825E0,-9.116212660E-1,3.982339819E0
1.019921925E1,-1.693466212E-1,-5.460216515E0,3.412907510E0,6.441318214E0
1.020919125E1,-1.089753475E0,-9.518311062E-1,3.225754509E0,3.535397749E0
1.021916225E1,-1.122678342E0,1.535399601E0,2.920397705E0,3.485194593E0
1.022913325E1,-5.494394660E-1,5.143023777E-1,2.759843688E0,2.860616690E0
1.023910425E1,-3.063804871E-2,-2.356845692E0,2.082651916E0,3.145329761E0
1.024907525E1,-7.183408948E-1,-1.090386144E0,2.798214287E-1,1.335385942E0
1.025904625E1,-2.397941385E0,2.313194472E0,-1.171604846E0,3.531805412E0
1.026901725E1,-3.256894148E0,1.853921703E0,-2.960883241E0,4.776108745E0
1.027898825E1,-2.728917764E0,-9.646210134E-1,-4.854620390E0,5.651975318E0
1.028895925E1,-2.995668035E0,-1.945510735E0,-4.241898848E0,5.545515741E0
1.029893025E1,-3.106209647E0,-1.031780963E0,-1.880073960E0,3.774624275E0
1.030890125E1,-3.307434849E0,-1.053158676E0,1.781436110E0,3.901510360E0
1.031887225E1,-3.236729148E0,-2.233100482E0,2.782322724E0,4.817102145E0
1.032884325E1,-2.549848247E0,-1.645954953E0,-5.391980678E-1,3.082471143E0
1.033881425E1,-3.087080481E0,9.512908235E-1,-3.114176186E0,4.486993809E0
1.034878525E1,-3.425711158E0,1.174091082E0,-3.974299854E0,5.376713321E0
1.035875625E1,-2.786666328E0,-7.636340851E-1,-1.109824920E0,3.095215274E0
1.036872725E1,-1.473066528E0,-5.246212515E-1,1.361814771E0,2.073569850E0
1.037869825E1,-1.451333304E0,1.354846060E0,1.693399261E0,2.609516672E0
1.038866925E1,-2.003269823E0,1.603293668E0,1.802238749E0,3.135554987E0
1.039864025E1,-1.426210888E0,-1.533841025E0,2.476708642E0,3.243583125E0
1.040861125E1,-5.725797854E-1,-2.289175280E0,2.291023293E0,3.288914532E0
1.041858225E1,-1.758591330E0,-2.715684931E0,3.604580408E0,4.843613117E0
1.042855325E1,-2.121627701E0,-1.366625568E0,3.309329347E0,4.161806131E0
1.043852425E1,-2.151003820E0,1.594327840E0,2.490218634E0,3.656485682E0
1.044849525E1,-2.155546960E0,1.135816963E0,2.118869569E0,3.228942725E0
1.045846625E1,-2.065124010E0,1.139201039E0,1.098978335E0,2.601974166E0
1.046843725E1,-2.806203630E0,2.627483191E0,-7.030002129E-1,3.908024569E0
1.047840825E1,-2.201649771E0,1.949713421E0,-2.249053733E0,3.702281301E0
1.048837925E1,-1.554766894E0,-6.009543130E-1,-1.653142936E0,2.347621722E0
1.049835025E1,-1.214958003E0,-8.495951718E-1,-1.315194921E0,1.981835661E0
1.050832125E1,-6.068058775E-1,-5.834968659E-1,-6.225974894E-1,1.047048041E0
1.051829225E1,8.411044300E-2,-2.306042743E0,1.667714782E0,2.847135454E0
1.052826325E1,6.516398786E-1,-2.297207600E0,2.226315081E0,3.264701537E0
1.053823425E1,4.429897356E-1,-9.905230093E-1,4.085870576E-1,1.159447766E0
1.054820525E1,6.336067732E-1,1.902713209E-1,-2.129168270E0,2.229578041E0
1.055817625E1,-6.256045662E-2,-9.682144198E-1,-1.743227479E0,1.995042610E0
1.056814725E1,3.939079151E-2,-4.973299572E-1,-4.353590607E0,4.382081685E0
1.057811825E1,1.723839720E0,-9.465095553E-1,-4.930168170E0,5.307924444E0
1.058808925E1,1.459252773E0,-2.101824351E0,-1.752982389E0,3.101617564E0
1.059806025E1,1.426391713E0,-3.819314433E0,3.234688470E0,5.204321815E0
1.060803125E1,2.003682345E0,-2.073769703E0,7.227216434E0,7.781254468E0
1.061800225E1,-2.866370437E-2,1.449883195E0,1.269318252E0,1.927213457E0
1.062797325E1,1.048315646E0,3.207740992E0,-4.612673716E0,5.715358849E0
1.063794425E1,2.251912729E0,4.466205642E-1,-4.617567835E0,5.156792955E0
1.064791525E1,1.598511084E0,-3.295218554E0,8.629221457E-1,3.762756653E0
1.065788625E1,9.177560185E-1,-3.023370096E0,5.955296756E0,6.741557854E0
1.066785725E1,3.500897580E-1,1.423257606E0,2.619653769E0,3.001801279E0
1.067782838E1,9.392591541E-1,3.738675774E0,-1.182162579E0,4.032048197E0
1.068779938E1,1.855649848E0,5.252965465E0,-4.682958418E0,7.277855596E0
1.069777038E1,3.005061294E0,2.753656457E0,-4.081739518E0,5.768328593E0
1.070774138E1,3.339853859E0,-1.918082616E0,-5.289666098E-1,3.887604712E0
1.071771238E1,1.988549166E0,-3.168522547E0,1.808915100E0,4.155242081E0
1.072768338E1,1.200146421E0,-2.140253714E0,-1.072531378E-1,2.456123089E0
1.073765438E1,1.588013724E0,-2.314035302E0,6.062972063E-1,2.871261616E0
1.074762538E1,1.801098395E0,-1.904244303E0,2.785594826E0,3.824871283E0
1.075759638E1,3.250171897E0,-3.228040186E-1,6.030213622E0,6.857936725E0
1.076756738E1,4.501636845E0,8.855061391E-1,9.724931198E-1,4.689839899E0
1.077753838E1,2.718236071E0,-1.042591588E0,1.902714379E0,3.477948614E0
1.078750938E1,2.650036486E0,1.371284629E0,3.627805549E-1,3.005781869E0
1.079748038E1,2.266874146E-1,1.549023321E0,-1.464722843E0,2.143892124E0
1.080745138E1,-4.751310761E-1,1.509291490E0,-1.417084993E0,2.124109276E0
1.081742238E1,1.242365511E0,5.168177914E0,-4.056371373E0,6.686380465E0
1.082739338E1,2.265687599E0,5.029738652E0,-4.106593108E0,6.877188245E0
1.083736438E1,3.880584190E0,-3.188097855E-1,-4.848132319E0,6.218115496E0
1.084733538E1,2.602511779E0,-4.675080464E0,5.497324115E-1,5.378814984E0
1.085730638E1,1.552859679E0,-4.124988741E0,4.528082632E0,6.319053538E0
1.086727738E1,2.445264363E0,-6.337086609E-1,5.304332085E0,5.875103687E0
1.087724838E1,7.158625524E-1,3.117212937E0,9.869550383E-1,3.347171334E0
1.088721937E1,-1.801556379E-1,5.301193884E-1,-1.796827151E0,1.882038902E0
1.089719038E1,-1.436104962E0,2.869848526E-1,-2.683846257E0,3.057415329E0
1.090716138E1,5.668843415E-1,1.977597623E0,-3.005392832E-1,2.079080103E0
1.091713238E1,1.534460099E0,6.843768311E-1,2.581556820E0,3.080158285E0
1.092710338E1,1.605714123E0,-2.492969164E-1,3.034514889E0,3.442200954E0
1.093707438E1,1.574586178E0,-1.898772186E0,2.530024139E0,3.533508114E0
1.094704538E1,4.617696036E-1,-7.140143207E-1,1.026267039E0,1.332768416E0
1.095701638E1,1.156263580E0,1.794973583E0,1.089942632E0,2.397258970E0
1.096698738E1,1.036069092E0,1.217185646E-1,1.053979917E0,1.482945797E0
1.097695838E1,1.736854599E0,-2.507517037E-1,6.380487567E-1,1.867256418E0
1.098692938E1,1.334436646E0,7.059331763E-1,-4.681783712E-1,1.580586536E0
1.099690038E1,8.902421645E-1,6.104966766E-1,-1.432092456E0,1.793356101E0
1.100687138E1,1.238912584E0,-1.631226987E-1,-7.484120286E-1,1.456582977E0
1.101684238E1,1.479585296E-1,-8.381515861E-1,6.877962828E-2,8.538854987E-1
1.102681338E1,-1.988325217E-1,-1.232113588E-1,-6.638343930E-2,2.431505123E-1
1.103678438E1,4.152955681E-2,1.235598528E-1,5.936356455E-1,6.077787599E-1
1.104675538E1,2.098666562E-1,-1.255213013E0,8.205058587E-1,1.514210549E0
1.105672638E1,6.779131727E-1,-1.983786316E0,7.299851131E-1,2.219876727E0
1.106669738E1,4.638893654E-1,-1.902504464E0,6.687016153E-1,2.069270023E0
1.107666838E1,7.578492884E-1,-9.760938352E-1,1.941819388E-1,1.250920199E0
1.108663938E1,1.255981484E0,-2.521362074E0,9.727989292E-1,2.980116433E0
1.109661038E1,3.981609605E-1,-1.090093198E0,-8.795457798E-1,1.456171731E0
1.110658138E1,-9.621549502E-2,2.568000636E-1,-1.888860571E0,1.908663918E0
1.111655238E1,-4.164218880E-1,1.497229562E0,-2.171123212E0,2.669996170E0
1.112652338E1,1.079749181E0,3.165668813E0,-1.168442672E0,3.542961418E0
1.113649438E1,8.360408143E-1,3.724018559E-1,1.701738560E-1,9.309170354E-1
1.114646538E1,1.139218215E0,-1.518270182E0,2.398598027E-1,1.913242069E0
1.115643638E1,1.503654628E0,-1.158540120E0,-1.034737315E0,2.161914374E0
1.116640738E1,1.991861613E0,4.803008187E-1,-8.800965875E-1,2.229971203E0
1.117637838E1,1.905627169E0,-4.140889952E-1,5.613058054E-1,2.029272976E0
1.118634937E1,1.104051891E0,-6.999807107E-1,4.984178317E-1,1.399043926E0
1.119632038E1,1.074314414E0,-8.900082028E-1,2.215814651E0,2.618415671E0
1.120629138E1,1.159558559E0,-2.097682768E-1,2.897883001E0,3.128306997E0
1.121626338E1,9.464346378E-1,6.478390422E-1,1.869703923E0,2.193450867E0
1.122623438E1,8.113395441E-1,-6.982326856E-1,1.404011788E0,1.765516876E0
1.123620538E1,5.136682472E-1,-6.335200882E-1,2.882292570E0,2.995465444E0
1.124617638E1,-3.230742330E-1,7.105390280E-1,2.270246381E0,2.400679342E0
1.125614738E1,1.549376200E-1,3.574230435E-1,1.861780361E0,1.902099632E0
1.126611838E1,-6.369233139E-2,-3.401392588E-1,2.079623058E0,2.108218084E0
1.127608938E1,2.055986273E-1,-2.529476255E-2,6.723432612E-1,7.035311518E-1
1.128606038E1,2.190323860E-1,6.766418418E-1,7.174931216E-1,1.010255288E0
1.129603138E1,3.015078013E-1,5.916242033E-1,-7.125153869E-1,9.739632071E-1
1.130600238E1,5.605118997E-1,8.691690186E-1,-1.033229318E0,1.461913539E0
1.131597338E1,1.706807000E-1,6.653666559E-1,-2.510052974E0,2.602347137E0
1.132594438E1,1.688344416E-1,-3.332182020E-1,-3.397790118E0,3.418262297E0
1.133591538E1,2.085506307E-1,-8.358083144E-1,-2.780834023E0,2.911203663E0
1.134588638E1,-1.789757063E-1,-9.060804445E-1,-2.486285797E0,2.652287906E0
1.135585738E1,-1.049654878E-1,-1.449771220E0,-1.443776363E0,2.048742182E0
1.136582838E1,5.766920956E-1,-8.882245097E-1,1.203526551E-1,1.065833624E0
1.137579938E1,6.186057414E-1,-3.968405861E-1,2.927187492E0,3.018042764E0
1.138577038E1,-6.853736351E-1,-3.282018757E-1,6.155043490E0,6.201775057E0
1.139574138E1,-1.012323841E0,5.354003012E-2,7.737660819E0,7.803785046E0
1.140571238E1,-5.287499340E-1,1.249314635E0,5.861436081E0,6.016377355E0
1.141568338E1,1.344459504E0,2.622576208E0,1.831221642E0,3.469704602E0
1.142565438E1,3.178983508E0,2.693939136E0,-1.007151321E0,4.286910075E0
1.143562538E1,2.443318410E0,1.751372358E0,-5.250316091E0,6.050035458E0
1.144559638E1,2.532704503E0,1.504403218E0,-8.018913646E0,8.542879913E0
1.145556738E1,-7.418372548E-2,-6.818379700E-2,-6.546926807E0,6.547702106E0
1.146553838E1,-1.419750300E0,-8.379621363E-1,-2.827053924E0,3.272629729E0
1.147550938E1,-2.113656777E0,-1.054581596E0,-5.759039640E-1,2.431327351E0
1.148548038E1,-1.396171549E0,-1.911414743E0,1.209533395E0,2.658152055E0
1.149545138E1,-1.545233740E0,-1.904687229E0,4.462321921E0,5.091944391E0
1.150542238E1,-2.130893857E-1,4.448330703E-1,2.088514334E0,2.145967304E0
1.151539338E1,-8.518322434E-1,-3.511861110E-1,1.751522339E0,1.979085738E0
1.152536438E1,-1.173000284E0,-1.158197473E0,-8.099972427E-1,1.836694473E0
1.153533538E1,-1.175523065E0,-1.401171210E0,8.622783673E-1,2.022043328E0
1.154530638E1,-1.403123157E0,-6.751268283E-1,2.446387321E-1,1.576197620E0
1.155527738E1,-2.150625505E0,-8.060392624E-1,-9.825134933E-2,2.298813321E0
1.156524838E1,-1.625668623E0,-1.570346070E0,8.132623279E-1,2.402120077E0
1.157521938E1,-1.723304700E0,-2.729592533E0,1.012561165E0,3.383154533E0
1.158519038E1,-1.937515837E0,-2.762049842E0,1.683830293E0,3.770699061E0
1.159516138E1,-3.511914027E0,-8.818106988E-1,-2.972630882E-1,3.633111006E0
1.160513238E1,-5.658497937E0,-1.253195724E0,-1.958714917E0,6.117651719E0
1.161510338E1,-4.928259639E0,-1.153736340E0,-2.267780026E0,5.546321020E0
1.162507438E1,-5.152940070E0,-3.740800945E0,7.025675189E-1,6.406245718E0
1.163504538E1,-3.450044931E0,-2.506536751E0,1.619707387E0,4.561687026E0
1.164501638E1,-2.914431206E0,3.834136248E-2,-2.837525117E-1,2.928462874E0
1.165498738E1,-3.488826296E0,-6.411106512E-1,2.372876126E-1,3.555170488E0
1.166495838E1,-1.380638420E0,-1.544808940E0,-8.172208929E-1,2.227206119E0
1.167492938E1,-1.193091390E0,-1.567790544E0,2.380459964E-1,1.984464702E0
1.168489992E1,-1.484781132E0,-8.329844016E-1,4.906065363E-1,1.771759802E0
1.169487092E1,-1.462102998E0,5.559985802E-1,2.859469718E-1,1.590171459E0
1.170484192E1,-1.862422093E0,8.404904723E-2,-3.514340329E-1,1.897152122E0
1.171481292E1,-1.591149732E0,7.334235683E-1,-1.537482086E0,2.330990941E0
1.172478392E1,-3.034383034E0,5.814576495E-1,-7.622553116E-1,3.182232952E0
1.173475492E1,-2.595167677E0,1.252247890E0,8.115666354E-1,2.993603256E0
1.174472592E1,-1.826409676E0,1.306418543E0,2.304521005E0,3.217657343E0
1.175469692E1,-1.458656503E0,3.398735029E-1,1.636295938E0,2.218255438E0
1.176466792E1,-3.263774275E0,6.276091379E-1,4.408636880E-1,3.352681992E0
1.177463892E1,-3.627535408E0,2.640731812E0,-1.493796369E0,4.729049083E0
1.178460992E1,-3.306809489E0,-6.714039060E-1,-1.438813831E0,3.668236285E0
1.179458092E1,-3.318737225E0,-1.976151314E0,-1.976954722E0,4.339071416E0
1.180455192E1,-3.230500109E0,3.753912449E-2,-2.967727407E0,4.386906211E0
1.181452292E1,-2.661229227E0,-4.883334312E-1,-1.944286328E0,3.331795291E0
1.182449392E1,-1.860722161E0,-3.966996682E-1,3.029091597E-1,1.926502413E0
1.183446492E1,-1.222644314E0,-7.859537843E-1,2.817535241E0,3.170344982E0
1.184443592E1,-2.651738611E-1,-1.006960702E0,4.104467061E0,4.234493699E0
1.185440692E1,-8.548705298E-1,3.495652628E-1,4.709418238E0,4.799126966E0
1.186437792E1,-9.108399318E-1,-9.375726709E-1,2.657410995E0,2.961503856E0
1.187434892E1,1.741125405E-2,1.745071691E0,-9.186800247E-1,1.972194551E0
1.188431992E1,4.548948859E-1,1.765584308E-1,-2.438418735E0,2.486762587E0
1.189429092E1,2.575913380E-1,1.454918817E-1,-3.727281890E0,3.739004075E0
1.190426192E1,1.181206413E0,2.191536719E0,-4.416284453E0,5.069679492E0
1.191423292E1,1.473263286E0,-1.568923734E0,-2.094521763E0,3.003172957E0
1.192420392E1,9.229446915E-1,-1.914768122E0,7.440710557E-1,2.252066961E0
1.193417492E1,1.078714955E0,9.544205457E-2,1.982481510E0,2.258975006E0
1.194414592E1,1.136133297E0,-3.864725956E-1,2.768553700E0,3.017457461E0
1.195411692E1,7.973895494E-2,-7.641395769E-1,3.288199264E0,3.376762057E0
1.196408792E1,2.052175350E-1,9.355319926E-1,8.836955488E-1,1.303170046E0
1.197405892E1,-4.988419375E-1,5.115261197E-1,-1.474726260E-1,7.295549501E-1
1.198402992E1,-3.233047960E-1,-2.241012642E-1,3.068034053E0,3.093150549E0
1.199400092E1,-2.506874209E-1,9.594047123E-1,6.487867005E0,6.563209570E0
1.200397192E1,-3.271026722E-1,2.588351285E0,4.083405975E0,4.845695294E0
1.201394292E1,2.008218030E0,2.094284659E0,-1.043885869E0,3.083612426E0
1.202391392E1,1.087258468E0,1.136036818E0,-2.964735972E0,3.355945472E0
1.203388492E1,1.891651154E0,1.183796875E0,-5.412500312E0,5.854475105E0
1.204385592E1,2.882420039E0,-1.425217300E0,-3.094286882E0,4.462533018E0
1.205382692E1,4.131651643E0,-1.888703573E0,-6.324102867E-1,4.586686087E0
1.206379792E1,3.854308849E0,-1.823609152E-1,1.887435020E0,4.295504995E0
1.207376892E1,3.744932295E0,9.110710430E-1,1.489895107E0,4.132112749E0
1.208373992E1,2.689294985E0,1.055834654E0,-4.309171064E0,5.188068002E0
1.209371092E1,1.563579672E0,-1.353741521E-1,-3.970953493E0,4.269845336E0
1.210368192E1,1.451392946E0,-1.161429814E0,-1.858203034E0,2.628379579E0
1.211365292E1,-7.796929512E-1,-4.569354911E0,5.447852578E0,7.153042927E0
1.212362392E1,-3.548249064E-1,-6.406036976E-1,5.199368716E0,5.250686513E0
1.213359492E1,-7.807205994E-2,2.742088033E0,1.026691546E0,2.929033554E0
1.214356592E1,-1.484326803E0,2.011790971E0,-7.320287150E-1,2.605071018E0
1.215353692E1,-6.174891425E-1,1.037893350E0,-1.175340632E0,1.685212464E0
1.216350792E1,-1.537299799E0,8.784178519E-1,-2.090204179E0,2.739317818E0
1.217347892E1,-1.698827085E0,-1.080100014E0,-7.886736166E-1,2.162090558E0
1.218344992E1,1.744714133E-1,-1.374443588E0,1.151803250E0,1.801717563E0
1.219342092E1,9.379872385E-1,-2.791192073E0,1.395248566E0,3.258418605E0
1.220339192E1,1.367707011E0,-2.584004465E0,8.875044250E-1,3.055383060E0
1.221336292E1,1.978064670E0,6.108790845E-1,-6.990843326E-1,2.185093132E0
1.222333392E1,1.768292300E0,2.434303465E0,3.067952192E-1,3.024370070E0
1.223330492E1,7.004964352E-1,2.749167842E-1,1.735833090E0,1.891927855E0
1.224327592E1,5.059333310E-1,-1.373083525E0,1.185839893E0,1.883492276E0
1.225324692E1,-3.712833201E-1,-1.367178715E0,9.309825665E-1,1.695216057E0
1.226321792E1,-3.883458243E-1,-1.807821670E-1,7.820715255E-1,8.917009264E-1
1.227318892E1,1.648110822E-1,-1.098436590E0,1.023121821E0,1.510133735E0
1.228315992E1,-3.070950352E-2,-1.523774166E0,1.610907912E-1,1.532573335E0
1.229313092E1,-4.382530524E-1,-2.149035940E-1,-2.704886878E-1,5.580442839E-1
1.230310192E1,-5.726214834E-1,3.746208742E-1,-8.148264581E-1,1.064038683E0
1.231307292E1,-2.246609158E-1,-6.884739751E-1,-3.675647467E-1,8.121408649E-1
1.232304392E1,-5.654239263E-2,-1.942393877E0,-5.819020379E-1,2.028472577E0
1.233301492E1,-5.969546713E-2,9.033509642E-2,-1.630847502E0,1.634437993E0
1.234298592E1,4.506529137E-1,1.360486284E0,-1.558077149E0,2.116982612E0
1.235295692E1,6.318409140E-1,9.742466998E-1,-2.577008271E-1,1.189449154E0
1.236292792E1,1.219261700E0,1.211428185E0,-5.563040972E-2,1.719666271E0
1.237289892E1,1.030902126E0,-6.804375619E-1,1.309934181E-1,1.242140791E0
1.238286992E1,1.460335677E0,-9.714146009E-1,8.098498929E-1,1.931860105E0
1.239284092E1,1.388712694E0,-4.437332091E-1,5.052877253E-1,1.542963964E0
1.240281192E1,1.344194625E0,8.779263934E-1,-9.458274776E-1,1.863384974E0
1.241278292E1,1.675916671E0,1.969575536E0,-2.331707634E0,3.482066193E0
1.242275392E1,1.781985455E0,6.963747329E-1,-1.097626458E0,2.205718426E0
1.243272492E1,1.676734258E0,-6.762758061E-1,2.408088058E0,3.011258015E0
1.244269592E1,1.533578193E0,-8.255011350E-2,5.181210773E0,5.404037534E0
1.245266692E1,9.467745072E-1,1.385286957E0,3.508298401E0,3.888902106E0
1.246263792E1,1.261832208E0,9.634954244E-1,1.699406691E0,2.325624014E0
1.247260892E1,8.468993130E-1,1.359305439E0,-5.069834179E-1,1.679875563E0
1.248257992E1,5.109144644E-1,7.047239721E-1,6.125543118E-2,8.725948055E-1
1.249255092E1,1.216530393E-1,8.456518096E-1,-6.523241490E-1,1.074920109E0
1.250252192E1,-2.301870828E-1,8.307919881E-1,3.010789812E-2,8.626168941E-1
1.251249292E1,2.674235042E-2,-1.496419430E-2,-3.466480869E-1,3.479999663E-1
1.252246392E1,-2.475469544E-1,4.797219443E-1,-7.304628307E-1,9.082888227E-1
1.253243492E1,-6.449451090E-1,-2.151865992E-1,-9.800939155E-1,1.192830059E0
1.254240592E1,1.955170043E-2,-8.594439295E-1,-1.101728280E0,1.397437419E0
1.255237592E1,-4.995324571E-1,-8.534666133E-1,-9.855692482E-1,1.396167855E0
1.256234692E1,1.583185897E-1,-6.522066200E-1,-1.006564261E0,1.209797447E0
1.257231792E1,-3.002903928E-1,-9.782891724E-1,-6.887388539E-1,1.233525530E0
1.258228892E1,8.392762614E-2,-1.383723996E0,-8.607311940E-1,1.631745731E0
1.259225992E1,1.685787539E-1,-7.497121570E-1,2.345920461E-1,8.034429305E-1
1.260223092E1,-8.685214760E-2,-2.677492672E-1,-4.439276290E-1,5.256469399E-1
1.261220192E1,-6.764296610E-2,3.891897967E-1,-1.909824008E0,1.950249218E0
1.262217292E1,-8.680416023E-1,-4.778286159E-1,-2.397592306E0,2.594275482E0
1.263214392E1,-6.197373421E-2,-2.074441255E0,-1.288435138E0,2.442787828E0
1.264211492E1,5.410147246E-2,-1.778249377E0,1.609954816E-1,1.786341894E0
1.265208592E1,-2.699496293E-1,-1.175322506E0,1.529998235E0,1.948114574E0
1.266205692E1,-3.034791536E-1,-3.881027994E-1,1.602624747E0,1.676642317E0
1.267202792E1,-1.080622536E0,-1.341582236E-1,1.906333805E0,2.195416150E0
1.268199950E1,-7.287846798E-1,3.981255117E-1,1.765536945E0,1.951089885E0
1.269197050E1,-1.186671367E0,3.525116748E-1,2.170304017E0,2.498534158E0
1.270194150E1,-1.653843578E0,-7.440748563E-1,1.880376261E0,2.612405186E0
1.271191250E1,-1.443564986E0,-6.058574957E-1,1.815040058E-1,1.576035176E0
1.272188350E1,-2.183494458E0,-8.346607983E-3,-1.036190348E0,2.416900526E0
1.273185450E1,-2.104051409E0,-1.587595063E-1,-5.158553982E-1,2.172174879E0
1.274182550E1,-2.593566417E0,-1.386366060E-1,1.169641936E-1,2.599901438E0
1.275179650E1,-2.716554996E0,-9.081661463E-1,1.373268882E0,3.176523921E0
1.276176750E1,-1.926019334E0,-6.457814071E-1,1.768196844E0,2.693158773E0
1.277173850E1,-2.630815519E0,2.765370476E-1,1.975355508E0,3.301468222E0
1.278170950E1,-1.896183624E0,5.772257271E-1,3.272569656E-1,2.008929814E0
1.279168050E1,-1.941775826E0,-1.021862331E-1,-2.821983218E-1,1.964833651E0
1.280165150E1,-1.832542821E0,-1.023834889E0,1.783652204E-1,2.106719066E0
1.281162250E1,-1.773126193E0,-8.350075382E-1,7.634288478E-1,2.103339652E0
1.282159250E1,-2.722287022E0,9.101103455E-2,3.882475179E-1,2.751338906E0
1.283156350E1,-2.292224603E0,9.635945347E-1,4.317016858E-1,2.523722331E0
1.284153450E1,-1.935488169E0,-6.675058597E-1,-9.194588739E-1,2.244344703E0
1.285150550E1,-1.601183116E0,-5.458039597E-1,-1.131641466E0,2.035264538E0
1.286147650E1,-2.040921799E0,-4.313944146E-1,-1.658799532E0,2.665160186E0
1.287144750E1,-2.398070316E0,-1.193188673E-1,-1.838075749E0,3.023822199E0
1.288141850E1,-2.303859393E0,6.931716281E-1,-3.651341177E0,4.372704815E0
1.289138950E1,-3.042532591E0,1.075536847E-1,-3.393216426E0,4.558781644E0
1.290136050E1,-2.177747376E0,-8.340196511E-1,-6.697289711E-1,2.426254172E0
1.291133150E1,-1.931482095E0,-5.810249555E-1,2.539073290E0,3.242700457E0
1.292130250E1,-1.541745584E0,1.566334295E0,2.079276318E0,3.025520216E0
1.293127350E1,-1.196587367E0,2.257676329E0,7.118248308E-1,2.652474001E0
1.294124450E1,-3.856390020E-1,1.087211983E0,-4.698231930E-1,1.245584669E0
1.295121550E1,2.839621892E-1,4.659371334E-1,-9.789572167E-1,1.120753840E0
1.296118650E1,8.872288750E-1,-8.838651180E-2,2.460642833E-1,9.249512872E-1
1.297115750E1,1.204657621E0,7.171843886E-1,-1.410757720E-2,1.402052943E0
1.298112850E1,1.931127754E0,1.549522088E0,-4.358287675E0,5.012478884E0
1.299109950E1,2.669351886E0,-9.131678545E-1,-3.267260385E0,4.316747091E0
1.300107050E1,2.669055140E0,-2.228868560E0,-1.118663571E0,3.652823371E0
1.301104150E1,2.067953770E0,-4.165575434E0,7.938410350E0,9.200370122E0
1.302101250E1,2.462416293E0,-1.501032591E0,1.108724006E1,1.145615489E1
1.303098350E1,2.164563952E0,2.150058618E0,7.297459620E0,7.909551572E0
1.304095450E1,1.808541170E0,1.740297439E0,1.176501889E0,2.771933086E0
1.305092450E1,1.771581212E0,5.730446756E-1,-2.700044214E0,3.279804712E0
1.306089550E1,4.614868907E-1,-5.187734511E-1,-6.744131756E0,6.779779435E0
1.307086650E1,8.795373014E-1,-1.735764385E0,-3.772042910E0,4.244381178E0
1.308083750E1,2.136613676E0,-1.822784403E0,1.587541269E0,3.226135189E0
1.309080850E1,2.107136254E0,-8.832654861E-1,2.876214974E0,3.673253828E0
1.310077950E1,2.384203644E0,7.728744400E-1,7.070558417E-1,2.604167790E0
1.311075050E1,2.029377641E0,1.852893763E0,-4.408900005E0,5.195188943E0
1.312072150E1,1.957256914E0,-2.125021425E-1,-4.532455180E0,4.941574824E0
1.313069250E1,1.610966677E0,-2.557541429E0,-4.372926180E0,5.315892697E0
1.314066350E1,9.615124143E-1,-2.588433731E0,-1.752673071E0,3.270528733E0
1.315063450E1,6.818077107E-1,1.215220982E-1,-1.747697675E-1,7.142645493E-1
1.316060550E1,2.833356053E-1,2.591865461E0,-8.290463018E-1,2.735939218E0
1.317057650E1,6.552658832E-1,6.360607034E-1,6.497461116E-1,1.120766080E0
1.318054750E1,1.026219457E0,-1.283813792E0,5.850876009E-1,1.744600735E0
1.319051850E1,9.441438449E-1,-6.347751930E-1,1.170706129E0,1.632452139E0
1.320048950E1,9.670563787E-2,2.247201627E0,-3.571503294E0,4.220770417E0
1.321046050E1,6.271018188E-1,1.803986481E0,-8.465208228E0,8.677982153E0
1.322043150E1,2.370900059E0,-4.379301691E0,-9.556379945E0,1.077607758E1
1.323040250E1,1.152340171E0,-9.379672995E0,-5.508314542E0,1.093835831E1
1.324037350E1,-8.221017100E-2,-9.838132124E0,2.626104300E1,2.804350160E1
1.325034350E1,-7.759074492E0,6.670460932E0,2.997546570E1,3.167375617E1
1.326031450E1,3.859640341E0,1.589404426E1,6.975444099E0,1.778129036E1
1.327028550E1,-1.736038327E-1,1.149521374E0,6.748001443E0,6.847412735E0
1.328025650E1,7.218695871E0,-3.235268806E0,-1.113766060E1,1.366104015E1
1.329022750E1,1.053018518E1,5.753177807E-1,-1.329521652E1,1.696993143E1
1.330019850E1,2.578669758E0,2.023923943E0,-8.606172903E0,9.209344052E0
1.331016950E1,2.188464446E0,-1.267199221E0,-1.772361231E0,3.088111855E0
1.332014050E1,-1.663584309E0,-1.333821811E0,2.904134259E0,3.602858472E0
1.333011150E1,2.468157966E-1,5.678754446E-1,3.238148267E0,3.296817368E0
1.334008250E1,2.586267922E0,2.064860008E0,2.662185246E0,4.247311962E0
1.335005350E1,1.270750235E0,-1.507593167E0,1.924439124E0,2.755196773E0
1.336002450E1,7.833459261E-1,-2.799347477E0,-3.858577609E-2,2.907140519E0
1.336999550E1,-7.893156409E-3,-1.225336080E0,-1.537753982E0,1.966265018E0
1.337996650E1,1.447352227E0,9.284589082E-1,-2.959355949E0,3.422667387E0
1.338993750E1,1.852884407E0,8.021610966E-1,-5.276002325E0,5.649145385E0
1.339990850E1,2.271469326E0,-2.073781982E0,-8.985778236E0,9.497597334E0
1.340987950E1,-2.237290889E-2,-4.714620798E0,-1.534401072E1,1.605200345E1
1.341985050E1,9.398713575E-1,-8.615744210E0,1.104020038E1,1.403568420E1
1.342982150E1,1.730279551E0,-3.531754799E0,5.101237703E1,5.116375445E1
1.343979150E1,5.023138314E-1,1.320878882E1,3.483595669E0,1.366966935E1
1.344976250E1,-2.869433373E0,6.418785076E0,-1.399829742E1,1.566482622E1
1.345973350E1,9.791513443E-2,-9.586803592E0,-9.709451864E0,1.364514001E1
1.346970450E1,6.140299151E0,5.461285386E0,-1.066576340E1,1.346430171E1
1.347967550E1,8.540704553E0,1.510639624E1,-4.875345261E0,1.802542186E1
1.348964650E1,7.713863820E0,1.213103471E1,-4.646198727E0,1.510803961E1
1.349961750E1,2.527670050E0,-8.687597719E0,4.460136817E0,1.008743230E1
1.350958850E1,-1.695690639E0,-1.574640206E1,6.975754001E0,1.730565481E1
1.351955950E1,-7.315906124E-1,-4.081222332E0,-1.595480618E0,4.442652243E0
1.352953050E1,2.513198776E0,1.126565615E1,-2.430477047E0,1.179569393E1
1.353950150E1,5.858632341E-1,1.099825596E0,2.842350824E0,3.103515794E0
1.354947250E1,3.451918086E0,-4.449492253E0,5.492303696E0,7.866328220E0
1.355944350E1,2.830296789E0,-1.914360863E-1,1.914306484E0,3.422250284E0
1.356941450E1,5.293826392E0,3.213227434E0,-6.461804795E-1,6.226313326E0
1.357938550E1,3.133207119E0,-2.213570489E0,8.124232525E-1,3.921340676E0
1.358935650E1,3.731926918E-1,-6.680819274E0,-1.634015524E0,6.887860749E0
1.359932750E1,1.701693244E-1,-4.642030539E0,-1.602125394E0,4.913675906E0
1.360929850E1,-6.887015779E-1,-1.609235609E0,9.884747297E-1,2.010231678E0
1.361926950E1,1.431528054E0,-4.232440099E0,-1.635839855E0,4.758024148E0
1.362923950E1,6.149914312E-1,-1.015272051E1,-3.995932213E0,1.092810242E1
1.363921050E1,7.452842067E-1,-5.984288421E0,-7.228491127E0,9.413726171E0
1.364918150E1,1.432494014E0,1.027060623E1,-4.390903444E0,1.126132427E1
1.365915250E1,1.332683066E0,2.402747211E1,5.743394830E0,2.474029193E1
1.366912350E1,2.857629014E0,2.507316477E1,7.109223130E0,2.621775522E1
1.367909467E1,1.000196935E0,-4.293320139E0,8.137371803E0,9.254718342E0
1.368906567E1,3.221719345E0,-1.113787461E1,4.858779514E0,1.257137481E1
1.369903667E1,1.035978241E0,-2.433180799E1,-8.827947852E0,2.590449371E1
1.370900767E1,-6.662012290E0,-1.761971547E1,-1.278795419E1,2.276770857E1
1.371897867E1,-1.025349172E0,7.299511408E0,2.644294521E0,7.831123881E0
1.372894967E1,1.754011791E0,1.977344146E0,1.238997164E1,1.266877439E1
1.373892067E1,-5.666332036E-2,4.508141288E0,1.504637574E1,1.570732223E1
1.374889167E1,5.217424918E0,7.853069068E0,1.182827407E1,1.512614571E1
1.375886267E1,1.360590511E0,2.173524956E0,-2.027837777E0,3.269180833E0
1.376883367E1,8.024196897E-1,-3.565772438E0,-3.755556101E0,5.240497311E0
1.377880467E1,-5.084781124E-1,1.523868307E0,-6.851181411E0,7.037003007E0
1.378877567E1,2.318788211E0,5.589608381E0,-5.809439131E0,8.388687838E0
1.379874667E1,3.688699622E0,1.904772014E0,-3.725079244E0,5.577712497E0
1.380871767E1,2.128205672E0,-3.963759371E0,-2.159434043E0,4.990371040E0
1.381868867E1,2.953174272E0,-1.279177827E0,-3.023536742E-1,3.232483865E0
1.382865867E1,3.079807422E0,2.673791677E0,9.657775927E-1,4.191312688E0
1.383862967E1,4.342248470E0,2.063785582E0,-1.119862250E0,4.936438409E0
1.384860067E1,4.633997342E0,-2.194033188E-1,-2.720910003E0,5.378235810E0
1.385857167E1,5.372113008E0,-7.310884827E-1,-2.599001988E0,6.012395519E0
1.386854267E1,5.068201051E0,-6.982356092E-1,-6.716427648E-1,5.159970820E0
1.387851367E1,4.030537497E0,1.539589423E0,1.043977085E0,4.439082818E0
1.388848467E1,3.764743831E0,1.519108965E0,1.801290915E0,4.441355325E0
1.389845567E1,3.071851700E0,3.229177469E-1,3.830884026E0,4.920997984E0
1.390842667E1,1.992823042E0,-3.252165505E0,3.662396507E0,5.287823023E0
1.391839767E1,6.465147941E-1,-4.512970795E0,2.939719829E0,5.424651090E0
1.392836867E1,7.111094239E-1,-9.631466380E-1,-1.660223329E0,2.046868233E0
1.393833967E1,1.787161557E0,3.708254173E0,-2.814559008E0,4.986666006E0
1.394831067E1,3.106017273E0,4.888788887E0,-7.876012373E-1,5.845332821E0
1.395828167E1,2.398890388E0,2.617262843E0,2.209189171E-1,3.557182178E0
1.396825267E1,8.613887134E-1,-1.089428662E0,1.178854224E0,1.821686748E0
1.397822367E1,-1.383522121E0,-2.206669021E-1,9.677551210E-1,1.702755800E0
1.398819467E1,-1.475117877E0,1.286600867E-1,1.931109627E0,2.433456505E0
1.399816567E1,-8.476065338E-1,-3.041078681E0,2.501230695E0,4.027747680E0
1.400813667E1,1.151514105E0,-7.293448430E-1,2.767539793E0,3.084996782E0
1.401810767E1,6.806867994E-1,2.770350257E0,2.779639437E0,3.983035333E0
1.402807767E1,1.755289261E0,-2.188326305E-1,3.754130550E0,4.149990879E0
1.403804867E1,2.607367015E0,1.113216305E-1,5.467226742E0,6.058161726E0
1.404801967E1,2.089791951E0,-4.893815446E-1,4.384370350E0,4.881539518E0
1.405799067E1,1.461660949E0,-3.947107378E-1,2.187075001E0,2.659989916E0
1.406796167E1,1.800011690E0,-2.422434202E-1,-1.176103694E0,2.163779993E0
1.407793267E1,2.005871688E0,-8.441002509E-1,-4.321478283E0,4.838512273E0
1.408790367E1,1.410581865E0,-2.895900795E0,-4.617052696E0,5.629667682E0
1.409787467E1,1.336570441E0,-2.611891883E0,-2.960457564E0,4.168058150E0
1.410784567E1,7.131797768E-1,-6.442701942E-1,-2.754029801E0,2.916914401E0
1.411781667E1,5.198717044E-1,4.925457653E-1,-2.006012460E0,2.130012655E0
1.412778767E1,1.875247376E-1,2.881382158E-1,6.412395823E-1,7.275832327E-1
1.413775867E1,2.623582806E-1,5.872095555E-2,-1.951426363E-1,3.322057593E-1
1.414772967E1,-6.689806737E-1,-1.320456246E0,-3.235889488E0,3.558387362E0
1.415770067E1,-9.057025681E-1,-2.199564946E0,-3.179726397E0,3.971025441E0
1.416767167E1,-3.483902648E-2,-1.796947019E0,8.516931528E-1,1.988872437E0
1.417764267E1,1.098539793E-1,-8.948523286E-1,2.590646317E0,2.743041547E0
1.418761367E1,6.118035293E-1,-4.118366477E-1,2.144826529E0,2.268081529E0
1.419758467E1,-3.093715024E-1,5.529121274E-1,1.501945049E0,1.630110878E0
1.420755567E1,-3.542659125E-1,3.465732425E-1,1.493303449E0,1.573395226E0
1.421752667E1,-4.498797291E-1,4.970875901E-1,2.607604412E0,2.692413158E0
1.422749667E1,-7.588239462E-1,9.017064348E-1,2.980878380E0,3.205389866E0
1.423746767E1,-4.406841785E-2,8.144253391E-1,1.991746423E0,2.152274256E0
1.424743867E1,-1.237688177E0,5.514912540E-1,1.171413057E0,1.791151355E0
1.425740967E1,-1.079333371E0,9.302306145E-1,-2.715347546E-1,1.450524266E0
1.426738067E1,-1.111047280E0,1.133709334E0,-2.332293525E0,2.821225975E0
1.427735167E1,-1.617151569E0,1.121356798E0,-3.399655380E0,3.928139123E0
1.428732267E1,-1.224499124E0,2.763759568E-1,-2.983131312E0,3.236487942E0
1.429729367E1,-1.591860023E0,-1.281865792E0,-1.720994611E0,2.671894588E0
1.430726467E1,-1.421250549E0,-3.481359402E0,1.963212596E0,4.241935891E0
1.431723567E1,-1.372893198E0,-2.843626102E0,3.348418568E0,4.602494112E0
1.432720667E1,-1.340785845E0,-1.284290924E0,2.174607568E0,2.859375445E0
1.433717767E1,-1.605172378E0,-4.233410445E-1,-5.477162915E-1,1.748081560E0
1.434714867E1,-1.405031250E0,-9.893073732E-1,-2.242950994E0,2.825539073E0
1.435711967E1,-1.245759966E0,-1.102192841E0,-1.339139269E0,2.135425235E0
1.436709067E1,-8.026426879E-1,-7.566241506E-1,9.753389597E-2,1.107351909E0
1.437706167E1,-7.728342403E-1,4.551151067E-2,1.692839098E-1,7.924652060E-1
1.438703267E1,-1.822861805E-1,5.747330591E-1,-1.031502635E0,1.194798739E0
1.439700367E1,1.617137755E-1,4.151914877E-1,-2.300116882E0,2.342877075E0
1.440697467E1,5.365359767E-1,-8.281089932E-2,-9.925028765E-1,1.131278241E0
1.441694567E1,8.653705211E-1,-1.147419593E-1,6.607365382E-1,1.094808033E0
1.442691667E1,8.452446972E-1,-1.205201778E-1,2.843130843E0,2.968561386E0
1.443688667E1,9.139937738E-1,1.537123944E0,1.228409961E0,2.169591130E0
1.444685767E1,1.649159374E0,2.135740833E0,-1.133710211E0,2.926843759E0
1.445682867E1,1.561063322E0,8.600631496E-1,-2.163722391E0,2.803269859E0
1.446679967E1,1.503488129E0,1.369122329E0,-1.185199038E0,2.353650200E0
1.447677067E1,3.704715073E-1,1.886574602E0,-5.460071504E-1,1.998633702E0
1.448674167E1,-5.135599640E-1,1.842640378E0,2.478511924E-1,1.928859148E0
1.449671267E1,-1.205038348E0,5.102870947E-1,1.259615382E0,1.816353834E0
1.450668367E1,-1.516899010E0,1.916536027E-1,1.192267737E0,1.938869791E0
1.451665467E1,-1.994261018E0,1.204207459E0,5.896694791E-1,2.403102725E0
1.452662567E1,-1.991486515E0,5.150008276E-1,5.478905386E-1,2.128715207E0
1.453659667E1,-1.346875428E0,4.088899434E-2,-8.115169340E-1,1.572992391E0
1.454656767E1,-1.242098586E0,-1.536872514E0,-7.316843140E-1,2.107165859E0
1.455653867E1,-1.017661764E0,-1.542415967E0,-5.050667006E-1,1.915665643E0
1.456650967E1,-7.429731678E-1,-1.499720183E0,-6.161737382E-2,1.674803408E0
1.457648067E1,-7.696127900E-1,-3.128738969E0,1.073644688E0,3.396177895E0
1.458645167E1,-3.177204858E-1,-2.853256174E0,2.791013440E0,4.003969671E0
1.459642267E1,4.591665693E-1,-1.174614700E0,2.476044983E0,2.778732155E0
1.460639367E1,1.948079746E-1,6.591273844E-3,2.531050910E0,2.538545312E0
1.461636467E1,-5.177081250E-1,-4.647299758E-1,2.949347270E0,3.030287935E0
1.462633567E1,-2.939388730E-1,-9.498070925E-1,2.630329031E0,2.811968062E0
1.463630667E1,-7.793607563E-4,4.083487836E-1,2.416344327E0,2.450605893E0
1.464627767E1,-4.451972788E-1,1.876492248E0,8.753340304E-2,1.930566205E0
1.465624867E1,-1.968696114E0,2.814430077E0,-1.515017084E0,3.753938973E0
1.466621867E1,-2.127923837E0,2.113162979E0,-3.261366976E0,4.430579215E0
1.467618967E1,-1.304730451E0,-7.341471612E-2,-4.103889356E0,4.306926876E0
1.468616063E1,-9.999659702E-1,-5.575419527E-1,-4.306264413E0,4.455861103E0
1.469613163E1,-2.270762361E-1,-9.493428236E-1,-3.162433257E0,3.309652477E0
1.470610263E1,4.614816282E-1,-1.578799097E0,-2.029037041E0,2.612003675E0
1.471607363E1,1.760120085E0,-2.063068421E0,-7.097531623E-1,2.803216648E0
1.472604463E1,1.571040134E0,-2.093137143E0,9.133537960E-1,2.771931701E0
1.473601563E1,1.481443103E0,-1.260355055E0,1.188470555E0,2.279392636E0
1.474598663E1,9.424809699E-1,-9.147147354E-1,7.226427644E-1,1.499061703E0
1.475595763E1,3.447952139E-1,-1.107945040E0,-8.280885279E-2,1.163307035E0
1.476592863E1,2.905001803E-1,-1.302109437E0,-3.194836771E-1,1.371841522E0
1.477589963E1,-3.006940334E-1,-1.202198940E0,-8.678086638E-2,1.242268132E0
1.478587063E1,-5.189642166E-1,-1.017098020E0,1.490362884E0,1.877496675E0
1.479584163E1,7.695741618E-2,-3.189278993E-1,2.663481574E0,2.683611660E0
1.480581263E1,2.421191303E-2,1.391961846E-1,2.688165010E0,2.691875353E0
1.481578363E1,1.181669366E0,1.163193626E0,1.008935307E0,1.940956557E0
1.482575463E1,6.975671263E-1,1.638468471E0,1.595038569E-1,1.787909479E0
1.483572563E1,1.067775838E0,8.453161794E-1,2.147986364E-1,1.378710679E0
1.484569663E1,8.750973643E-1,1.195064752E0,-1.141267737E0,1.869884276E0
1.485566763E1,5.517626744E-1,1.248906791E0,-1.441968988E0,1.985820935E0
1.486563863E1,5.353139817E-1,9.308992437E-1,-7.694742841E-1,1.321069693E0
1.487560963E1,6.073829977E-1,-5.517611030E-1,5.762080193E-1,1.002681456E0
1.488558063E1,9.186564897E-1,-9.329849455E-1,2.985500019E0,3.260000156E0
1.489555162E1,1.564145682E0,6.650915444E-3,3.114662674E0,3.485357876E0
1.490552263E1,1.534032375E0,4.836816788E-2,1.297531067E0,2.009771549E0
1.491549363E1,1.622334395E0,2.261010119E-1,-4.825473189E-1,1.707613092E0
1.492546363E1,1.031061536E0,3.332679033E-1,-2.595545114E0,2.812651743E0
1.493543463E1,4.957559964E-1,-8.798945662E-1,-3.760693465E0,3.893944503E0
1.494540563E1,2.792037617E-1,-1.876250173E0,-4.198806623E0,4.607412127E0
1.495537663E1,2.308844729E-1,-2.110420927E0,-2.658879815E0,3.402473512E0
1.496534763E1,5.333645931E-1,-1.852540591E0,-6.090506601E-1,2.021713911E0
1.497531863E1,3.972129806E-1,-1.351314634E0,5.754548979E-1,1.521505087E0
1.498528963E1,3.849102927E-1,-9.724931198E-1,8.798580211E-1,1.366765868E0
1.499526063E1,-3.840152667E-1,-1.119171694E0,-3.894315791E-1,1.245660451E0
1.500523163E1,-7.485927806E-1,-3.646157035E-1,-2.262540336E0,2.410897039E0
1.501520263E1,-1.036087510E0,-1.418797642E-1,-2.887320591E0,3.070867530E0
1.502517363E1,-1.279962231E0,3.608819640E-1,-2.883474877E0,3.175368714E0
1.503514462E1,-8.530785044E-1,1.529122907E-1,-4.038034505E-1,9.561288249E-1
1.504511563E1,-1.291065070E0,1.297885993E-1,2.193805146E0,2.548818376E0
1.505508663E1,-1.598504214E0,4.648334715E-1,4.202139536E0,4.519874175E0
1.506505763E1,-7.181029862E-1,8.130910045E-1,4.328325958E0,4.462196149E0
1.507502863E1,-2.836521954E-1,1.707116537E0,3.267645131E0,3.697595184E0
1.508499963E1,7.696273349E-2,2.863272747E0,1.171842828E0,3.094748729E0
1.509497063E1,-4.211712889E-3,3.492654468E0,-1.206116867E-1,3.494738925E0
1.510494163E1,-9.701206852E-3,3.045267626E0,-1.539829744E0,3.412451416E0
1.511491263E1,-7.569275480E-1,1.585499421E0,-1.774532887E0,2.497141304E0
1.512488363E1,-1.735881731E-1,1.064778263E0,-1.800048966E0,2.098585687E0
1.513485463E1,-3.948763601E-1,-9.025858560E-1,4.716206270E-1,1.092252069E0
1.514482563E1,3.734103544E-1,-2.281594365E0,2.671309826E0,3.532846491E0
1.515479663E1,-2.089066713E-1,-2.862847947E0,2.863320694E0,4.054398323E0
1.516476763E1,-1.106802640E-1,-3.129302933E0,2.168069796E0,3.808584200E0
1.517473863E1,-6.880926635E-1,-2.157779866E0,-3.855654001E-3,2.264840023E0
1.518470963E1,-1.343609319E0,-2.557196150E0,-4.341832441E-1,2.921139032E0
1.519468063E1,-1.723097416E0,-2.812549905E0,-2.553800672E-1,3.308280619E0
1.520465063E1,-1.393711917E0,-1.640776952E0,-5.593095660E-2,2.153534347E0
1.521462163E1,-2.143381243E0,-3.993706763E-1,4.608734447E-1,2.228448883E0
1.522459263E1,-2.413589411E0,1.162715909E-1,2.125525455E0,3.218196916E0
1.523456363E1,-2.184068801E0,4.669767684E-1,2.843711472E-1,2.251464141E0
1.524453463E1,-2.717587907E0,7.532470912E-2,-8.471247232E-1,2.847556521E0
1.525450563E1,-2.278909177E0,-5.457487035E-1,-2.096351942E0,3.144194674E0
1.526447663E1,-2.006840572E0,-6.292010424E-1,-3.056954749E0,3.710562675E0
1.527444763E1,-1.834096718E0,4.606451109E-1,-3.382354639E0,3.875103559E0
1.528441863E1,-2.027919784E0,1.361439672E0,-2.135312524E0,3.244308279E0
1.529438963E1,-1.527383945E0,1.835666696E0,-6.607108104E-1,2.477723291E0
1.530436063E1,-1.543676334E0,5.092547688E-1,1.004513642E0,1.910843976E0
1.531433163E1,-1.441198179E0,-1.069178585E0,1.197039649E0,2.157104300E0
1.532430263E1,-1.076013834E0,-9.944652021E-1,1.259952766E0,1.932420188E0
1.533427363E1,-8.693920898E-1,-1.022120193E0,1.435171015E0,1.964761598E0
1.534424463E1,2.276870692E-1,-7.612285405E-1,2.003434423E0,2.155240074E0
1.535421563E1,8.962539062E-1,1.317032993E0,2.054775900E0,2.599990571E0
1.536418663E1,-5.006514680E-1,1.164679989E0,2.997694972E0,3.254736013E0
1.537415763E1,-1.021898949E0,-6.886558235E-3,2.739882463E0,2.924257307E0
1.538412863E1,-1.060946217E0,1.080699939E0,1.846058952E0,2.387771532E0
1.539409963E1,-2.211588283E0,4.155920219E-1,1.750277467E0,2.850843853E0
1.540407063E1,-2.203506262E0,-4.278086096E-2,1.506271988E0,2.669480352E0
1.541404163E1,-2.691638841E0,-1.890919375E-1,-1.932142246E-1,2.705181537E0
1.542401263E1,-2.814924167E0,3.097740832E-1,-9.855370885E-1,2.998506529E0
1.543398363E1,-2.203134525E0,1.020741127E0,-2.732552978E0,3.655483547E0
1.544395463E1,-2.200298333E0,-8.136388886E-1,-4.095336049E0,4.719650236E0
1.545392563E1,-1.853022109E0,-1.840557599E0,-1.913321813E0,3.237613870E0
1.546389663E1,-6.034793600E-1,-7.894463262E-1,-2.309761865E0,2.514440835E0
1.547386763E1,-1.785053490E0,-1.522639807E0,-1.046808892E0,2.569174342E0
1.548383863E1,-9.801251981E-1,-3.064397669E0,1.140360249E0,3.413444005E0
1.549380963E1,-4.325109404E-1,-3.161873386E0,3.050791783E0,4.414956345E0
1.550378063E1,-2.570494473E-1,-1.527522816E0,5.171264074E0,5.398274956E0
1.551375163E1,3.443893075E-1,-5.898086429E-2,5.324357629E0,5.335809863E0
1.552372263E1,-1.618466900E-1,2.817928174E-1,4.334276669E0,4.346441739E0
1.553369363E1,-4.646317425E-1,1.528634664E-1,2.891946908E0,2.933020084E0
1.554366463E1,-8.210821018E-2,1.170398858E0,-5.157238358E-1,1.281618633E0
1.555363463E1,-2.272568895E0,1.037306874E0,-2.737086909E0,3.705700971E0
1.556360563E1,-2.207791978E0,1.866555197E0,-4.666906056E0,5.489843883E0
1.557357663E1,-1.701371063E0,1.474007929E0,-4.911879834E0,5.403140418E0
1.558354763E1,-1.635406869E0,4.885094324E-1,-3.296916878E0,3.712527170E0
1.559351863E1,-9.202561417E-1,5.963604480E-1,-1.213744560E0,1.635754568E0
1.560348963E1,-2.126134150E0,1.061365828E0,-8.495583344E-1,2.523626995E0
1.561346063E1,-1.349438262E0,4.727734056E-1,5.930988711E-1,1.547987270E0
1.562343163E1,-2.015988687E0,2.121711901E-1,1.571307644E0,2.564806954E0
1.563340263E1,-1.816359190E0,6.107475221E-2,2.081224610E0,2.763039397E0
1.564337363E1,-1.409531559E0,-2.002723986E-1,1.579813004E0,2.126663438E0
1.565334463E1,-1.533618539E0,-7.058858138E-1,1.265484232E0,2.109907805E0
1.566331563E1,-1.444844941E0,-1.628674677E0,1.838946984E0,2.849891948E0
1.567328663E1,-7.299750267E-1,-1.652355900E0,1.532033066E0,2.368600616E0
1.568325775E1,1.944054486E-1,-1.420362942E0,9.820691049E-2,1.436965192E0
1.569322875E1,5.986817926E-4,-9.629343840E-1,-1.378748308E0,1.681722297E0
1.570319975E1,5.667114101E-1,-2.427263417E0,3.980720097E-1,2.524129720E0
1.571317075E1,6.219877709E-1,-2.717035345E0,1.179581618E0,3.026642141E0
1.572314175E1,5.156282704E-1,2.153020817E-1,-7.344903928E-1,9.228779100E-1
1.573311275E1,-3.176762662E-1,1.554759147E0,-5.895577973E-1,1.692859300E0
1.574308375E1,-1.874994849E-1,1.423058216E0,-4.219058454E-2,1.435977294E0
1.575305475E1,-9.279526855E-1,6.755954826E-1,-6.317624152E-1,1.310209598E0
1.576302575E1,-1.543666686E0,-1.296735846E0,7.967076910E-1,2.167757790E0
1.577299675E1,6.264409373E-1,-1.673741799E0,5.353213638E-1,1.865585383E0
1.578296775E1,-4.861037417E-1,-1.236161615E0,-2.465057480E-1,1.350983890E0
1.579293875E1,1.537905425E-2,-1.016252805E0,1.021560030E0,1.441038228E0
1.580290975E1,1.019351317E0,-8.153418902E-1,1.704802501E-1,1.316405341E0
1.581288075E1,-4.498869650E-2,-3.698676726E-1,8.097154069E-1,8.913277277E-1
1.582285175E1,5.074894213E-1,-1.705884236E-1,2.200087979E0,2.264295263E0
1.583282275E1,4.191386141E-1,4.077699092E-1,2.482299750E0,2.550248130E0
1.584279375E1,-2.278949560E-1,1.202522584E0,2.023104456E0,2.364518622E0
1.585276475E1,9.050995009E-1,1.544414838E0,8.555973387E-1,1.984053705E0
1.586273575E1,2.166220906E-1,1.782677766E0,-1.228366107E0,2.175717914E0
1.587270675E1,8.068129221E-1,2.215617015E0,-6.210103796E0,6.642687333E0
1.588267775E1,7.655263171E-1,2.384874612E-2,-6.184552048E0,6.231796157E0
1.589264875E1,2.299965293E0,-2.335453945E0,2.639304507E-1,3.288441084E0
1.590261975E1,1.216112499E-1,-1.974439250E0,1.048113406E0,2.238691885E0
1.591259075E1,1.869639603E0,1.215068954E-1,3.616859561E0,4.073326559E0
1.592256175E1,3.205583369E0,1.021417066E0,1.877862543E-1,3.369617372E0
1.593253275E1,-2.714046248E0,-1.147408483E0,-1.774150479E-1,2.951960258E0
1.594250375E1,2.250108717E0,3.009699306E-1,-7.257594473E0,7.604357282E0
1.595247475E1,-1.906700864E0,-1.714427018E-1,-1.098298654E1,1.114858261E1
1.596244475E1,-1.831305111E0,-2.876178429E0,-6.046002858E0,6.941198119E0
1.597241575E1,3.312051226E0,-6.279168184E0,1.564123170E0,7.269395965E0
1.598238675E1,1.658210864E0,-1.320119154E0,3.327776143E0,3.945436846E0
1.599235775E1,2.849210778E0,5.300763529E0,-8.584459267E0,1.048375109E1
1.600232875E1,-2.705685900E0,-3.580709150E0,-3.152143326E0,5.484361563E0
1.601229975E1,2.202009813E0,-1.073151885E1,3.046675811E1,3.237649910E1
1.602227075E1,3.001719318E0,5.606114486E-1,1.861893329E1,1.886767821E1
1.603224175E1,3.107046383E0,1.095967252E1,5.258076516E0,1.254653449E1
1.604221275E1,-8.570704862E0,6.832971427E0,-2.988610153E0,1.136126186E1
1.605218375E1,-5.934827408E0,7.935370383E-1,-1.385216147E1,1.509086660E1
1.606215475E1,-5.843593302E0,2.955682435E0,-1.162057279E1,1.333871632E1
1.607212575E1,4.542554929E-1,4.969561447E0,-8.845086626E0,1.015571004E1
1.608209675E1,3.311524099E0,9.819986460E-1,-6.060529096E0,6.975709722E0
1.609206775E1,4.414676761E0,-4.034286732E0,-5.132073696E0,7.880546984E0
1.610203875E1,1.374256623E0,-6.752490935E0,1.437854303E0,7.039328100E0
1.611200975E1,2.651808193E0,-3.520354483E0,1.099166615E1,1.184236915E1
1.612198075E1,-6.586050088E-1,3.012854756E0,2.987072335E0,4.293443312E0
1.613195175E1,-1.373318145E0,-2.296053067E0,-2.624709857E0,3.747927994E0
1.614192275E1,-6.311682650E-1,-4.308534594E0,-7.018277877E0,8.259422988E0
1.615189375E1,-1.592570167E0,-5.779998985E-1,-3.702305508E0,4.071538984E0
1.616186475E1,-4.396633423E0,-5.885702026E0,1.233597377E1,1.435785927E1
1.617183575E1,-2.615213978E0,-4.924046136E0,1.717363373E1,1.805600371E1
1.618180675E1,-2.596553759E0,1.541057074E-1,1.607561551E0,3.057792362E0
1.619177775E1,-1.563502196E0,-4.928840268E0,-4.218561441E0,6.673399893E0
1.620174875E1,-6.375545939E-1,-4.393540539E0,-6.116778141E0,7.558085019E0
1.621171975E1,-3.865276179E0,8.303517512E0,-6.632643480E0,1.130843590E1
1.622169075E1,-2.809419891E0,1.574110916E1,8.646786493E-1,1.601321414E1
1.623166175E1,-3.485739259E0,9.890433129E0,4.164273552E0,1.128327168E1
1.624163275E1,-5.820553519E0,8.271187672E-1,1.046402510E0,5.971425871E0
1.625160375E1,-4.491393108E0,4.902340686E-1,-2.962967774E0,5.402973211E0
1.626157475E1,-3.194142999E0,7.093029267E-1,-1.181793619E0,3.478835481E0
1.627154575E1,2.140825572E0,-1.119631051E1,5.625357088E0,1.271161459E1
1.628151675E1,5.174553718E0,-7.547009429E0,6.986270803E-1,9.177223834E0
1.629148775E1,5.450944585E0,-1.235626887E0,1.804263055E0,5.873238957E0
1.630145875E1,3.671405605E0,8.180210844E-1,2.408272830E0,4.466335817E0
1.631142975E1,3.312544731E0,3.262386730E-1,7.611034686E0,8.307059242E0
1.632140075E1,6.524906485E-1,-3.980609000E-1,-3.444290686E-1,8.383483224E-1
1.633137175E1,-5.187803509E0,-2.392123405E0,-4.986366345E0,7.582836472E0
1.634134275E1,-4.705928035E0,-5.516005969E-1,-2.293727045E0,5.264143391E0
1.635131375E1,-2.956344633E0,1.307474257E0,3.784785748E-1,3.254644151E0
1.636128475E1,-2.766969982E0,-6.642100766E-1,1.805577509E0,3.370075377E0
1.637125575E1,-2.439092773E0,-2.463014756E0,-3.170219994E-1,3.480821482E0
1.638122675E1,-2.322094227E0,-5.094116496E0,-1.788520011E0,5.877154780E0
1.639119775E1,9.101857746E-1,7.787716493E-1,-2.169959031E0,2.478637857E0
1.640116875E1,8.924288770E-1,8.811882627E0,7.355294430E-1,8.887446669E0
1.641113975E1,-2.380781561E-2,7.893322470E0,-8.298415232E-1,7.936859794E0
1.642111075E1,-1.766418413E0,1.205447361E-1,-1.398113117E0,2.255988770E0
