"Time (s)","Linear Acceleration x (m/s^2)","Linear Acceleration y (m/s^2)","Linear Acceleration z (m/s^2)","Absolute acceleration (m/s^2)"
7.187083305E-3,1.688679973E0,-1.217207573E0,1.001719258E0,2.310124629E0
1.715708332E-2,8.428276044E-1,-3.590096855E-1,1.696679549E0,1.928203262E0
2.712708333E-2,1.859598034E0,1.481015817E0,1.075589472E0,2.609292128E0
3.709708335E-2,2.583862670E0,-3.402670205E-2,1.195577846E0,2.847263686E0
4.706708330E-2,3.175928338E0,-8.128582853E-1,2.422730071E0,4.076380796E0
5.703708332E-2,2.980650046E0,1.320640140E0,7.715804511E-1,3.350179319E0
6.700708333E-2,3.022268481E0,2.117098155E0,-8.330814654E-1,3.782887270E0
7.697708334E-2,4.008488524E0,7.637712023E-1,-1.417466816E0,4.319784586E0
8.694708336E-2,4.689169038E0,-1.355558835E0,4.524768430E-1,4.902099684E0
9.691808332E-2,2.913451797E0,9.872070533E-1,-1.063992105E0,3.254974399E0
1.068880833E-1,2.340131718E0,1.069457205E0,-3.433022516E0,4.290174678E0
1.168580833E-1,3.404619666E0,-1.085790232E0,-3.084874034E-2,3.573699364E0
1.268280833E-1,2.248706993E0,-1.699132749E0,2.662996255E0,3.877535853E0
1.367980833E-1,1.615710230E0,1.504820417E0,-3.610684901E-1,2.237269427E0
1.467680833E-1,2.610049133E0,8.330671397E-1,2.573599344E-1,2.751834201E0
1.567380833E-1,1.844320136E0,-1.258208542E0,1.127705705E0,2.501264812E0
1.667080833E-1,2.357355861E0,-1.520995862E0,8.969710672E-1,2.945354336E0
1.766780833E-1,1.961563388E0,1.866466320E-1,1.524117690E-1,1.976308994E0
1.866480833E-1,1.750186104E0,-7.278584808E-2,7.442815554E-1,1.903261467E0
1.966180833E-1,2.181190948E0,-1.297694789E0,9.157312739E-1,2.698178920E0
2.065880834E-1,1.555427776E0,-1.854103844E0,4.235296172E-1,2.456915539E0
2.165580833E-1,2.089733040E0,-9.781561482E-1,3.167881107E0,3.919087182E0
2.265280833E-1,1.584051358E0,1.626727847E0,2.747913614E0,3.564616588E0
2.364980833E-1,1.881809413E0,1.286674542E0,-2.785613537E-1,2.296591926E0
2.464690833E-1,2.312411676E0,-9.168755740E-1,1.842685694E-1,2.494366349E0
2.564390833E-1,1.485650905E0,2.738672090E-1,1.610790968E-1,1.519245976E0
2.664090833E-1,1.285101348E0,2.701996014E0,-1.510508296E0,3.351701545E0
2.763790833E-1,1.166657225E0,1.892400768E0,-7.514046335E-1,2.346673959E0
2.863490834E-1,1.721518814E0,-1.375386159E0,5.493973660E-1,2.270936278E0
2.963190833E-1,1.089787462E0,-1.155943956E0,8.059252417E-1,1.781392331E0
3.062890833E-1,1.073178007E0,4.470436102E-1,-4.630550408E-1,1.251390824E0
3.162590833E-1,3.044897351E-2,5.941443533E-1,7.136877537E-2,5.991895815E-1
3.262290834E-1,1.391774296E0,-3.306527361E-1,6.103592670E-1,1.555283048E0
3.361990833E-1,-9.600861322E-2,3.691455415E-1,-6.076584381E-1,7.174502505E-1
3.461690833E-1,-1.703907877E-1,-3.103129041E-1,1.354228594E0,1.399736476E0
3.561390833E-1,-8.529033802E-2,-5.104192418E-1,1.886775454E0,1.956456965E0
3.661090833E-1,-2.445968514E-1,2.874748492E-1,8.284007692E-1,9.103390814E-1
3.760790833E-1,-1.114684248E0,-1.030864120E-3,2.263199902E-1,1.137428140E0
3.860490833E-1,-2.505939750E0,-1.956677455E0,-3.460165876E-1,3.198131982E0
3.960200833E-1,-1.893073782E0,-2.484291604E0,-7.986092055E-1,3.223850149E0
4.059900834E-1,-2.373005641E0,-9.200722468E-1,-5.996091610E-1,2.614807805E0
4.159600833E-1,-3.640620599E0,1.385433429E-1,9.823912865E-1,3.773381142E0
4.259300833E-1,-2.286441707E0,-5.391507053E-1,9.732649523E-1,2.542782694E0
4.359000833E-1,-1.480632678E0,-6.491608053E-1,-8.161420816E-1,1.811013743E0
4.458700833E-1,-6.421884392E-1,-1.125092000E-2,-7.657689035E-1,9.994671522E-1
4.558400833E-1,-1.230946776E0,-1.558692276E-2,-5.242058069E-1,1.338007715E0
4.658100833E-1,4.051780212E-1,6.431735489E-1,-6.993889725E-1,1.032950327E0
4.757800833E-1,5.425933997E-1,4.616452771E-1,-2.080173281E0,2.198782581E0
4.857500833E-1,-1.439563736E0,3.285889614E-1,-2.448370112E0,2.859166078E0
4.957200833E-1,-1.323675722E0,-4.484372941E-1,-6.776121873E-1,1.553181155E0
5.056900833E-1,-5.766385205E-1,-3.282647333E-1,-5.475338584E-1,8.602691698E-1
5.156610833E-1,-1.902620019E-2,-1.176287296E-1,-5.641773731E-1,5.766234669E-1
5.256310834E-1,-9.483727705E-1,4.890748581E-1,1.372125751E0,1.738198552E0
5.356010833E-1,-9.335358994E-1,3.600083899E-1,1.577400443E0,1.867963456E0
5.455710833E-1,-1.643984515E-1,1.713757512E-1,4.649764359E-2,2.419886977E-1
5.555410833E-1,-1.613729632E0,1.048973531E0,-1.502797573E0,2.441898716E0
5.655110833E-1,-2.019166064E0,5.891672033E-1,-4.614482260E-1,2.153388969E0
5.754810833E-1,-1.419488783E0,-2.322294787E-1,-1.061608779E-1,1.442272189E0
5.854510833E-1,-8.871389010E-1,-1.926181009E-1,-3.407763129E-1,9.696626516E-1
5.954210833E-1,-1.637778207E0,-1.498261303E-1,8.917343009E-1,1.870816770E0
6.053910833E-1,-2.502813829E0,-1.247789388E0,1.001048582E0,2.970379384E0
6.153610834E-1,-1.798241592E0,-1.089930938E0,-2.319941282E-2,2.102893360E0
6.253310833E-1,-2.305875513E0,2.896409503E-1,-7.627722055E-1,2.445971218E0
6.353010833E-1,-3.256714346E0,-1.005318219E0,1.752522213E0,3.832517079E0
6.452720833E-1,-1.256626578E0,-1.849596810E0,1.527012062E0,2.707745290E0
6.552420833E-1,-1.702357780E0,-1.643471349E0,-7.641667664E-2,2.367458467E0
6.652120833E-1,-5.407345699E-1,-8.866782135E-1,1.629868094E0,1.932630884E0
6.751820833E-1,-2.485003502E0,-1.547238750E0,2.263035595E0,3.700070305E0
6.851520833E-1,-1.385702109E0,-1.318807915E0,5.790725702E-1,1.998686993E0
6.951220833E-1,-6.727299815E-1,-1.807424060E0,-4.788466161E-1,1.987118879E0
7.050920833E-1,-1.826167894E0,-1.095377619E0,9.059915668E-1,2.314208725E0
7.150620833E-1,-1.350171503E0,-1.098724273E0,8.107094336E-1,1.920262457E0
7.250320833E-1,-1.323150643E0,-7.440277863E-1,-3.741340935E-2,1.518454719E0
7.350020834E-1,-1.675612031E0,2.273324355E-1,-3.474643582E-1,1.726292906E0
7.449720833E-1,-2.211479525E0,-9.297935352E-1,5.059332579E-1,2.451759811E0
7.549430833E-1,-1.288968405E0,-1.050983512E0,7.941115272E-1,1.842991863E0
7.649130833E-1,-1.101476411E0,4.085999215E-1,3.130774677E-1,1.215821402E0
7.748830833E-1,-1.486665982E0,1.515918432E0,-1.203300263E0,2.440515511E0
7.848530833E-1,-1.443933653E0,2.477172911E-3,-1.985053700E-1,1.457516693E0
7.948230833E-1,-1.092928732E0,-5.427914742E-1,-9.879514039E-2,1.224286028E0
8.047930833E-1,-1.186061794E0,1.360413194E-2,8.490823710E-1,1.458721538E0
8.147630834E-1,-3.166394453E-1,2.148614355E0,-2.058787090E-1,2.181556836E0
8.247330833E-1,-4.272583866E-1,9.185168874E-1,7.119341737E-1,1.238173360E0
8.347030833E-1,-9.479919706E-1,-4.977667442E-1,1.229774117E0,1.630584216E0
8.446730833E-1,-1.097137924E-1,-9.365368366E-2,2.195512533E-1,2.626992226E-1
8.546430834E-1,3.166001227E-1,3.094549714E0,-2.862913143E0,4.227616969E0
8.646130833E-1,1.479575794E0,1.781970545E0,-8.330802959E-1,2.461419577E0
8.745840833E-1,9.973059987E-1,-1.414139458E0,6.840622509E-1,1.860739322E0
8.845540833E-1,3.854725756E-1,-2.463698003E-1,-9.368408918E-2,4.669731187E-1
8.945240834E-1,6.986509077E-1,7.236669043E-1,-5.953371853E-1,1.168859805E0
9.044940833E-1,1.176968862E0,-1.157748699E-1,1.149911091E0,1.649531764E0
9.144640833E-1,7.181928872E-1,-1.444961593E0,1.461306900E0,2.176954957E0
9.244340833E-1,8.939433058E-1,1.361126554E-1,2.873438716E-1,9.488033461E-1
9.344040834E-1,1.469751010E0,-3.632348835E-2,2.380056506E-1,1.489340162E0
9.443740833E-1,1.718179469E0,-7.476206079E-1,6.276424670E-1,1.976110404E0
9.543440833E-1,1.381087340E0,-3.524438471E-2,9.423372746E-3,1.381569111E0
9.643140833E-1,2.219449572E0,1.357427605E0,-7.913756150E-1,2.719345780E0
9.742840833E-1,1.958242316E0,-3.916611224E-1,-7.431898803E-1,2.130831434E0
9.842550833E-1,1.488310657E0,-6.405385011E-1,-1.669736749E0,2.326666928E0
9.942250833E-1,1.207993604E0,5.640291461E-1,-4.959368581E-1,1.422438326E0
1.004195083E0,1.360844718E0,1.185468302E0,-1.667929959E-1,1.812471612E0
1.014165083E0,7.300741370E-1,7.308493316E-2,5.091118044E-1,8.930534599E-1
1.024135083E0,7.096546367E-1,-4.527200872E-1,4.889044118E-1,9.734437347E-1
1.034105083E0,9.993830028E-1,1.564299756E0,-1.271941897E0,2.250252498E0
1.044075083E0,1.663694821E0,7.951809829E-1,-2.239699357E0,2.901111246E0
1.054045083E0,2.349820993E0,-7.665527228E-1,-1.975808668E0,3.164345377E0
1.064015083E0,2.987802945E0,-6.476317585E-1,-1.638570505E0,3.468617395E0
1.073985083E0,2.622258411E0,1.302350342E0,-1.909826932E0,3.495682265E0
1.083955083E0,2.779706972E0,-2.643175364E-1,-1.187848996E0,3.034406012E0
1.093926083E0,2.770894049E0,-1.272915459E0,-2.002601194E-1,3.055858588E0
1.103896083E0,2.848110917E0,1.953519666E-1,4.821964860E-2,2.855209855E0
1.113866083E0,2.707402350E0,1.366762100E0,1.592429541E0,3.425477772E0
1.123836083E0,2.562895724E0,3.372980967E-1,2.073020967E0,3.313551030E0
1.133806083E0,2.447420962E0,-1.349588828E0,9.091069633E-1,2.939002355E0
1.143776083E0,2.808947436E0,8.854950294E-1,-6.111001092E-1,3.007944562E0
1.153746083E0,3.074870033E0,2.349992462E0,-9.700571698E-1,3.989774581E0
1.163716083E0,3.170725193E0,8.938419297E-1,-7.026072800E-1,3.368398527E0
1.173686083E0,3.306505727E0,-9.183253911E-1,-1.517780478E0,3.752327174E0
1.183656083E0,3.525585110E0,4.876519382E-2,-1.567711022E0,3.858736355E0
1.193626083E0,3.532628666E0,1.217956894E0,2.573318678E-1,3.745544550E0
1.203596333E0,3.422749836E0,1.207093060E0,5.886614192E-1,3.676793761E0
1.213566333E0,3.347495878E0,-5.969363987E-2,1.112689471E0,3.528083026E0
1.223536333E0,3.459635534E0,5.598048252E-1,1.008210837E0,3.646772348E0
1.233506333E0,2.884660692E0,1.432543277E0,-7.967673326E-1,3.317873676E0
1.243476333E0,3.855431515E0,9.067642763E-1,-5.964469868E-1,4.005286834E0
1.253446333E0,4.162718777E0,1.261623608E0,1.604021646E0,4.636033562E0
1.263416333E0,3.110825731E0,1.715097109E0,-4.371483672E-1,3.579091158E0
1.273386333E0,2.860479240E0,3.793004009E-1,-3.440218685E0,4.490135284E0
1.283356333E0,5.633674167E0,-1.837162706E0,8.696762645E-1,5.989139190E0
1.293326333E0,4.467464547E0,1.476986209E-1,2.726000589E0,5.235564303E0
1.303296333E0,2.745080053E0,8.787257078E-1,4.971296901E-1,2.924852355E0
1.313267333E0,4.037976617E0,-6.115895212E-1,2.267178347E0,4.671123480E0
1.323237333E0,3.070998006E0,-7.094268876E-1,2.132345062E0,3.805418601E0
1.333207333E0,2.755681640E0,1.156254736E0,4.112165505E-1,3.016588365E0
1.343177333E0,3.782663501E0,2.755055988E-1,2.357476314E0,4.465662444E0
1.353147333E0,4.095423757E0,-5.178878903E-2,1.370767443E0,4.319048646E0
1.363117333E0,3.659065641E0,6.056192216E-1,-1.504637107E0,4.002432864E0
1.373087333E0,2.828151154E0,-3.322668600E-1,6.694477201E-1,2.925235113E0
1.383057333E0,3.008047467E0,-5.523505023E-1,1.487600659E0,3.400940512E0
1.393027333E0,2.464105846E0,-4.726757571E-1,1.472576239E0,2.909247458E0
1.402997333E0,1.986017321E0,-9.290404138E-1,2.877080362E0,3.617315621E0
1.412968333E0,9.440568676E-1,-7.909771273E-1,1.308469453E0,1.796936419E0
1.422938333E0,1.692365474E0,-5.368276066E-1,2.071159798E-1,1.787507148E0
1.432908333E0,2.654525394E0,7.343871894E-1,8.194673932E-1,2.873561626E0
1.442878333E0,2.432833475E0,1.148889290E0,-2.839197421E-1,2.705408608E0
1.452848333E0,1.934403949E0,3.992581174E-1,-2.427210792E0,3.129325472E0
1.462818333E0,3.393465518E0,1.048391148E0,-1.662097946E0,3.921390290E0
1.472788333E0,3.898831011E0,8.769323668E-1,-2.294365561E-1,4.002815854E0
1.482758333E0,3.713291257E0,-2.384617335E-1,7.342342848E-1,3.792689803E0
1.492728333E0,2.528651505E0,-7.596670416E-1,2.448516292E0,3.600889402E0
1.502698333E0,9.109465704E-1,1.779930452E-1,1.753779364E0,1.984249792E0
1.512668333E0,1.176471776E0,-4.222131166E-1,1.219599962E0,1.746360164E0
1.522638333E0,2.073265380E0,-8.550851226E-2,2.202529192E0,3.026033028E0
1.532609333E0,1.913712261E0,1.502981760E0,3.656509531E-1,2.460680679E0
1.542579333E0,2.479977236E0,3.491547883E-2,8.141417491E-1,2.610427737E0
1.552549333E0,1.377599622E0,2.284451607E-1,6.710299766E-1,1.549273746E0
1.562519333E0,1.609909208E0,8.895936352E-1,-9.829011637E-1,2.085492554E0
1.572489333E0,2.407581836E0,-7.533093640E-1,-5.855401754E-1,2.589745661E0
1.582459333E0,1.656693073E0,-1.311797981E0,1.877477211E0,2.826723644E0
1.592429333E0,7.767918552E-1,6.300848490E-1,1.455522249E0,1.766057055E0
1.602399333E0,6.006845371E-1,3.468489388E-1,6.057042986E-1,9.208712162E-1
1.612369333E0,1.462398429E0,-1.279093042E0,1.386249701E0,2.386708279E0
1.622339333E0,1.315487282E0,-6.797092912E-1,9.017587674E-1,1.733689817E0
1.632309333E0,1.960456364E0,-1.230546534E-1,-5.894046003E-1,2.050836265E0
1.642280333E0,1.946718770E0,-2.562321235E0,2.169615215E-1,3.225256018E0
1.652250333E0,1.687898639E0,-8.086716789E-1,3.225990736E-1,1.899216118E0
1.662220333E0,7.390469087E-1,-1.629314947E-1,2.360287070E-1,7.927462114E-1
1.672190333E0,1.099528850E0,-4.447199267E-1,-7.831994534E-2,1.188643563E0
1.682160333E0,2.206732755E0,3.128669679E-2,-1.108313414E0,2.469616759E0
1.692130333E0,2.159273829E0,-7.332466900E-2,-1.041664512E0,2.398521405E0
1.702100333E0,2.485102613E0,-7.077940527E-1,1.274459124E-1,2.587073613E0
1.712070333E0,2.246568666E0,8.157450557E-1,-9.784069937E-1,2.582593854E0
1.722040333E0,2.805042957E0,5.774154693E-2,-1.279499424E-1,2.808553234E0
1.732010333E0,-6.508265309E-2,-1.827599292E0,8.692581886E-1,2.024836962E0
1.741980333E0,-4.392850859E-1,2.470217648E-1,-7.625880182E-1,9.140741898E-1
1.751951333E0,9.411264624E-1,5.354508796E-1,5.687586665E-2,1.084279266E0
1.761921333E0,7.733397321E-1,-1.190620576E0,1.898673953E0,2.370779297E0
1.771891333E0,1.832079575E0,-1.766724515E-1,1.818503364E0,2.587408589E0
1.781861333E0,1.621208367E0,2.456448040E0,7.439529419E-2,2.944144732E0
1.791831333E0,1.721807958E0,8.109307507E-1,8.366067517E-1,2.078976235E0
1.801801333E0,1.402078991E0,2.487455240E-1,1.042341619E0,1.764702775E0
1.811771333E0,2.204882404E0,1.483369322E0,-7.550848711E-1,2.762615449E0
1.821741333E0,1.964168323E0,6.230608812E-1,-1.746123605E0,2.700946076E0
1.831711333E0,8.957590125E-1,-8.722820762E-1,-2.153807852E0,2.490411310E0
1.841681333E0,9.477129123E-1,5.145786586E-1,-2.034746262E0,2.302855469E0
1.851651333E0,-1.226110325E-1,8.764186889E-2,-1.234892769E0,1.244055752E0
1.861621333E0,1.065480733E-1,-1.896058786E0,2.942336458E-1,1.921708836E0
1.871592333E0,1.045012189E-1,8.449869812E-2,1.160882222E0,1.168635130E0
1.881562333E0,1.896954433E-1,2.227584511E-1,9.598374063E-1,1.003440848E0
1.891532333E0,1.026045721E0,-1.204398078E0,1.766042730E0,2.371128735E0
1.901502333E0,9.226662178E-1,2.602548909E-1,6.867765284E-1,1.179282645E0
1.911472333E0,1.269628739E0,-6.792301118E-2,5.225083601E-1,1.374622005E0
1.921442333E0,1.387910749E0,-9.486332640E-1,-3.002948695E-1,1.707740708E0
1.931412333E0,6.594184296E-1,1.393827108E-1,-2.312076777E-1,7.125427675E-1
1.941382333E0,9.700903527E-1,-2.664716506E-1,1.015366659E0,1.429353660E0
1.951352333E0,2.894609108E-1,-1.130601539E0,4.698804957E-1,1.258107761E0
1.961322333E0,-3.638373660E-1,-2.052264521E-1,-7.183772206E-2,4.238586838E-1
1.971292333E0,-5.572495919E-1,9.734456313E-1,-1.557283098E-1,1.132419892E0
1.981263333E0,-2.770198449E-1,-3.660988498E-1,1.600850701E-2,4.593741771E-1
1.991233333E0,5.606453259E-1,-4.371974838E-1,3.011900783E-3,7.109668718E-1
2.001203333E0,-5.117035827E-1,1.189842604E0,-9.349931717E-2,1.298579263E0
2.011173333E0,-4.812194163E-1,7.524518698E-2,-1.085108739E-1,4.990075896E-1
2.021143333E0,-1.451395595E-1,-7.512569913E-1,-1.395505258E0,1.591504786E0
2.031113333E0,-1.216395980E0,1.135595061E0,-6.052850533E-1,1.770752755E0
2.041083333E0,-8.700811842E-1,3.752909651E-1,5.698871791E-2,9.492798795E-1
2.051053333E0,-3.874927155E-1,-9.273257178E-1,-1.080809866E0,1.475883992E0
2.061023333E0,-8.839194971E-1,-5.312745059E-1,-1.732637002E0,2.016332626E0
2.070993333E0,-1.596662048E0,-5.100710401E-1,-7.270047873E-1,1.827029864E0
2.080963333E0,-9.000437059E-1,-1.240025163E0,1.472597873E-1,1.539294164E0
2.090934333E0,-5.712451219E-1,-1.002830521E0,1.120827041E0,1.608801821E0
2.100904333E0,-1.126744569E0,-1.500205502E-1,1.864777059E0,2.183907729E0
2.110874333E0,-6.136364121E-1,-1.637867377E0,1.528980820E0,2.323131838E0
2.120844333E0,-1.335690800E-1,-2.028297661E0,1.184559937E0,2.352661120E0
2.130814333E0,-3.558494847E-2,-2.973852950E-1,2.406882947E0,2.425446314E0
2.140784333E0,1.821314120E-1,-2.888913372E-1,1.995485133E0,2.024497708E0
2.150754333E0,9.075828865E-3,-1.660918563E0,9.223970997E-1,1.899881379E0
2.160724333E0,-4.552119512E-1,-1.017376347E0,1.320225281E-1,1.122364691E0
2.170694333E0,-1.732828498E0,9.100340393E-1,-8.189768118E-1,2.121692620E0
2.180664333E0,-8.317214030E-1,-1.486204344E-1,-1.567222779E0,1.780459426E0
2.190634333E0,-1.377301122E0,-1.094461361E-1,-2.927140129E0,3.236832738E0
2.200604417E0,-2.256972032E0,-6.754800001E-1,-1.693641921E0,2.901485644E0
2.210575417E0,-1.205277207E0,-2.197416971E0,-4.911234301E-1,2.553925746E0
2.220545417E0,-1.284061421E0,-3.805654460E-1,-1.103889996E0,1.735573944E0
2.230515417E0,-1.359644577E0,1.017416693E0,-2.711020607E-1,1.719670442E0
2.240485417E0,-1.467550849E0,-9.244833863E-1,2.031835518E0,2.671466002E0
2.250455417E0,-1.026616702E0,-2.576689598E-1,1.381315820E0,1.740220831E0
2.260425417E0,-9.936560936E-1,1.465026606E0,1.076578821E0,2.071877734E0
2.270395417E0,-1.663394713E0,1.937493033E0,6.160673189E-1,2.626842242E0
2.280365417E0,-2.161448994E0,3.353097510E-1,1.539178948E0,2.674577764E0
2.290335417E0,-2.151361377E0,5.682183838E-1,-4.711867636E-1,2.274476835E0
2.300305417E0,-2.376537944E0,2.701840478E0,-2.387564916E0,4.318372471E0
2.310275417E0,-1.555493557E0,1.159583555E0,-2.641108373E0,3.277140166E0
2.320246417E0,-1.108362385E0,-9.261445802E-1,-2.554076661E0,2.934198110E0
2.330216417E0,-1.394355550E0,2.553835756E-1,-4.488850738E0,4.707359039E0
2.340186417E0,-1.005190896E0,8.640079737E-2,-2.328805076E0,2.537953293E0
2.350156417E0,-4.146843879E-1,-1.589354491E0,9.316386241E-1,1.888375324E0
2.360126417E0,-5.411731111E-1,-6.093482834E-1,2.238517635E0,2.382254157E0
2.370096417E0,-6.467387424E-1,4.501283088E-1,4.067533708E0,4.143153021E0
2.380066417E0,-4.993636188E-1,-9.423884377E-1,2.692041129E0,2.895607956E0
2.390036417E0,-9.589734802E-1,-4.764726466E-1,1.261124548E0,1.654415741E0
2.400006417E0,-3.241282667E-1,2.442972547E-1,1.369344816E0,1.428231601E0
2.409976417E0,3.333130731E-1,4.190105966E-1,1.872798854E0,1.947830340E0
2.419946417E0,-5.905370598E-1,7.701972923E-1,3.133980120E0,3.280818386E0
2.429916417E0,-1.302614198E0,1.878775293E0,9.478699100E-1,2.474885395E0
2.439887417E0,-1.354874857E0,4.301983666E-1,-1.173043261E0,1.843037440E0
2.449857417E0,-1.994830245E0,2.539732271E-1,-1.413808798E0,2.458191494E0
2.459827417E0,-2.702805561E0,8.187145641E-1,-1.361793137E0,3.135272235E0
2.469797417E0,-2.787838402E0,-1.496335230E0,-8.660919213E-1,3.280423341E0
2.479767417E0,-1.691713070E0,-1.371076176E0,-5.715010107E-1,2.251301046E0
2.489737417E0,-5.512610199E-1,-7.343050361E-2,-4.483311671E-1,7.143399655E-1
2.499707417E0,1.024546203E-1,-1.513841794E0,4.975623840E-1,1.596803761E0
2.509677417E0,-2.224039637E-1,-2.963605705E0,1.739527946E0,3.443599827E0
2.519647417E0,-9.093050377E-1,1.333480041E0,2.270210713E0,2.785473273E0
2.529617417E0,-1.244833767E0,3.206718606E0,2.328343146E0,4.153773842E0
2.539587417E0,-1.347609546E0,-5.031569999E-1,3.582973192E0,3.860947468E0
2.549557417E0,-1.760796900E0,4.318364641E-1,9.055085868E-1,2.026532570E0
2.559528417E0,-1.302408522E0,2.156632642E0,-2.117668551E0,3.291177966E0
2.569498417E0,-1.204763383E0,1.380685783E0,-2.042908391E0,2.744307332E0
2.579468417E0,-1.628861788E0,1.489626135E0,-1.183054279E0,2.504355041E0
2.589438417E0,-1.930480029E0,-4.148368540E-1,-1.459663247E0,2.455495785E0
2.599408417E0,-2.992107958E-1,-2.425313956E0,2.978735375E-1,2.461788685E0
2.609378417E0,1.585311726E-2,-1.198945257E-1,1.673616377E0,1.677980272E0
2.619348417E0,-8.360094586E-1,1.218091088E0,6.313759142E-1,1.606640364E0
2.629318417E0,-8.021900403E-1,-5.207910329E-1,1.402344162E0,1.697439633E0
2.639288417E0,8.165417388E-2,4.100862837E-1,2.364549690E-1,4.803635254E-1
2.649258417E0,-1.045623954E-1,5.953336769E-1,1.176646900E-1,6.157925468E-1
2.659228417E0,-7.603032187E-2,-8.449314326E-2,1.790309844E0,1.793914446E0
2.669199417E0,-1.265740779E0,1.407366335E0,9.138361913E-1,2.101874474E0
2.679169417E0,-1.884755972E0,1.239817879E0,-3.154379886E-1,2.277927692E0
2.689139417E0,-1.251163232E0,-6.069927326E-1,-1.208681456E0,1.842487577E0
2.699109417E0,-1.497923187E0,1.227912363E-1,-9.301177633E-1,1.767475775E0
2.709079417E0,-1.164820322E0,-9.707392475E-1,-6.549109572E-1,1.651680790E0
2.719049417E0,6.633315325E-2,-1.625221896E0,6.621568269E-1,1.756188476E0
2.729019417E0,2.450948149E-2,-1.864203447E-1,1.119830675E0,1.135506055E0
2.738989417E0,3.225161894E-1,-1.316005345E0,1.315061604E0,1.888193259E0
2.748959417E0,8.055875650E-1,-1.571321678E0,2.118414656E0,2.757844048E0
2.758929417E0,5.620944487E-1,1.862080908E-1,8.960255724E-1,1.074004399E0
2.768899417E0,-4.272282735E-1,-1.071648449E0,3.830060738E-1,1.215585475E0
2.778869417E0,-1.955118880E-1,-1.473072375E0,2.100490601E0,2.572980351E0
2.788839417E0,-2.993442585E-1,-1.148802459E-1,1.307053258E0,1.345805586E0
2.798810417E0,-1.368746207E0,-1.113898967E0,-7.294693887E-1,1.909545149E0
2.808780417E0,-2.953605504E-1,-1.204930175E0,7.046479583E-1,1.426752721E0
2.818750417E0,-1.180125993E-1,4.951065534E-1,6.729069328E-1,8.437186813E-1
2.828720417E0,1.168797013E-1,-6.883225322E-1,1.305104966E0,1.480117476E0
2.838690417E0,3.728560384E-1,-1.180839646E0,1.269926947E0,1.773730066E0
2.848660417E0,-1.750719224E-1,-2.188715145E-1,-4.055979609E-1,4.930158454E-1
2.858630417E0,5.330884583E-1,-5.086527979E-1,-3.949127591E-1,8.359826915E-1
2.868600417E0,3.022197729E-1,-7.853483051E-2,-1.560016086E0,1.590960307E0
2.878570417E0,-2.829070044E-1,2.689973554E-1,-2.023242450E0,2.060559624E0
2.888540417E0,1.909300098E-1,-1.231763340E0,-1.848215405E0,2.229258930E0
2.898510417E0,1.948842625E-1,-1.245149663E0,-1.817348539E0,2.211590665E0
2.908481417E0,1.857623868E-2,1.354645208E0,-7.465982223E-1,1.546873499E0
2.918451417E0,7.439401511E-1,1.054910502E0,2.192857897E-1,1.309339288E0
2.928421417E0,1.017512587E0,-7.018521121E-1,5.694287574E-1,1.360947230E0
2.938391417E0,8.491328032E-1,9.704141423E-1,-4.920776957E-1,1.380170491E0
2.948361417E0,5.753667511E-1,1.183025920E0,-1.369040176E0,1.898649054E0
2.958331417E0,5.982754111E-1,6.936812130E-1,-1.724823368E0,1.952983037E0
2.968301417E0,8.847495094E-1,9.990064421E-1,-1.624845920E0,2.102598352E0
2.978271417E0,1.164487981E0,-8.894892624E-1,2.195910144E-1,1.481702945E0
2.988241417E0,3.448180546E0,-1.583264323E0,4.261963568E0,5.706225412E0
2.998211417E0,2.928450490E0,1.850739356E0,2.370140213E0,4.197454356E0
3.008181417E0,1.430218716E0,1.376089579E0,1.566352129E-1,1.990899971E0
3.018151417E0,1.162653124E0,-9.904142511E-1,-1.034570670E0,1.844727391E0
3.028122417E0,-1.199503666E-1,4.866079178E-1,-2.337500471E0,2.390624146E0
3.038092417E0,-6.171336318E-1,2.706608883E-1,-1.286862237E0,1.452627156E0
3.048062417E0,-5.231691686E-1,-5.050015041E-1,4.900463730E-1,8.768568560E-1
3.058032417E0,-6.065336531E-1,6.147540343E-1,1.953601527E-1,8.854214727E-1
3.068002417E0,7.317680754E-3,-1.706395867E-1,4.004939264E-1,4.353926987E-1
3.077972417E0,7.659606922E-1,-2.071370882E0,9.008653128E-1,2.385127130E0
3.087942417E0,9.509987551E-1,4.033242711E-1,-5.595984185E-1,1.174827430E0
3.097912417E0,6.469015874E-1,6.152378914E-1,-7.758845866E-1,1.182791705E0
3.107882417E0,2.549506623E-1,-6.195496282E-1,-1.274558526E0,1.439910073E0
3.117852417E0,2.272449100E-1,4.961157829E-2,-1.557545637E0,1.574817440E0
3.127822417E0,4.084063055E-1,-5.316314784E-1,-8.833879852E-1,1.108964414E0
3.137793417E0,7.986111058E-1,-1.056347747E0,1.316091299E-2,1.324320003E0
3.147763417E0,9.764511001E-1,1.961316928E-1,7.563689196E-1,1.250607186E0
3.157733417E0,1.060082802E0,2.058792937E-1,3.269716215E-1,1.128305044E0
3.167703417E0,1.023061010E0,-3.472091272E-1,-4.481306076E-3,1.080383307E0
3.177673417E0,9.412375595E-1,6.163611415E-1,-3.403997523E-1,1.175457865E0
3.187643417E0,1.181845221E0,1.974201268E-1,-8.603856236E-1,1.475125844E0
3.197613417E0,2.044967488E0,-2.646604756E-1,2.205199031E0,3.019079323E0
3.207583458E0,1.821317044E0,1.669661612E0,1.100813191E0,2.704950158E0
3.217553458E0,1.607271529E0,2.484845335E0,-1.418789456E0,3.281880806E0
3.227523458E0,1.143521254E0,1.769787579E0,-3.184898844E0,3.818817825E0
3.237493458E0,2.093891214E-1,1.359710651E0,-2.210060990E0,2.603272256E0
3.247463458E0,6.804457845E-2,-3.490018836E-1,-1.769969135E0,1.805331858E0
3.257433458E0,8.625425883E-1,-2.197322539E0,-4.650027484E-1,2.405916377E0
3.267404458E0,5.236457167E-1,-6.994731724E-3,-5.135901868E-2,5.262048191E-1
3.277374458E0,9.658552144E-1,1.467337718E0,-1.898649395E-1,1.766919627E0
3.287344458E0,1.874364592E0,1.083321538E0,1.136722112E-1,2.167890576E0
3.297314458E0,1.987801014E0,8.403612489E-1,3.870137554E-1,2.192564605E0
3.307284458E0,2.185926169E0,-1.066400573E-1,-6.366688138E-1,2.279252618E0
3.317254458E0,2.468643285E0,-1.219417236E0,1.566632211E0,3.167888027E0
3.327224458E0,1.798604704E0,1.022878869E0,2.945524945E0,3.599635713E0
3.337194458E0,2.176244203E0,9.539513066E-1,2.201463829E0,3.239213627E0
3.347164458E0,1.602169102E0,2.480888817E-1,2.236846501E0,2.762603155E0
3.357134458E0,6.380481720E-1,4.507612699E-1,1.070980697E0,1.325628472E0
3.367104458E0,7.063929136E-1,-6.366585812E-1,4.055067444E-1,1.033808888E0
3.377074458E0,4.728839180E-1,1.436728129E-1,1.115473330E-2,4.943536236E-1
3.387045458E0,3.630357128E-2,3.776406687E-1,-4.118234915E-1,5.599366144E-1
3.397015458E0,-1.654913326E-1,-2.169589780E0,7.013080287E-1,2.286119014E0
3.406985458E0,-2.764099438E-1,-1.427150682E0,-8.885896683E-2,1.456385060E0
3.416955458E0,1.054968535E-1,1.362074972E0,-6.858807349E-1,1.528662879E0
3.426925458E0,1.781325890E0,2.004814366E-1,2.124287599E-1,1.805115151E0
3.436895458E0,1.726012253E0,-1.215903352E0,1.650575423E-1,2.117730684E0
3.446865458E0,9.531682914E-1,-9.532639664E-1,-2.257497112E0,2.629360225E0
3.456835458E0,1.078911129E0,-1.670673765E0,-6.662200570E-2,1.989884053E0
3.466805458E0,5.287498243E-1,3.265129074E-1,1.695041159E0,1.805367438E0
3.476775458E0,7.387216573E-1,2.053188381E0,8.333323109E-1,2.335751475E0
3.486745458E0,1.000351302E0,-4.929465920E-1,1.362982460E0,1.761084966E0
3.496716458E0,7.393410967E-1,-1.270380983E0,7.805418938E-1,1.664253210E0
3.506686458E0,4.634486681E-1,-3.971566281E-1,-1.597746999E0,1.710354796E0
3.516656458E0,1.362174375E0,-8.143200892E-1,-4.259345770E-2,1.587592655E0
3.526626458E0,1.235111163E0,6.169309527E-2,6.639712179E-1,1.403625093E0
3.536596458E0,4.598300090E-1,3.785879177E-1,-1.284823898E0,1.416172623E0
3.546566458E0,1.235330141E0,-4.354301628E-1,-9.500854200E-1,1.618116896E0
3.556536458E0,-2.811007081E-1,9.426164791E-1,-6.577240527E-1,1.183276960E0
3.566506458E0,4.883039027E-1,1.088003696E0,-9.355486572E-1,1.515732177E0
3.576476458E0,-3.754955811E-2,-1.997636908E-1,-2.046227270E-1,2.884197668E-1
3.586446458E0,-6.393288584E-1,5.054064238E-1,-7.846618420E-1,1.131313948E0
3.596416458E0,-2.225300625E-1,9.036140889E-1,-1.508204493E0,1.772207336E0
3.606386458E0,-3.073683925E-1,-2.953750223E-1,-1.347893720E0,1.413697002E0
3.616357458E0,-2.338725463E-2,6.538967577E-1,-8.686682045E-2,6.600558899E-1
3.626327458E0,5.930133556E-1,9.889790520E-1,-2.947522938E-2,1.153522082E0
3.636297458E0,1.354586589E0,-9.840893179E-2,2.286587595E0,2.659524765E0
3.646267458E0,8.670191436E-1,7.765871295E-1,2.338697981E0,2.612339566E0
3.656237458E0,1.199410038E0,8.343447563E-1,1.286611977E0,1.946814318E0
3.666207458E0,6.114380052E-1,-2.133099353E-1,9.821252382E-1,1.176404499E0
3.676177458E0,6.247040950E-1,-6.512172711E-1,4.466962856E-1,1.006914451E0
3.686147458E0,6.625284174E-1,-8.786324447E-1,-1.699551702E0,2.024701179E0
3.696117458E0,2.308933899E-1,2.708310422E-1,-2.388910945E0,2.415275702E0
3.706087458E0,-4.442742592E-1,-2.618584898E-1,-1.374894993E0,1.468429681E0
3.716057458E0,-1.973173985E-1,-2.222010360E0,-9.693911719E-1,2.432279474E0
3.726027458E0,1.228190472E-1,-1.733134600E0,1.496500121E0,2.293109826E0
3.735998458E0,-6.557981991E-1,-2.281492916E-1,2.304875346E0,2.407192086E0
3.745968458E0,4.774251580E-4,2.667955863E-1,2.222292781E-2,2.677199495E-1
3.755938458E0,-5.496166366E-1,9.863235390E-1,-1.614190539E0,1.969904482E0
3.765908458E0,-6.566806170E-1,-5.500499153E-1,-2.188536805E-1,8.841274091E-1
3.775878458E0,2.768950434E-1,-2.294978642E0,-2.798021328E-1,2.328494592E0
3.785848458E0,6.318165019E-2,3.381076437E-1,-2.168241119E-1,4.065973379E-1
3.795818458E0,-5.631573994E-1,2.324481645E-1,1.804053724E0,1.904150269E0
3.805788458E0,2.654190787E-1,-1.288921627E0,2.384461799E0,2.723494872E0
3.815758458E0,-6.570514767E-1,4.047085994E-1,1.612304227E0,1.787464857E0
3.825728458E0,-9.649971355E-1,8.715999985E-1,7.420631218E-1,1.497185261E0
3.835698458E0,-1.662812184E-1,-1.900222296E-1,1.116132311E0,1.144337899E0
3.845668458E0,-5.430019739E-1,1.507287065E0,-1.739903337E-1,1.611532834E0
3.855639458E0,-2.670434352E-1,1.540693377E0,-1.274727511E0,2.017418773E0
3.865609458E0,1.648338863E-1,-3.064183661E-1,-4.952527338E-1,6.052583709E-1
3.875579458E0,-4.338979731E-1,8.618053275E-1,-6.177653503E-1,1.145691888E0
3.885549458E0,-7.260936449E-1,8.082480481E-1,-1.555989109E0,1.897782652E0
3.895519458E0,-1.030356581E0,8.451360852E-1,-2.726563675E0,3.034804633E0
3.905489458E0,-1.426545203E0,1.116398360E0,-1.641283613E0,2.444419852E0
3.915459458E0,-7.584375183E-1,-1.061744727E0,-7.999873942E-1,1.530525781E0
3.925429458E0,-4.315363558E-1,-6.345208392E-1,-1.013219562E0,1.271005193E0
3.935399458E0,-1.082318375E0,2.254595724E-1,-1.960594797E-1,1.122802032E0
3.945369458E0,-5.958054741E-1,-1.421254642E0,4.080602235E-1,1.594196370E0
3.955339458E0,-2.635754516E-1,-1.002724979E0,1.612542209E0,1.917086795E0
3.965309458E0,-6.139808131E-1,-5.111039507E-1,1.963119040E0,2.119442392E0
3.975280458E0,-1.657482447E-1,-7.003432381E-1,2.495088780E0,2.596809803E0
3.985250458E0,-4.460060218E-1,-1.010806416E0,2.847405742E0,3.054238112E0
3.995220458E0,-5.426811811E-1,-7.124177384E-1,1.347987276E0,1.618366953E0
4.005190458E0,-8.346246918E-1,-8.595146808E-1,1.031944685E0,1.581225378E0
4.015160458E0,-1.045413966E0,7.710004073E-1,9.868515426E-1,1.631320923E0
4.025130458E0,-1.894586895E0,5.312505323E-1,4.189225960E-1,2.011761112E0
4.035100458E0,-1.474251466E0,-1.069406919E0,-7.714290082E-2,1.822909644E0
4.045070458E0,-1.970590905E0,1.087624504E0,-1.042636904E0,2.480573983E0
4.055040458E0,-2.243062091E0,1.137078207E0,-6.374260283E-1,2.594337359E0
4.065010458E0,-1.497228977E0,-1.623121869E0,8.129155880E-1,2.353093913E0
4.074980458E0,-1.760907559E0,-2.900274512E-1,-1.244420807E0,2.175659555E0
4.084950458E0,-1.866901060E0,1.223825160E0,-1.899013676E0,2.930754260E0
4.094921458E0,-2.019415155E0,4.577305663E-1,-9.443089557E-1,2.275801890E0
4.104891458E0,-1.750352019E0,5.065004379E-2,-2.543404323E-1,1.769459429E0
4.114861458E0,-1.420887729E0,-6.820274198E-1,4.600261831E-1,1.641860965E0
4.124831458E0,-1.735248953E-1,2.843895659E-1,8.618064970E-1,9.239581986E-1
4.134801458E0,-4.798847893E-1,3.354866293E-1,5.836035776E-1,8.267005656E-1
4.144771458E0,-2.219496350E-1,-4.940920615E-1,3.545108378E-1,6.473534891E-1
4.154741458E0,-5.033195525E-2,4.825560898E-1,-1.484149048E0,1.561439106E0
4.164711458E0,-2.140974091E-1,-7.841408551E-2,-1.086631939E0,1.110295204E0
4.174681458E0,3.834311664E-2,-1.948841309E0,-8.241054046E-1,2.116270862E0
4.184651458E0,-5.002968344E-1,-5.049979958E-1,7.216107309E-1,1.012937286E0
4.194621458E0,-7.686530426E-1,-6.001772180E-1,2.041037866E0,2.262051230E0
4.204591833E0,-8.543087585E-1,-1.224590853E0,3.760401689E0,4.045996425E0
4.214561833E0,-1.925030570E0,1.019117063E0,1.295527226E0,2.534311164E0
4.224532833E0,-2.465260671E0,8.992821792E-1,-5.547159934E-1,2.682149967E0
4.234502833E0,-3.055982941E0,-1.098524298E0,1.573640099E0,3.608618923E0
4.244472833E0,-3.514318402E0,6.274784526E-1,9.536364341E-1,3.695075843E0
4.254442833E0,-3.296110254E0,3.671674284E-1,2.019411939E-1,3.322639760E0
4.264412833E0,-1.684026467E0,-2.663570452E-1,5.098432910E-1,1.779559327E0
4.274382833E0,-2.549796791E-1,-4.595701003E-1,-4.282091439E-2,5.273072582E-1
4.284352833E0,-1.198032361E-1,-1.510545426E0,-9.560337925E-1,1.791675448E0
4.294322833E0,-4.640747222E-1,-1.366409513E-1,-1.357374980E0,1.441007611E0
4.304292833E0,-1.903058926E-1,-1.379174862E0,-1.929054916E-2,1.392376299E0
4.314262833E0,-3.976515949E-2,-2.842418360E0,1.988224061E0,3.468999613E0
4.324232833E0,3.066089123E-1,-5.782501593E-1,2.824186449E0,2.899036283E0
4.334202833E0,2.071408305E-1,-1.667266300E-1,2.068698705E0,2.085717964E0
4.344172833E0,-8.673365012E-2,-3.994613081E-1,1.629951124E0,1.680426354E0
4.354142833E0,-2.383211079E-1,9.332761368E-1,3.194059092E-1,1.014801179E0
4.364113833E0,1.230502680E-2,-1.504351178E-1,9.273876983E-1,9.395903795E-1
4.374083833E0,1.836261065E-1,1.838893774E-1,3.900741881E-1,4.687128357E-1
4.384053833E0,-3.646907672E-1,2.022136742E0,-1.381456738E0,2.475976389E0
4.394023833E0,-1.502798011E-1,2.894395137E-1,-1.804909172E0,1.834136410E0
4.403993833E0,-3.168863440E-1,1.417923483E-1,-2.851043295E0,2.872102000E0
4.413963833E0,-2.822465613E-1,1.152881769E0,-2.884033286E0,3.118725299E0
4.423933833E0,-1.483280736E-1,-6.317361027E-1,-1.517865263E0,1.650759424E0
4.433903833E0,3.693200078E-1,-5.758451995E-1,7.974941415E-1,1.050710173E0
4.443873833E0,1.085308348E0,2.137847292E-1,9.550298256E-1,1.461396623E0
4.453843833E0,8.013029446E-1,4.994387555E-1,-1.008253521E0,1.381340162E0
4.463813833E0,1.255857376E0,1.399111529E0,-2.238929279E0,2.923609949E0
4.473783833E0,9.638581710E-1,9.598628417E-1,-1.771491750E0,2.233504481E0
4.483754833E0,7.499976473E-1,-7.395558357E-3,2.315503246E-1,7.849628768E-1
4.493724833E0,1.333889931E0,1.368718286E0,1.656983387E0,2.529475448E0
4.503694833E0,5.112691711E-1,9.546801621E-1,9.714856446E-2,1.087312384E0
4.513664833E0,1.473662944E0,-1.481402903E0,2.072545588E-1,2.099807487E0
4.523634833E0,2.265476807E0,-1.280728508E0,-1.052333341E0,2.807143769E0
4.533604833E0,1.629366841E0,-7.738117486E-1,-7.743257189E-1,1.962957270E0
4.543574833E0,2.373820159E0,1.276588680E0,-1.078756324E0,2.903173438E0
4.553544833E0,2.452459947E0,9.510554731E-2,-3.170260924E-1,2.474694001E0
4.563514833E0,2.046563631E0,-2.711582524E0,1.070343350E0,3.561844658E0
4.573484833E0,2.563591543E0,-6.422339013E-1,1.166407256E0,2.888766496E0
4.583454833E0,2.935573568E0,4.514509490E-1,3.714665937E-1,2.993223608E0
4.593424833E0,2.049326295E0,-3.761689246E-2,-3.112630767E-1,2.073171000E0
4.603394833E0,2.269158068E0,1.954884991E-1,4.529147995E-1,2.322159751E0
4.613364833E0,1.824832828E0,-1.362081404E0,8.026601565E-1,2.414444849E0
4.623335833E0,1.313913650E0,-1.126268167E0,2.324902060E0,2.898278567E0
4.633305833E0,1.117008151E0,1.593721776E0,5.129621959E-1,2.012656584E0
4.643275833E0,1.429627709E0,-3.570374197E-1,2.483218932E-1,1.494314179E0
4.653245833E0,1.918457568E0,-1.089074321E0,-3.977270240E-1,2.241595214E0
4.663215833E0,2.198596209E0,8.250114307E-1,-1.957714459E0,3.057305194E0
4.673185833E0,1.849006972E0,-7.482003593E-1,-8.482380331E-2,1.996453265E0
4.683155833E0,2.235602213E0,-6.944904676E-1,3.698802441E-1,2.370030730E0
4.693125833E0,2.260493810E0,-3.169705439E-1,-2.767229891E-1,2.299321249E0
4.703095833E0,2.098558242E0,-1.728369704E-1,4.166644013E-1,2.146492147E0
4.713065833E0,2.541843993E0,1.215885518E0,8.269711250E-1,2.936533623E0
4.723035833E0,1.895353173E0,1.066628906E0,1.957817370E-1,2.183664663E0
4.733005833E0,1.076146273E0,3.341160420E-1,3.596879625E-1,1.182835475E0
4.742975833E0,2.016544172E0,3.265053061E-1,-1.134663892E-1,2.045954725E0
4.752946833E0,4.624148438E-1,2.021546173E-1,-1.202408563E0,1.304024666E0
4.762916833E0,5.357500743E-1,1.386120477E-1,-8.723712462E-1,1.033089073E0
4.772886833E0,8.643843151E-1,2.089460413E0,-9.025914109E-1,2.434681975E0
4.782856833E0,1.977186856E0,1.086474356E0,6.587455612E-1,2.350242563E0
4.792826833E0,2.159724357E0,3.094238350E-1,1.594131081E0,2.702111455E0
4.802796833E0,1.361626052E0,1.078829999E0,-7.159535497E-1,1.878959595E0
4.812766833E0,1.297884531E0,-1.408357438E-1,6.422453034E-1,1.454928862E0
4.822736833E0,4.394834893E-1,1.506722516E0,4.343732786E-1,1.628508097E0
4.832706833E0,9.401824294E-1,8.904254016E-1,1.001500572E0,1.637010627E0
4.842676833E0,8.349811526E-1,-4.340949512E-1,8.987930596E-1,1.301330441E0
4.852646833E0,1.393245017E0,4.874291593E-1,-1.567059642E0,2.152764452E0
4.862616833E0,1.061651172E0,-8.691894838E-1,1.296744032E0,1.887892649E0
4.872586833E0,-6.820196722E-1,5.308643237E-1,-1.940550542E-1,8.857906793E-1
4.882556833E0,6.926235978E-1,1.431010429E0,-7.188245326E-1,1.744771333E0
4.892527833E0,1.837515732E0,-1.036758990E0,1.115607816E0,2.386611419E0
4.902497833E0,2.020543376E0,-9.888050973E-1,-6.274588645E-2,2.250392877E0
4.912467833E0,1.601579264E0,-3.063055149E-1,-1.538863783E0,2.242092985E0
4.922437833E0,6.935847339E-1,-4.414674130E-1,-1.718237649E0,1.904808095E0
4.932407833E0,4.645174660E-1,-1.362839788E-2,-1.601010330E0,1.667092165E0
4.942377833E0,1.457024691E0,-1.873263123E0,-2.599789023E-1,2.387388680E0
4.952347833E0,1.025355969E0,-1.505303689E0,9.718738997E-1,2.064420727E0
4.962317833E0,6.354888457E-1,4.565137607E-1,3.102854222E-1,8.417410112E-1
4.972287833E0,9.546094108E-1,-6.757820088E-1,1.159470704E0,1.646916138E0
4.982257833E0,3.123404261E-1,-1.082848790E-1,5.819184101E-1,6.692616774E-1
4.992227833E0,4.381176893E-1,4.349702793E-1,-9.166352534E-1,1.105154488E0
5.002197833E0,9.667522504E-1,-4.349974689E-1,-1.023768523E0,1.473748520E0
5.012167833E0,3.216091766E-1,1.994485259E-3,-3.338415152E-1,4.635586238E-1
5.022138833E0,1.041957676E0,-8.490507960E-2,-5.593446493E-1,1.185643753E0
5.032108833E0,1.176948543E0,-4.052041510E-1,-2.075404876E-1,1.261931588E0
5.042078833E0,5.443585097E-2,1.667214552E0,6.244914025E-1,1.781167353E0
5.052048833E0,9.549821708E-1,5.022743627E-1,6.994901294E-1,1.285907043E0
5.062018833E0,1.749182722E0,-1.086220880E0,2.444894527E0,3.196408178E0
5.071988833E0,7.096280318E-1,-4.133630633E-2,1.588937584E0,1.740690461E0
5.081958833E0,1.929864755E0,1.080622755E0,-3.291017622E-1,2.236164458E0
5.091928833E0,1.664996996E0,1.537709835E0,2.685819107E-1,2.282302078E0
5.101898833E0,8.224646759E-1,-2.879841417E-2,-5.810261250E-2,8.250172152E-1
5.111868833E0,1.953156846E0,-2.396946189E-1,-1.245529439E0,2.328866411E0
5.121838833E0,3.761536122E-1,1.244329298E0,-2.527096438E0,2.841841542E0
5.131808833E0,1.038247472E0,-9.458757171E-1,-1.010311157E-1,1.408135637E0
5.141778833E0,2.476370381E-1,-1.691214157E0,1.890722909E0,2.548796293E0
5.151748833E0,-3.765658774E-1,-5.349173212E-1,-4.028907001E-2,6.554094977E-1
5.161719833E0,8.751765941E-1,-1.607809180E0,4.416144705E-1,1.883084643E0
5.171689833E0,7.075895463E-1,2.172717163E-1,-7.428945959E-2,7.439145707E-1
5.181659833E0,6.845235962E-1,-6.104618856E-1,-7.458719981E-1,1.182184971E0
5.191629833E0,1.563420774E0,-1.903445281E0,-8.738862598E-1,2.613630740E0
5.201599833E0,9.182686000E-1,-1.132544861E0,3.998226660E-1,1.511864163E0
5.211569667E0,7.663749674E-1,-1.006067247E0,1.249783289E0,1.778049540E0
5.221539667E0,5.768974791E-1,5.691197321E-1,8.900532264E-1,1.203703749E0
5.231509667E0,-1.383875786E-1,1.721647452E0,1.687956088E0,2.415039716E0
5.241479667E0,4.996487436E-1,1.956370184E-1,1.696350351E0,1.779192857E0
5.251449667E0,9.360996111E-1,6.969553614E-1,2.416157216E-1,1.191808464E0
5.261419667E0,3.715942823E-1,9.664777967E-1,-1.931105534E0,2.191193790E0
5.271389667E0,1.975859319E-1,-3.750778341E-1,-1.578058255E0,1.634010844E0
5.281359667E0,-8.605278571E-1,1.536265281E0,-3.687986847E0,4.086791674E0
5.291330667E0,-1.512125490E0,8.296509039E-1,-5.174029807E0,5.453936979E0
5.301300667E0,-6.300375596E-1,-2.506304324E0,-5.041572247E0,5.665329594E0
5.311270667E0,-3.505183589E-1,-1.854325161E0,-3.869458693E0,4.305124330E0
5.321240667E0,8.848297624E-1,-1.503468833E0,1.253596258E-1,1.749016088E0
5.331210667E0,2.945870515E0,-1.770370546E0,4.205551386E0,5.431300712E0
5.341180667E0,2.487358761E0,7.965164870E-1,5.592915566E0,6.172689580E0
5.351150667E0,1.582744652E0,2.581214173E0,2.449894481E0,3.894833784E0
5.361120667E0,1.500777652E0,1.608742396E0,2.516832236E0,3.342877527E0
5.371090667E0,8.933890629E-1,2.917623201E-1,4.525241470E0,4.621804802E0
5.381060667E0,8.298886663E-1,1.830391923E-1,1.753562433E0,1.948640487E0
5.391030667E0,7.183291273E-1,9.049454999E-1,1.676210201E0,2.035829986E0
5.401000667E0,-8.685614198E-1,4.161562783E-1,3.958331108E-1,1.041282305E0
5.410970667E0,2.724632925E-1,-9.137724566E-1,1.270147972E0,1.588235567E0
5.420940667E0,1.752369601E-1,6.771362239E-1,1.346984478E0,1.517757768E0
5.430911667E0,-6.903452303E-1,2.108298096E0,-7.560414755E-1,2.343735503E0
5.440881667E0,3.805200205E-1,1.730863541E-1,-1.358191252E-2,4.182569071E-1
5.450851667E0,-1.172901320E0,5.447652018E-1,-1.132603333E0,1.719086077E0
5.460821667E0,-5.802701165E-1,-3.693577954E-1,-2.010498444E0,2.124910017E0
5.470791667E0,-1.089080753E0,5.038253367E-2,-3.708177867E0,3.865128507E0
5.480761667E0,-1.764199980E0,9.028557050E-1,-5.274925268E0,5.634925605E0
5.490731667E0,-6.344641943E-1,-1.549958583E0,-2.433161504E0,2.953843484E0
5.500701667E0,-4.346067287E-2,-7.780781695E-1,1.639542897E0,1.815322390E0
5.510671667E0,1.503586362E0,6.702713004E-1,2.801147250E0,3.249070864E0
5.520641667E0,2.713648053E0,-3.209139061E-1,2.899689791E0,3.984353445E0
5.530611667E0,2.059372981E0,-1.802360371E-1,-6.087232161E-1,2.155004885E0
5.540581667E0,1.370249380E0,-1.829875906E0,-2.083037247E0,3.092745280E0
5.550551667E0,3.743082675E-1,-2.397990502E0,-1.897534330E0,3.080763162E0
5.560521667E0,-3.467019544E-1,-3.781081536E-1,-1.159424511E0,1.267845897E0
5.570492667E0,-6.319012865E-2,-5.416261241E-1,-3.978159016E-1,6.749884016E-1
5.580462667E0,-2.406674128E-1,-1.183985448E0,-3.033412689E-1,1.245695898E0
5.590432667E0,-2.916419040E-1,1.267491581E0,6.861157930E-1,1.470491343E0
5.600402667E0,6.478502981E-2,2.707443573E0,5.822885388E-1,2.770109698E0
5.610372667E0,-1.155835929E-1,3.488031952E0,2.712336230E-1,3.500470560E0
5.620342667E0,7.123914991E-2,3.937431113E0,-4.501981831E-1,3.963725166E0
5.630312667E0,-1.160933970E-1,8.072826728E-1,-4.725012177E-1,9.425711599E-1
5.640282667E0,-4.950328054E-1,3.034108508E-1,-6.865572578E-1,8.991532078E-1
5.650252667E0,-7.410088688E-2,5.025778332E-1,-9.499100035E-1,1.077220699E0
5.660222667E0,-6.446024622E-1,1.444620408E0,-1.916766407E0,2.485243231E0
5.670192667E0,-3.349563234E-1,-2.196933407E-1,-3.464703315E-1,5.296249552E-1
5.680162667E0,5.250409720E-1,-1.013948417E0,3.690622187E-1,1.199985973E0
5.690133667E0,7.677436544E-1,-2.695297444E-1,1.601699717E0,1.796529595E0
5.700103667E0,1.203664252E0,-9.311328399E-1,1.522507952E0,2.152637095E0
5.710073667E0,1.592380425E0,-1.795983982E0,1.904412995E0,3.063988044E0
5.720043667E0,5.145309307E-1,-5.897913936E-1,4.473675460E0,4.541626150E0
5.730013667E0,4.610192231E-1,-1.450390148E0,2.935407507E0,3.306476605E0
5.739983667E0,1.838993908E-1,-1.004902190E0,2.667658825E0,2.856580299E0
5.749953667E0,-2.512800362E-1,9.536302945E-1,2.722092894E0,2.895227473E0
5.759923667E0,-8.867075957E-2,-9.502912420E-1,6.990246910E-1,1.183026402E0
5.769893667E0,-5.799979652E-1,-9.867913163E-1,-1.088529360E-1,1.149784199E0
5.779863667E0,-5.867952072E-1,-2.916561931E-2,-6.194575346E-1,8.537604381E-1
5.789833667E0,-5.854598128E-1,-2.792808536E-1,-1.611777978E0,1.737408771E0
5.799803667E0,-5.315616041E-1,-9.038403761E-1,-7.848173779E-1,1.309741761E0
5.809773667E0,-1.529144834E-1,-1.388935619E0,-1.025719739E0,1.733385698E0
5.819743667E0,-1.898298562E-3,-1.422407421E0,-2.083093965E0,2.522404991E0
5.829714667E0,-5.036452059E-1,-5.074915409E-1,-1.967975153E0,2.093831980E0
5.839684667E0,-4.348658700E-1,4.583731753E-1,-1.359625574E0,1.499265151E0
5.849654667E0,3.207965232E-2,2.352688906E0,-1.246140473E0,2.662525168E0
5.859624667E0,-8.308580616E-1,2.600137517E0,-1.145229226E0,2.960167260E0
5.869594667E0,-2.703693680E-1,9.178590757E-1,-1.166876203E0,1.509027816E0
5.879564667E0,-3.923090670E-1,-3.845573401E-1,-4.420968658E-1,7.051527428E-1
5.889534667E0,-4.607810587E-1,-1.256893503E0,4.753143132E-2,1.339537121E0
5.899504667E0,-2.460621636E-2,-4.661268756E-1,3.514188302E-1,5.842729877E-1
5.909474667E0,5.254913903E-1,1.018315410E0,1.720735579E0,2.067374763E0
5.919444667E0,-6.571612582E-2,5.862327781E-1,1.504693825E0,1.616196456E0
5.929414667E0,1.074296214E0,-4.571119308E-1,6.962560344E-1,1.359351367E0
5.939384667E0,3.638857152E-1,1.418622226E-1,-5.166868722E-1,6.476905340E-1
5.949354667E0,8.809434836E-1,-3.703553304E-1,-1.356640570E0,1.659427048E0
5.959325667E0,-2.181297952E-1,-3.927703393E-1,-2.946221348E0,2.980280084E0
5.969295667E0,-6.968042839E-2,-1.191228394E0,-2.462466579E0,2.736351970E0
5.979265667E0,8.035243750E-2,-1.104284975E0,-8.790850192E-1,1.413751142E0
5.989235667E0,7.326290779E-1,-9.260846463E-1,1.735527281E0,2.099150561E0
5.999205667E0,2.181992455E0,-1.859678287E0,4.043602808E0,4.956835490E0
6.009175667E0,1.856552658E0,-2.944561324E-1,4.161510742E0,4.566362211E0
6.019145667E0,1.802502166E0,7.380650881E-1,3.238823036E0,3.779382065E0
6.029115667E0,1.047818414E0,-1.443940669E-1,2.416703346E0,2.638034900E0
6.039085667E0,1.341998265E0,5.717310986E-1,1.917910123E0,2.409608896E0
6.049055667E0,1.112799691E0,7.980589825E-1,-5.296232522E-1,1.468237747E0
6.059025667E0,9.959388466E-1,-8.416505599E-1,-2.223947543E0,2.578024927E0
6.068995667E0,3.309024853E-1,-2.475275490E-1,-1.408313000E0,1.467689288E0
6.078965667E0,-8.528200574E-3,-6.226682407E-1,-1.395667811E0,1.528292219E0
6.088936667E0,-3.390718130E-1,-8.043403539E-1,-3.310049139E0,3.423208788E0
6.098906667E0,2.197928164E-1,-4.821397680E-1,-3.786482610E0,3.823377851E0
6.108876667E0,2.571208930E-1,-2.187487522E0,-8.624046671E-1,2.365365642E0
6.118846667E0,4.580904258E-1,-1.264764148E0,1.529766685E0,2.037071746E0
6.128816667E0,-3.170131920E-1,1.751275002E0,1.437695843E0,2.287887854E0
6.138786667E0,1.390918483E-1,6.878170404E-1,1.775622223E0,1.909259831E0
6.148756667E0,9.205647285E-1,1.257150488E0,1.458883229E0,2.134527359E0
6.158726667E0,9.326885647E-1,1.748885537E0,1.470209286E0,2.467797383E0
6.168696667E0,1.143734970E0,1.787403778E0,1.369464099E0,2.525544271E0
6.178666667E0,3.164502148E-1,2.974315465E0,-5.897221041E-1,3.048682565E0
6.188636667E0,5.108235767E-1,1.507097907E0,-3.168175222E0,3.545365858E0
6.198606667E0,7.336893243E-1,-3.914023831E-1,-2.753761414E0,2.876577441E0
6.208576333E0,-4.662317235E-1,-3.735376775E-1,-2.712387686E0,2.777399751E0
6.218547333E0,-2.588318248E-1,-1.075475744E0,-1.766479517E0,2.084248515E0
6.228517333E0,1.554783047E-1,1.364757675E-1,-2.600056826E0,2.608274264E0
6.238487333E0,9.811551851E-1,1.874763519E-1,-2.047601951E0,2.278263951E0
6.248457333E0,8.173180298E-1,-1.440636700E0,-8.928183746E-1,1.881639581E0
6.258427333E0,5.893661183E-1,4.297656727E-1,-1.232612355E0,1.432265399E0
6.268397333E0,1.070087608E0,4.844497105E-1,8.896819282E-1,1.473537561E0
6.278367333E0,2.098930564E0,4.724404067E-2,6.797506894E0,7.114340552E0
6.288337333E0,1.738366396E0,-3.886664709E-1,6.984013193E0,7.207594580E0
6.298307333E0,1.635865729E0,-3.778847900E-1,4.876355660E0,5.157295621E0
6.308277333E0,1.265805683E0,1.880474494E0,2.674867857E0,3.506189727E0
6.318247333E0,8.877789518E-1,-1.501053348E-1,1.782025509E0,1.996571560E0
6.328217333E0,8.601915691E-2,-2.122395733E0,-1.323288052E0,2.502609480E0
6.338187333E0,-5.560889927E-1,-1.168135693E0,-4.101162214E0,4.300384573E0
6.348158333E0,-6.563972463E-1,-1.191258215E0,-3.405516629E0,3.667082899E0
6.358128333E0,-1.889164480E-1,3.205350065E-1,-2.625902689E0,2.652130661E0
6.368098333E0,-1.422004109E-1,-1.170942357E0,-8.065801299E-1,1.428950127E0
6.378068333E0,5.693920662E-1,-2.445000069E0,3.527976036E-2,2.510672683E0
6.388038333E0,1.069656083E0,7.275126180E-1,-2.695028472E-1,1.321389621E0
6.398008333E0,9.037061825E-1,1.239206553E0,1.796409659E0,2.362076504E0
6.407978333E0,1.068086179E0,8.677484375E-1,2.678508334E0,3.011345601E0
6.417948333E0,2.894184637E-1,5.812489039E-1,1.983568507E0,2.087140953E0
6.427918333E0,1.056094709E0,3.363999644E-1,3.960459495E-1,1.177010350E0
6.437888333E0,-2.670090828E-2,1.138221923E0,-1.086298648E0,1.573628557E0
6.447858333E0,-7.323741393E-1,3.504935083E-1,-1.929126252E0,2.093023095E0
6.457828333E0,-9.837738606E-1,-1.676193244E0,-3.372093945E0,3.892101280E0
6.467798333E0,-6.291188890E-1,-1.661144558E0,-4.378021443E0,4.724644281E0
6.477769333E0,-2.315539060E-1,-1.255593667E0,-1.765246924E0,2.178584258E0
6.487739333E0,2.649161816E-1,-2.297929439E-1,1.381597656E-1,3.769263869E-1
6.497709333E0,1.946553732E0,-1.306124135E0,2.639006299E0,3.529785536E0
6.507679333E0,2.133456618E0,-8.083629459E-1,1.398844603E0,2.676164049E0
6.517649333E0,1.921607756E0,6.802948898E-1,-3.668262434E-1,2.071216791E0
6.527619333E0,9.759342062E-1,2.040104066E0,-6.841423577E-1,2.362736325E0
6.537589333E0,4.870920673E-1,1.022235968E0,1.661416161E-1,1.144477214E0
6.547559333E0,7.375196160E-1,1.630437613E0,2.605688864E-1,1.808357856E0
6.557529333E0,5.555179025E-1,1.008500274E0,2.391441035E-1,1.175951889E0
6.567499333E0,6.491068648E-1,-1.427251546E0,4.386037391E-1,1.628115456E0
6.577469333E0,9.267946444E-1,-4.228303487E0,2.048042831E0,4.788734501E0
6.587439333E0,9.242005272E-1,-2.952606800E0,1.877383656E0,3.618922895E0
6.597409333E0,1.042540717E0,7.170539957E-1,1.499889168E0,1.962326449E0
6.607379333E0,1.105659729E0,2.264480442E-2,2.816051218E0,3.025415787E0
6.617350333E0,3.529738972E-1,-6.821189287E-1,8.576374322E-1,1.151268331E0
6.627320333E0,-5.029720087E-2,9.252014244E-1,-1.744331433E0,1.975150534E0
6.637290333E0,-1.302989881E-2,3.097656047E-1,1.041562770E0,1.086727892E0
6.647260333E0,-4.427988971E-1,6.413126725E-1,5.604480189E-1,9.599243663E-1
6.657230333E0,1.051459036E0,7.846533635E-1,4.419501007E-2,1.312707205E0
6.667200333E0,5.314260218E-1,-2.715745157E-1,-4.139238113E-1,7.262914400E-1
6.677170333E0,-1.338846470E-1,2.179695230E0,-2.449258304E0,3.281442157E0
6.687140333E0,5.345128035E-1,5.904661623E-1,-1.389115421E0,1.601248225E0
6.697110333E0,-1.033441280E-1,-2.464671564E0,-4.885798913E-1,2.514755701E0
6.707080333E0,4.610060668E-1,-4.494959325E-1,-1.335459616E0,1.482573969E0
6.717050333E0,1.903809197E-1,9.409085074E-1,-1.163415821E0,1.508340176E0
6.727020333E0,5.048895299E-1,7.268817034E-1,-1.398439391E0,1.654963196E0
6.736990333E0,5.084774180E-1,1.383536008E-1,-6.350187296E-1,8.251907600E-1
6.746961333E0,-5.689048835E-1,3.635687596E-1,-8.869191188E-1,1.114657137E0
6.756931333E0,-4.350612401E-1,1.649373528E0,-1.232624050E0,2.104536378E0
6.766901333E0,-4.642334375E-1,2.297174563E0,-2.005970360E0,3.084872890E0
6.776871333E0,-3.366682420E-1,1.428582957E-1,-7.326654768E-1,8.188728221E-1
6.786841333E0,-4.598403879E-2,-8.334062782E-1,-3.440355510E-1,9.027962210E-1
6.796811333E0,-4.069771729E-2,-8.910674259E-1,5.822546250E-1,1.065212613E0
6.806781333E0,4.708335187E-1,2.569178849E-2,1.596598021E0,1.664773111E0
6.816751333E0,8.620842397E-1,1.528534092E0,1.914018216E0,2.596742467E0
6.826721333E0,-2.371102957E-1,1.679985749E0,1.737918792E0,2.428772351E0
6.836691333E0,3.072249164E-1,1.262351002E0,2.827462059E-1,1.329609950E0
6.846661333E0,5.241995942E-1,-8.451448560E-2,1.162738713E0,1.278236765E0
6.856631333E0,-1.323507761E-1,3.401544616E-1,8.550091088E-1,9.296571205E-1
6.866601333E0,3.424568758E-1,-4.728546819E-1,6.350555670E-1,8.626493118E-1
6.876571333E0,4.803329784E-1,-2.095235124E0,1.505564475E0,2.624396003E0
6.886542333E0,1.777302859E-1,-5.677441746E-1,1.098647382E0,1.249378875E0
6.896512333E0,4.899557412E-2,4.035280466E-2,6.627152359E-1,6.657479997E-1
6.906482333E0,3.048800368E-1,-2.369607532E0,1.591355993E0,2.870610665E0
6.916452333E0,-3.102014416E-1,-4.442357773E-1,-8.182219362E-1,9.813549292E-1
6.926422333E0,-5.840203379E-1,-1.184301490E0,-1.053296378E0,1.689107171E0
6.936392333E0,-2.251061813E-1,-3.524301061E0,6.021287262E-1,3.582447455E0
6.946362333E0,-4.486829502E-1,-1.471893284E0,-4.362268460E-1,1.599399915E0
6.956332333E0,4.360010704E-1,-1.040704691E0,1.608457929E0,1.964764642E0
6.966302333E0,3.602982657E-1,-6.552734846E-1,1.979277821E0,2.115830539E0
6.976272333E0,3.788656604E-1,3.368528312E-1,6.399537796E-1,8.164250477E-1
6.986242333E0,-9.182584405E-2,-2.296613815E-1,-2.782239693E-1,3.722699463E-1
6.996212333E0,-8.805431686E-2,-8.824658793E-1,-1.005216478E0,1.340507276E0
7.006182333E0,-9.298760540E-1,7.019906911E-1,-2.506476232E0,2.764033920E0
7.016152333E0,-1.613048286E0,-3.115960756E-1,-1.771871234E0,2.416308043E0
7.026123333E0,-1.480782513E0,-1.144334309E0,-1.039151378E0,2.140573159E0
7.036093333E0,-8.030538934E-1,3.494611824E-1,-5.059899759E-1,1.011456637E0
7.046063333E0,-1.021817161E0,2.201053647E0,1.656304525E0,2.938042231E0
7.056033333E0,-8.756987505E-2,2.936880713E0,2.726214012E0,4.008139175E0
7.066003333E0,-9.677329016E-1,1.415435493E0,3.058307210E0,3.506167080E0
7.075973333E0,-4.750557201E-1,1.298022526E0,-9.306212085E-1,1.666312170E0
7.085943333E0,-3.825467750E-1,4.979088315E-1,-3.004419270E0,3.069330610E0
7.095913333E0,-1.280081221E0,-8.806430098E-1,-2.842875320E0,3.239765443E0
7.105883333E0,-2.624105547E0,-3.900203937E-1,-3.178280380E0,4.139989372E0
7.115853333E0,-2.519972776E0,-3.849897417E-1,-1.371790121E0,2.894872714E0
7.125823333E0,-1.065643358E0,-1.283204219E0,1.235842942E0,2.075937526E0
7.135793333E0,-1.425479548E-1,-1.076140572E0,1.872364991E0,2.164289516E0
7.145763333E0,4.431585740E-1,-2.796349317E0,1.678285963E0,3.291291965E0
7.155734333E0,9.488946345E-1,-2.905764463E0,1.642948900E0,3.470324081E0
7.165704333E0,4.015722992E-1,-1.582116222E-1,5.408177465E-1,6.919357368E-1
7.175674333E0,-1.694221964E-1,-1.523362522E0,3.165217116E0,3.516807735E0
7.185644333E0,-3.852717237E-1,-8.230201614E-1,1.599288910E0,1.839435105E0
7.195614333E0,-8.366286787E-1,5.700535324E-1,1.251001849E0,1.609321037E0
7.205584458E0,-8.516492987E-1,1.763286352E-1,1.571414648E0,1.796035165E0
7.215554458E0,-1.339905254E0,1.466867310E0,3.226095986E-1,2.012740109E0
7.225524458E0,-2.159503186E0,6.547141984E-1,-6.528720331E-1,2.349116129E0
7.235494458E0,-2.137165507E0,-8.619421524E-1,-9.366122657E-1,2.487501400E0
7.245464458E0,-1.287781858E0,-4.317569420E-1,1.363588232E-1,1.365060402E0
7.255434458E0,-1.240786324E0,-6.588721535E-1,3.294103197E0,3.581170073E0
7.265404458E0,-1.235545173E0,8.290682289E-1,1.556815905E0,2.153509174E0
7.275374458E0,-1.973125234E0,2.580617173E0,-1.756974868E0,3.693205771E0
7.285344458E0,-1.754146569E0,1.375044389E0,-3.261291547E0,3.950164530E0
7.295314458E0,-1.531127040E0,7.297506398E-1,-4.398774966E0,4.714457255E0
7.305285458E0,-2.310593631E0,4.741501325E-1,-4.518127747E0,5.096777376E0
7.315255458E0,-1.553006883E0,-1.868151779E0,-2.389937131E0,3.407876309E0
7.325225458E0,-8.430231938E-1,-1.300300601E0,-8.958162421E-1,1.789959915E0
7.335195458E0,-8.504231375E-1,-1.985447218E0,2.168142886E0,3.060402546E0
7.345165458E0,5.840687236E-1,-2.779878003E0,4.775977094E0,5.556870989E0
7.355135458E0,3.387138538E-1,-1.412684378E-1,4.022597855E0,4.039304068E0
7.365105458E0,2.120910832E-1,4.211199796E-1,4.486593128E0,4.511301649E0
7.375075458E0,6.380581123E-1,1.832500429E0,3.906751649E0,4.362096334E0
7.385045458E0,-8.954477213E-1,1.113260451E0,2.532390507E0,2.907606771E0
7.395015458E0,-2.449422172E0,7.663621035E-1,-9.166487020E-1,2.725293506E0
7.404985458E0,-3.216194896E0,5.282044253E-1,-1.804949518E0,3.725688163E0
7.414955458E0,-3.081439379E0,-1.052405847E0,-2.042910730E0,3.843996744E0
7.424925458E0,-2.549664937E0,1.182599366E-3,-3.017690111E0,3.950600751E0
7.434895458E0,-1.211601848E0,-1.912176928E-1,-1.415946540E0,1.873352035E0
7.444865458E0,-4.148827547E-1,-1.583410211E0,1.400142100E0,2.153999419E0
7.454836458E0,3.055578022E-1,8.245664576E-1,2.527602223E0,2.676200368E0
7.464806458E0,4.047325730E-1,7.836751243E-1,1.809506253E0,2.013024599E0
7.474776458E0,6.016475004E-1,-3.934673274E-1,1.261733243E0,1.452159437E0
7.484746458E0,-7.259549198E-1,1.400408149E-3,1.076232081E0,1.298186427E0
7.494716458E0,-1.871409409E0,-2.099852085E-1,9.158727765E-1,2.094060627E0
7.504686458E0,-1.953497008E0,4.501511130E-1,2.001478529E-1,2.014657725E0
7.514656458E0,-2.522329788E0,-1.940949322E0,8.343526500E-1,3.290224335E0
7.524626458E0,-1.769534394E0,-2.590258354E0,-7.521776354E-1,3.225904758E0
7.534596458E0,-1.133410833E0,-2.002681594E0,-1.097862686E0,2.549638437E0
7.544566458E0,-8.466537300E-1,-1.736430675E0,8.488151532E-1,2.110095067E0
7.554536458E0,-1.123539125E0,-1.353412030E0,-3.238404375E-1,1.788557217E0
7.564506458E0,-1.297223504E0,-7.007420182E-1,-8.857537687E-2,1.477049015E0
7.574476458E0,-1.028945502E0,-6.742643639E-1,-8.239522076E-1,1.480627745E0
7.584446458E0,-1.680393592E0,4.311175489E-1,-5.363428724E-1,1.815832768E0
7.594417458E0,-2.303440586E0,8.498299375E-1,2.533563459E-1,2.468246117E0
7.604387458E0,-1.897449400E0,7.327344739E-1,-5.405300635E-1,2.104610839E0
7.614357458E0,-1.692562525E0,6.659879225E-1,3.613169968E-2,1.819234265E0
7.624327458E0,-1.287845447E0,-9.393344370E-1,6.046477067E-1,1.704844253E0
7.634297458E0,-3.082684252E-1,-1.293082213E0,5.877206022E-1,1.453446435E0
7.644267458E0,1.896222800E-1,-1.457993575E0,9.977981150E-1,1.776880118E0
7.654237458E0,8.026931933E-1,-1.097492557E0,2.187969625E0,2.576046847E0
7.664207458E0,8.159874228E-1,-2.096144950E-1,2.746972797E0,2.873261780E0
7.674177458E0,-2.289784268E-1,4.929655954E-1,1.186960219E0,1.305496365E0
7.684147458E0,-8.469449213E-1,2.427848139E0,-2.511098456E-1,2.583566999E0
7.694117458E0,-2.208780743E0,3.523289493E-1,5.274767393E-1,2.298060001E0
7.704087458E0,-1.589231261E0,-1.243235284E0,1.473750944E0,2.498645997E0
7.714057458E0,-5.058980285E-1,-6.546566033E-1,2.394599701E0,2.533498729E0
7.724027458E0,-3.679601647E-1,-9.157991016E-1,2.652029217E0,2.829724659E0
7.733997458E0,-1.667825440E0,1.425631868E0,1.880516594E0,2.889707698E0
7.743968458E0,-2.003445825E0,7.741564420E-1,6.090728796E-1,2.232506023E0
7.753938458E0,-2.238976641E0,-6.189166671E-1,-2.353837591E0,3.307056947E0
7.763908458E0,-2.239438279E0,-4.892514440E-1,-2.917310960E0,3.710142048E0
7.773878458E0,-1.028482402E0,-1.099405474E0,-2.297929439E0,2.747170936E0
7.783848458E0,-9.593077947E-1,-1.036219292E0,-3.085043603E-1,1.445405412E0
7.793818458E0,-5.188050261E-1,-3.356158528E-1,-7.928128606E-1,1.005161125E0
7.803788458E0,-8.057990880E-1,-7.820101297E-1,-1.310056973E0,1.725427855E0
7.813758458E0,-1.052672187E0,-3.019852996E-2,-8.006469601E-1,1.322900692E0
7.823728458E0,-5.348319519E-1,1.184841773E-1,1.874795094E0,1.953187231E0
7.833698458E0,-1.581139737E-1,2.008053723E-1,5.361980368E0,5.368068209E0
7.843668458E0,6.406267941E-2,1.554915852E0,2.892712893E0,3.284761059E0
7.853638458E0,-8.092106460E-1,1.922429728E0,2.518471795E-1,2.100948579E0
7.863608458E0,-1.892185005E0,2.676955605E0,-2.017230928E0,3.849113667E0
7.873578458E0,-1.898581128E0,7.435334042E-1,-3.321740062E0,3.897615844E0
7.883549458E0,-1.675562184E0,-5.660335717E-1,-2.756908386E0,3.275430732E0
7.893519458E0,-1.250851283E0,1.346334560E0,-3.073605865E0,3.581102999E0
7.903489458E0,-1.520206926E0,1.587323168E-1,-6.195744789E-1,1.649271834E0
7.913459458E0,-1.367768552E0,-7.608467174E-1,1.176415350E0,1.957966194E0
7.923429458E0,5.729286084E-1,-2.312286692E0,2.707585368E0,3.606374282E0
7.933399458E0,1.293522362E0,2.661038607E-1,2.971309996E0,3.251568000E0
7.943369458E0,1.107719337E0,1.873013739E0,1.398191469E0,2.586534744E0
7.953339458E0,8.441720255E-1,7.030750573E-2,1.814134909E0,2.002162586E0
7.963309458E0,-2.829188450E-1,-8.911481175E-1,2.969876844E-1,9.810146405E-1
7.973279458E0,1.563063070E-1,-9.123673707E-1,6.335329521E-1,1.121699551E0
7.983249458E0,-1.081055157E-1,-2.491188687E-1,8.292930543E-2,2.839441547E-1
7.993219458E0,-3.543691890E-1,-1.932665864E0,-1.095597475E0,2.249690799E0
8.003189458E0,-6.760688147E-1,-3.048884129E0,-7.112219828E-1,3.202904960E0
8.013159458E0,-2.708683182E-1,-2.671301933E0,-6.504471928E-1,2.762662703E0
8.023129458E0,3.113686189E-1,-2.348067267E0,1.912206749E0,3.044159154E0
8.033099458E0,8.554295236E-1,3.622616145E-1,2.709175810E0,2.864022821E0
8.043070458E0,1.216442319E0,-3.532376066E-1,1.768177548E0,2.175077140E0
8.053040458E0,4.767696851E-1,-8.121583736E-1,2.036253675E0,2.243488262E0
8.063010458E0,6.064600512E-1,1.124128963E0,-3.194988799E-1,1.316639379E0
8.072980458E0,-1.271792062E-1,4.781563523E-1,-1.277634162E-1,5.110103113E-1
8.082950458E0,-5.942416363E-1,1.373259819E0,-1.098064415E0,1.855993295E0
8.092920458E0,-5.385754124E-1,1.065941566E-1,-1.738629813E0,1.823255170E0
8.102890458E0,-5.430816422E-1,-6.107253027E-1,-9.658594537E-1,1.265230236E0
8.112860458E0,4.510882755E-1,-9.485774231E-1,-1.103449116E0,1.523443373E0
8.122830458E0,-2.898860217E-1,-1.556748077E0,-5.328555930E-1,1.670758380E0
8.132800458E0,3.934803374E-2,5.247493055E-1,7.930245298E-1,9.517342099E-1
8.142770458E0,3.123682735E-1,1.249191843E0,1.887515126E0,2.284899900E0
8.152740458E0,5.234571440E-1,2.196168591E0,1.735600371E0,2.847713558E0
8.162710458E0,7.047371283E-2,2.179968880E0,-8.206438529E-1,2.330383487E0
8.172680458E0,-5.416643503E-1,8.251576111E-1,-2.561036602E0,2.744666433E0
8.182650458E0,-8.231084543E-1,1.375642852E0,-3.698322385E0,4.030817441E0
8.192621458E0,-1.158786726E0,-1.638533960E0,-2.489406456E0,3.197612346E0
8.202591458E0,-1.235934451E0,-1.198706983E0,-2.185063559E-1,1.735562567E0
8.212561542E0,-7.818790059E-1,-1.386337409E0,1.795717349E0,2.399555582E0
8.222531542E0,-5.309369753E-1,-3.240266129E0,3.402260315E0,4.728275997E0
8.232501542E0,3.414313473E-1,-6.001348257E-2,1.034328010E0,1.090876444E0
8.242471542E0,9.040927566E-1,-1.806709530E0,2.810944260E0,3.461645659E0
8.252441542E0,8.327537289E-1,-1.504099748E0,2.856479452E0,3.333957061E0
8.262411542E0,9.316503916E-1,7.559224847E-1,-8.831751466E-1,1.489761590E0
8.272381542E0,-6.962104261E-2,4.103225112E-1,-1.710142763E0,1.760056796E0
8.282351542E0,4.597811848E-3,1.052245925E0,-2.008782871E0,2.267697345E0
8.292321542E0,-1.379855332E0,-1.691024707E0,6.750458443E-1,2.284568272E0
8.302291542E0,-1.801306264E0,-2.002201830E0,2.090863745E0,3.409578804E0
8.312261542E0,-1.243652191E0,-7.032384869E-1,-1.015269595E-1,1.432313815E0
8.322231542E0,-1.663816735E0,1.682843283E-1,-1.737358629E0,2.411435412E0
8.332201542E0,-7.978560841E-1,-5.813602933E-1,-1.339153302E0,1.663696393E0
8.342171542E0,-5.276607804E-1,-2.229580750E0,-7.266697419E-1,2.403644137E0
8.352141542E0,-7.397430928E-1,1.594550326E-1,-1.070192492E0,1.310708862E0
8.362112542E0,-6.668737757E-1,1.268598167E0,-1.653007865E-1,1.442701040E0
8.372082542E0,-5.806090723E-1,-4.953506747E-1,1.352362162E0,1.552856273E0
8.382052542E0,-7.552560483E-1,7.173978120E-2,8.520966107E-1,1.140888657E0
8.392022542E0,-1.379892462E0,8.012945393E-1,3.482759517E-1,1.633239812E0
8.401992542E0,-1.298270448E0,1.342044750E0,-1.845580065E-1,1.876340034E0
8.411962542E0,-1.151351845E0,-1.225322047E-1,1.121472573E-1,1.163272204E0
8.421932542E0,-9.809728982E-1,-1.479959518E0,-9.243184948E-1,2.001737416E0
8.431902542E0,-7.699764137E-1,-1.029294142E-1,-1.427128170E0,1.624854749E0
8.441872542E0,-9.818369704E-1,-4.123780999E-1,-1.164013991E0,1.577652720E0
8.451842542E0,-8.495165268E-1,4.564199129E-1,-2.714219034E-2,9.647456476E-1
8.461812542E0,-8.624420893E-1,1.184510528E0,1.135941508E0,1.853978063E0
8.471782542E0,-7.358451927E-1,2.111023191E-1,1.698507974E0,1.863051710E0
8.481752542E0,-1.080257743E0,1.627373087E0,7.566127485E-1,2.094698739E0
8.491722542E0,-1.184862384E0,5.795210516E-1,5.580161619E-1,1.432175114E0
8.501692542E0,-1.257253838E0,-3.731985390E-1,1.189341205E-1,1.316855986E0
8.511662542E0,-1.361990919E0,-9.507914713E-1,-8.528152335E-1,1.867168312E0
8.521633542E0,-1.218143274E0,-1.044841011E0,-9.124936706E-1,1.846133926E0
8.531603542E0,-9.302278371E-1,-5.242537540E-1,-1.647505635E-1,1.080420555E0
8.541573542E0,-9.122170973E-1,-1.155395780E0,2.537522024E-1,1.493810437E0
8.551543542E0,-1.052395760E0,-2.889734906E-1,8.678150958E-1,1.394326201E0
8.561513542E0,-1.629313924E0,-2.266947967E-1,7.751811665E-1,1.818504945E0
8.571483542E0,-1.095715735E0,-1.124413723E0,1.881179084E0,2.450251811E0
8.581453542E0,-1.213591509E0,-4.487474889E-1,8.225500453E-1,1.533221196E0
8.591423542E0,-1.026866817E0,-1.332325216E0,3.539600301E-1,1.718962956E0
8.601393542E0,-1.464181976E0,1.574324808E-1,3.533799863E-1,1.514427700E0
8.611363542E0,-1.965721928E0,-1.697417468E-1,8.798363864E-2,1.974997742E0
8.621333542E0,-1.965104901E0,-9.499000633E-1,9.426232034E-1,2.377495721E0
8.631303542E0,-1.743116528E0,4.846938318E-1,-3.111595809E-1,1.835811435E0
8.641273542E0,-1.706714979E0,-1.056141633E-1,-9.420571929E-1,1.952306873E0
8.651243542E0,-1.407474070E0,-9.372420108E-1,8.010890096E-1,1.871135871E0
8.661213542E0,-4.301672302E-1,-1.962250436E0,2.919673235E0,3.544003727E0
8.671183542E0,-3.199135937E-1,-9.170588842E-1,3.932355437E0,4.050526014E0
8.681153542E0,-1.691260350E-1,2.052462741E0,2.079876242E0,2.926959532E0
8.691124542E0,-1.156274178E0,1.896016686E0,2.282230250E0,3.184403266E0
8.701094542E0,-2.292176510E0,1.759225753E0,3.197421241E-1,2.907091919E0
8.711064542E0,-1.905701137E0,6.499443322E-2,-1.568307438E0,2.468908528E0
8.721034542E0,-2.688399191E0,2.179710433E-1,-2.342046681E0,3.572140009E0
8.731004542E0,-2.429296933E0,4.795570529E-1,-1.494906170E0,2.892438938E0
8.740974542E0,-2.090316007E0,-1.070914038E0,2.418373311E-1,2.361093641E0
8.750944542E0,-1.325834514E0,-3.057634780E-1,-1.066046816E-1,1.364805123E0
8.760914542E0,-9.338813236E-1,-1.330528952E0,1.197743654E-1,1.629965495E0
8.770884542E0,-1.150992826E0,1.004955107E-1,1.904502457E-1,1.170963334E0
8.780854542E0,-1.304660285E0,-4.232822800E-1,7.490008432E-1,1.562788729E0
8.790824542E0,-1.506406036E0,-1.281467596E0,7.649432766E-1,2.120508562E0
8.800794542E0,-1.542833020E0,-9.870564875E-1,-2.198786974E-2,1.831692579E0
8.810764542E0,-1.644273294E0,-1.381839438E0,2.126873823E0,3.022698655E0
8.820734542E0,-1.012749153E0,-4.099453658E-1,2.721529807E0,2.932650771E0
8.830704542E0,-7.737810507E-1,-8.908028394E-1,2.935790500E0,3.164037401E0
8.840674542E0,-1.155325174E0,-4.559775710E-2,2.752144074E0,2.985155343E0
8.850644542E0,-7.163273330E-1,7.120028785E-1,1.006498772E0,1.425872619E0
8.860615542E0,-1.668961993E0,-1.998394123E-1,7.620319480E-1,1.845552116E0
8.870585542E0,-2.046791819E0,8.573582277E-1,-1.451610462E0,2.651715070E0
8.880555542E0,-2.310628568E0,-5.895659834E-2,-2.885339554E0,3.696980471E0
8.890525542E0,-2.041440301E0,-4.286155254E-2,-1.870668129E0,2.769244457E0
8.900495542E0,-9.792042616E-1,3.297461253E-1,-8.044780558E-1,1.309487852E0
8.910465542E0,-1.234423677E0,6.711746952E-1,4.797915262E-1,1.484748192E0
8.920435542E0,-8.367748591E-1,8.013135427E-1,2.357580394E0,2.626876638E0
8.930405542E0,2.538143291E-1,3.352208734E-3,4.107956679E0,4.115791665E0
8.940375542E0,-6.175587974E-1,6.101639700E-1,2.417505584E0,2.568659609E0
8.950345542E0,-4.031172797E-2,3.511007416E-1,1.929518015E0,1.961615798E0
8.960315542E0,-1.160757823E0,1.525438869E0,1.572299332E0,2.479203028E0
8.970285542E0,-1.627760903E0,1.555804337E0,4.801043522E-1,2.302310336E0
8.980255542E0,-2.066862241E0,5.512000626E-1,-4.628983355E-1,2.188610495E0
8.990225542E0,-3.425313547E0,5.624226236E-1,-2.681241907E0,4.386131584E0
9.000195542E0,-2.356051055E0,-1.593732301E0,-1.034601075E0,3.026773630E0
9.010165542E0,-1.001988084E0,-1.051301015E0,-6.520773965E-1,1.591985828E0
9.020135542E0,1.717452952E-1,-2.014004142E0,-2.463174677E-1,2.036266541E0
9.030105542E0,9.103781480E-1,-2.342917039E0,4.032304233E-1,2.545710785E0
9.040076542E0,-3.853104615E-1,-3.883846352E-1,1.000825803E0,1.140595925E0
9.050046542E0,-1.672805075E-1,-1.765833107E0,2.654679760E0,3.192722030E0
9.060016542E0,-1.118797326E0,-2.507958502E-2,5.004713738E-1,1.225890712E0
9.069986542E0,-1.861780069E0,4.402734116E-1,-3.641353548E-1,1.947475355E0
9.079956542E0,-1.566432674E0,-2.493261525E-1,-1.271348405E-1,1.591237921E0
9.089926542E0,-2.244377130E0,-1.558420089E0,-1.646166623E-1,2.737334565E0
9.099896542E0,-7.972498740E-1,-2.820074687E0,1.027373332E0,3.105466884E0
9.109866542E0,1.994961807E-1,-2.142979394E0,2.077054961E0,2.991039404E0
9.119836542E0,9.386346714E-1,-9.013547248E-1,1.435525941E0,1.937578415E0
9.129806542E0,9.027672659E-1,1.937207104E0,2.493890101E0,3.284394607E0
9.139776542E0,1.652453549E0,1.674989595E0,-4.445404172E-2,2.353331476E0
9.149746542E0,1.197043450E-1,-2.935673556E-1,-5.091346085E-1,5.997741009E-1
9.159716542E0,-2.275214468E-1,2.782374179E-1,-9.246599722E-1,9.920575254E-1
9.169686542E0,-9.379126865E-1,-8.556204352E-1,1.842246568E0,2.237328530E0
9.179656542E0,-1.231555471E0,1.044065671E0,1.680731853E0,2.330592535E0
9.189626542E0,-4.923381892E-1,2.233667662E0,-1.498058989E0,2.734199856E0
9.199596542E0,5.003754795E-4,4.509796634E-1,-8.802760971E-1,9.890747769E-1
9.209567833E0,3.186622895E-1,-6.670912921E-1,-6.240131003E-1,9.674444667E-1
9.219537833E0,-9.556133777E-2,-1.961661329E0,9.431523764E-1,2.178711441E0
9.229507833E0,8.271725616E-1,-6.812456471E-1,1.090591673E0,1.528953981E0
9.239477833E0,3.860565662E-1,-3.588439170E-1,-4.207785022E-1,6.744354506E-1
9.249447833E0,1.273321840E-1,-4.834042284E-1,9.735906422E-1,1.094427646E0
9.259417833E0,7.448446423E-2,3.722767255E-1,-2.394481587E-1,4.488577909E-1
9.269387833E0,-1.329704787E0,-9.887056947E-2,-1.795161864E0,2.236178956E0
9.279357833E0,-7.944715695E-1,-3.118820044E-1,-2.683603013E-1,8.946914053E-1
9.289327833E0,-6.433170980E-1,-1.620128679E0,8.691605401E-1,1.947848523E0
9.299297833E0,-8.204890479E-1,-3.956933624E-1,1.297538669E0,1.585364977E0
9.309267833E0,2.842328605E-1,-7.782445228E-1,4.205563080E-1,9.291503993E-1
9.319237833E0,-6.311192214E-2,-1.571568722E0,-1.405250813E0,2.109156516E0
9.329207833E0,6.687181337E-1,-2.749659008E-1,-3.465140103E0,3.539772043E0
9.339177833E0,8.325996548E-1,-1.381051818E0,-3.320155467E0,3.691064702E0
9.349147833E0,1.482877278E-1,-4.169532537E-1,-4.834505383E0,4.854717455E0
9.359117833E0,-1.717572820E-1,2.282460630E-1,-4.528948604E0,4.537948026E0
9.369087833E0,1.004984343E-1,-1.770472873E0,1.104051964E0,2.088924332E0
9.379057833E0,2.647924764E-1,-2.155285444E0,6.008557874E0,6.388907428E0
9.389027833E0,-5.975842702E-1,-1.006939067E0,4.813553056E0,4.953920292E0
9.398998833E0,-5.978232752E-1,2.022008980E0,1.668388966E0,2.688760816E0
9.408968833E0,1.183530827E0,6.338656586E-1,5.918662781E-1,1.467254778E0
9.418938833E0,1.690814500E0,-8.661129713E-2,1.268449355E0,2.115494967E0
9.428908833E0,3.115431583E-1,1.786561486E0,2.643385863E-1,1.832685454E0
9.438878833E0,2.374335006E-2,1.247682677E0,-1.638980395E0,2.059983627E0
9.448848833E0,-1.592290085E0,2.332708970E0,-2.512218198E0,3.779968139E0
9.458818833E0,-1.787740724E0,-1.306910586E0,-8.396426260E-1,2.368339484E0
9.468788833E0,-3.266230105E0,-1.230336619E0,-2.157783374E0,4.103415210E0
9.478758833E0,-2.398346597E0,1.478673130E-1,-1.830950332E-1,2.409866165E0
9.488728833E0,-5.473831464E-1,-1.686872891E0,3.888100201E-1,1.815583017E0
9.498698833E0,-1.106892541E-1,-7.340079975E-1,1.196842598E0,1.408350829E0
9.508668833E0,1.049625057E0,-1.556988398E0,3.715529571E0,4.163062049E0
9.518638833E0,7.852449556E-1,-1.907958162E-1,2.120361194E0,2.269128528E0
9.528608833E0,2.937296158E-1,2.476351377E0,1.951702352E0,3.166659960E0
9.538578833E0,6.063622566E-1,4.405412140E-1,7.963089108E-2,7.537193286E-1
9.548548833E0,-5.111901972E-1,-3.106087732E-1,-8.492332292E-1,1.038744581E0
9.558518833E0,-1.472566737E0,-9.868761009E-1,-1.919145640E0,2.612565256E0
9.568488833E0,-1.957488610E0,-1.349572164E0,-2.850650362E0,3.712049861E0
9.578458833E0,-2.169921024E0,-2.200928517E0,-6.972225791E-1,3.168400687E0
9.588429833E0,-1.375923664E0,-3.124843261E0,-2.647040373E-1,3.424599183E0
9.598399833E0,-1.456514522E0,-1.835923681E0,1.413162096E0,2.736617880E0
9.608369833E0,-1.081902272E0,3.461996055E-1,2.100968903E0,2.388396329E0
9.618339833E0,-6.401826981E-1,1.818985174E0,1.120276818E0,2.230148224E0
9.628309833E0,-1.530684406E0,2.714057651E0,1.610833653E0,3.507689943E0
9.638279833E0,-1.877812257E0,1.597657829E0,-1.328711929E0,2.800743616E0
9.648249833E0,-2.677001506E0,8.642406929E-1,-2.558549196E0,3.802554803E0
9.658219833E0,-2.663555834E0,-5.889625508E-1,-2.186200258E0,3.495837258E0
9.668189833E0,-1.952064002E0,-1.619091091E0,5.078230780E-1,2.586482961E0
9.678159833E0,-1.391133295E0,-1.454746909E0,3.671843854E0,4.187359275E0
9.688129833E0,-9.936176482E-1,-4.016496286E-1,1.818040849E0,2.110419623E0
9.698099833E0,-8.548649749E-1,1.088811196E0,1.942048599E0,2.384922788E0
9.708069833E0,-1.208688473E0,-1.547930476E-1,1.747028754E0,2.130023046E0
9.718039833E0,-1.275930429E0,-7.430015999E-1,-6.707107186E-2,1.478021775E0
9.728009833E0,-1.817062902E0,4.665393966E-1,1.034701062E0,2.142424535E0
9.737979833E0,-9.657075723E-1,-1.264305434E-1,1.868458466E0,2.107062609E0
9.747949833E0,-3.440029527E-1,8.091464728E-2,2.007127524E0,2.038000517E0
9.757919833E0,-8.980012004E-1,-2.185291600E-1,6.262788963E-1,1.116416771E0
9.767889833E0,-1.301386721E0,5.393041947E-1,-1.090107524E0,1.781232951E0
9.777859833E0,-2.065163771E0,-8.897035629E-2,-7.146075207E-1,2.187117060E0
9.787829833E0,-2.285055770E0,-2.670862222E0,-1.563661825E0,3.847079826E0
9.797800833E0,-1.640833085E0,-2.059724398E0,-9.839092237E-1,2.811205288E0
9.807770833E0,-9.969602090E-1,-1.946631061E0,4.560284418E-1,2.234113714E0
9.817740833E0,-3.590842375E-1,-2.247415343E-1,1.580594777E0,1.636377125E0
9.827710833E0,-8.365055948E-2,3.714084139E-1,2.167143012E0,2.200329626E0
9.837680833E0,-3.632847311E-1,-5.163921726E-1,4.532732338E-1,7.772343895E-1
9.847650833E0,-4.279489428E-1,8.677823514E-2,8.157263446E-1,9.252460370E-1
9.857620833E0,-3.064249443E-1,-1.795603913E-1,1.881622887E0,1.914848002E0
9.867590833E0,-3.925341117E-1,4.555472159E-1,3.117574003E0,3.175039206E0
9.877560833E0,-4.706999829E-1,-2.198474148E-1,3.400918379E0,3.440368756E0
9.887530833E0,-1.850976607E0,3.093796885E-1,-1.444190345E0,2.368019414E0
9.897500833E0,-2.292070529E0,1.168875951E0,-1.394403058E0,2.926468552E0
9.907470833E0,-1.466530656E0,-3.637979704E-1,-2.010582059E0,2.515054939E0
9.917440833E0,-1.084355033E0,-4.306295988E-1,-2.499274217E0,2.758194935E0
9.927410833E0,-4.284510724E-1,3.375422180E-2,-4.957807374E-1,6.561312434E-1
9.937380833E0,-5.210893871E-1,1.196442649E0,2.653963476E-1,1.331707319E0
9.947350833E0,-2.565984808E-1,2.485671839E-1,1.775921016E0,1.811497690E0
9.957320833E0,2.143589258E-2,-1.915824129E0,4.625995427E-1,1.970999728E0
9.967290833E0,-1.550870164E-1,1.294044957E0,-2.550271878E0,2.863999124E0
9.977260833E0,1.439697053E-1,1.207736838E0,-6.311455339E-1,1.370292024E0
9.987230833E0,3.659798589E-1,-1.545229062E-1,-7.154571211E-1,8.183504615E-1
9.997201833E0,-2.160727447E-1,8.389029533E-2,-1.845730923E0,1.860227850E0
1.000717183E1,5.625112090E-1,-2.321294036E0,1.162639895E0,2.656417961E0
1.001714183E1,-6.168118156E-2,-6.663957658E-1,1.937740955E0,2.050055583E0
1.002711183E1,-7.322226233E-1,-3.741665456E-1,1.912541794E0,2.081818121E0
1.003708183E1,1.085835840E0,-1.848172721E0,1.799853669E0,2.798973939E0
1.004705183E1,4.234660287E-1,1.097668851E0,3.418522006E-1,1.225178889E0
1.005702183E1,6.884136026E-1,4.190372014E-1,1.405522124E0,1.620184528E0
1.006699183E1,4.893933852E-1,7.326020345E-1,2.981799316E-1,9.301198300E-1
1.007696183E1,-3.525846188E-1,8.103188396E-1,9.475149840E-1,1.295653187E0
1.008693183E1,1.072577717E0,-6.877088669E-1,1.202009198E0,1.751625690E0
1.009690183E1,6.566214871E-1,-4.778408951E-1,1.169765312E0,1.424020570E0
1.010687183E1,7.657053881E-1,7.409492272E-1,-8.864887637E-1,1.386063789E0
1.011684183E1,3.546755100E-1,2.231921391E0,-2.416078278E0,3.308277809E0
1.012681183E1,7.016031669E-1,-3.458426329E-1,-2.355504048E-1,8.169076593E-1
1.013678183E1,1.234456275E0,-2.748170891E0,-1.801772141E0,3.510371546E0
1.014675183E1,-2.850716436E-1,4.242795226E-1,-3.209528486E0,3.249977239E0
1.015672183E1,8.957750192E-1,-1.232756197E0,-1.664240366E-1,1.532904983E0
1.016669183E1,3.788712884E-1,-1.654653271E0,2.718434876E-1,1.719104355E0
1.017666183E1,4.395629749E-1,-1.514615673E0,7.359761703E-1,1.740384201E0
1.018663183E1,1.058843339E0,-2.301809651E0,2.067637435E0,3.270260150E0
1.019660183E1,7.075641109E-1,1.513449445E-1,2.458733717E0,2.562991173E0
1.020657183E1,7.291930347E-1,-6.361001721E-1,3.081261039E0,3.229630862E0
1.021654283E1,5.768460236E-1,-9.750273031E-1,-4.099342561E-1,1.204772041E0
1.022651283E1,-2.195920742E-1,2.922967556E-1,-4.894107222E0,4.907743226E0
1.023648283E1,1.104511262E-1,-1.017913999E0,-4.150150187E0,4.274587107E0
1.024645283E1,-5.303388052E-2,-1.711098198E0,-3.084098693E0,3.527369329E0
1.025642283E1,2.120414184E-1,-1.619736038E0,-5.935461831E-1,1.738045877E0
1.026639283E1,4.527175290E-1,-1.299942459E0,6.081268001E-1,1.504866028E0
1.027636283E1,1.948702438E0,1.582610312E0,1.435076875E0,2.891633142E0
1.028633283E1,2.996479044E0,2.306917779E0,4.824654579E-1,3.812286612E0
1.029630283E1,2.785373216E0,-2.866731960E-1,-1.470218641E0,3.162598351E0
1.030627283E1,2.634731984E0,4.657064608E-1,-2.447290131E0,3.626006635E0
1.031624283E1,2.271750577E0,1.382796335E-1,-1.929317456E0,2.983661809E0
1.032621283E1,1.682857024E0,1.330062344E0,-3.513492483E0,4.116515885E0
1.033618283E1,1.763166923E0,-4.967297405E-2,-4.711148429E0,5.030521297E0
1.034615283E1,1.729576569E0,-2.560757397E0,1.062813306E0,3.267795232E0
1.035612283E1,1.476128861E0,-3.122812816E0,8.752058010E0,9.409008221E0
1.036609283E1,1.520191870E0,-7.494282746E-1,1.084511154E1,1.097675135E1
1.037606283E1,2.999293893E0,3.413374410E0,5.127887090E0,6.851431582E0
1.038603283E1,3.366559555E0,4.871297818E-1,6.037304540E0,6.929651129E0
1.039600283E1,2.355768050E0,2.082094091E-1,2.595751521E0,3.511541004E0
1.040597283E1,1.779326873E0,2.241417854E0,6.521113104E-1,2.935167334E0
1.041594283E1,1.720163429E0,7.097739199E-1,-2.621461728E0,3.214778816E0
1.042591283E1,1.370506365E0,1.216290145E0,-5.808138710E0,6.090330425E0
1.043588383E1,1.239380800E0,1.539985279E0,-4.215193444E0,4.655692774E0
1.044585383E1,1.107254995E0,-1.677902386E0,-3.018559592E0,3.626716428E0
1.045582383E1,2.881728606E-1,-1.574770073E0,-2.828270729E0,3.249932261E0
1.046579383E1,1.201204110E0,-1.353561426E0,-5.774751109E-1,1.899604525E0
1.047576383E1,1.319521860E0,-2.372433784E0,1.591332604E0,3.146731551E0
1.048573383E1,8.581847316E-1,-1.543668148E0,2.161043197E0,2.790967589E0
1.049570383E1,6.116557409E-1,9.612208575E-2,-7.017524171E-1,9.358518342E-1
1.050567383E1,6.112266283E-1,2.986381487E0,-2.158071642E0,3.734882272E0
1.051564383E1,1.173106703E0,1.927031487E0,5.528542399E-2,2.256698067E0
1.052561383E1,1.528481760E0,-7.092216504E-1,1.271695729E0,2.111033365E0
1.053558383E1,1.768787486E-1,-8.488458511E-1,7.467052263E-1,1.144287580E0
1.054555383E1,1.017858085E-1,3.094004461E-1,-1.833137190E0,1.861848798E0
1.055552383E1,1.797681867E-1,2.225315207E0,-1.061777179E0,2.472188332E0
1.056549383E1,-8.077216525E-1,1.433242604E0,-9.193822753E-1,1.884638532E0
1.057546383E1,-4.440819955E-1,-7.311472473E-1,3.693434697E-1,9.317723512E-1
1.058543383E1,-4.208582071E-1,1.332929234E0,1.803195938E0,2.281520888E0
1.059540383E1,-1.073927986E0,1.448091023E0,3.362131459E-1,1.833937897E0
1.060537383E1,-1.059953725E0,4.328939915E0,-1.007592201E0,4.569295868E0
1.061534383E1,-2.029993499E0,8.413389033E-1,4.343130523E-1,2.239944773E0
1.062531383E1,-2.945089766E-1,-5.050015041E0,3.768580189E0,6.308057078E0
1.063528383E1,-1.037720418E0,-1.842740073E0,1.129721240E0,2.397670687E0
1.064525483E1,-1.735300993E0,1.577137903E0,8.808245659E-1,2.504892297E0
1.065522483E1,-2.777135951E0,-2.681597418E0,2.366447697E0,4.528081658E0
1.066519483E1,-2.633262579E0,-4.560518891E0,4.291096151E-2,5.266331334E0
1.067516483E1,-2.484206527E0,-1.514370089E0,9.781520551E-1,3.069426702E0
1.068513483E1,-2.229339845E0,-2.982864971E0,2.062466158E0,4.256901013E0
1.069510483E1,5.580173314E-1,-2.085950330E0,3.119829274E0,3.794193830E0
1.070507483E1,-7.118341132E-1,4.576709247E-1,1.039297559E0,1.340264860E0
1.071504483E1,-2.957513637E-1,-2.268071217E0,5.160805160E-1,2.344771847E0
1.072501483E1,-5.352287585E-1,-1.012441590E0,-1.493119261E0,1.881731364E0
1.073498483E1,-1.935647798E0,-8.614889932E-1,-1.914580134E0,2.855610753E0
1.074495483E1,-1.294213649E0,-3.118876178E0,-1.081561233E0,3.545723097E0
1.075492483E1,-1.637439361E0,-2.920598264E0,-1.743315187E0,3.774950294E0
1.076489483E1,-1.361003324E0,-1.230007713E0,-7.898670334E-1,1.997282892E0
1.077486483E1,-2.268958093E0,1.596281979E0,1.276213288E-1,2.777152173E0
1.078483483E1,-1.724679088E0,2.258544056E0,1.497467836E0,3.212156461E0
1.079480483E1,-1.436974589E0,1.379744381E0,2.778857664E0,3.419157856E0
1.080477483E1,-1.703616686E0,1.246266189E0,6.592571926E-1,2.211359146E0
1.081474483E1,-1.395652608E0,-2.573497018E-1,-9.869679022E-1,1.728635506E0
1.082471483E1,-1.847992042E0,-7.744072875E-1,-1.688333818E0,2.620162651E0
1.083468483E1,-2.486738956E0,-4.460083607E-1,-1.840694717E0,3.125852065E0
1.084465483E1,-1.456474030E0,6.821481648E-1,5.334818298E-1,1.694475016E0
1.085462483E1,-1.460739720E0,2.269854325E0,2.947727591E-1,2.715306643E0
1.086459583E1,-1.798547255E0,2.548796333E0,-1.565234726E0,3.490142508E0
1.087456583E1,-2.519004477E0,-3.885606363E-1,-1.227242857E-1,2.551749238E0
1.088453583E1,-2.508000017E0,-3.359294682E0,1.697091193E0,4.522725214E0
1.089450583E1,-1.361764485E0,-4.320954958E-1,2.917741899E0,3.248742345E0
1.090447583E1,-1.436541749E0,4.638762823E-1,2.567085546E0,2.978046609E0
1.091444583E1,-1.245641706E0,-7.143058044E-1,1.630609521E0,2.172727192E0
1.092441583E1,-9.794173926E-1,-2.636202559E-1,3.036252097E0,3.201184291E0
1.093438583E1,-9.894237328E-1,-1.262660320E0,3.292508662E-1,1.637582529E0
1.094435583E1,-2.071129831E0,3.598332658E-1,-5.536260724E-2,2.102884632E0
1.095432583E1,-1.787132759E0,1.724446222E-1,2.430067742E-1,1.811803781E0
1.096429583E1,-1.977781226E0,-1.802215945E0,-3.208232743E-1,2.694907876E0
1.097426583E1,-1.850499035E0,-2.370838371E0,-1.727372754E-1,3.012483930E0
1.098423583E1,-1.044539295E0,-3.408922632E0,-3.980936444E-1,3.587519255E0
1.099420583E1,-1.503928570E0,4.224034435E-1,-1.389411875E0,2.090619806E0
1.100417583E1,-1.247209783E0,-1.783783767E-1,-2.673896635E-1,1.287962857E0
1.101414583E1,-4.577242805E-1,-2.505880986E0,7.499317199E-1,2.655437557E0
1.102411583E1,-1.297983642E0,-3.088782898E-1,2.222052460E0,2.591849623E0
1.103408583E1,-1.455509970E0,7.871089017E-1,2.864451545E0,3.308040561E0
1.104405583E1,-1.926047254E0,1.305853994E0,3.360503594E0,4.087529460E0
1.105402583E1,-2.062044281E0,-4.236871997E-1,3.649460712E0,4.213086867E0
1.106399583E1,-2.104446535E0,-4.522669280E-1,1.255458596E0,2.491870157E0
1.107396583E1,-2.471019886E0,1.707672607E0,6.345515370E-2,3.004348776E0
1.108393683E1,-1.495644820E0,1.367776885E0,-6.323225784E-1,2.123110661E0
1.109390683E1,-1.361366144E0,9.940465415E-1,-2.331027018E0,2.876653136E0
1.110387683E1,-6.964586404E-1,7.874214354E-1,-2.108524091E0,2.356047749E0
1.111384683E1,4.901527923E-1,5.757168531E-1,-2.818341572E0,2.918004262E0
1.112381683E1,1.999922439E-1,1.724872192E0,-4.172936202E0,4.519798394E0
1.113378683E1,2.353702813E0,-2.489054453E-1,-2.559098834E0,3.485808041E0
1.114375683E1,2.619276624E0,-1.303475054E0,-5.475484765E-1,2.976485609E0
1.115372683E1,2.697680769E0,-2.784665703E0,3.224028996E0,5.042440637E0
1.116369683E1,2.795660807E0,-1.456635267E0,4.020924382E0,5.109338366E0
1.117366683E1,1.810758142E0,3.965952954E-1,8.283843970E-1,2.030357995E0
1.118363683E1,3.297243737E0,-6.744602457E-1,-3.415639329E-1,3.382806350E0
1.119360683E1,2.353459277E0,-7.410512611E-1,-4.079368472E-1,2.500867851E0
1.120357683E1,1.254357127E-1,-9.693128192E-1,-1.660036218E-1,9.913922846E-1
1.121354629E1,1.409018466E0,-7.728890580E-1,-1.601041905E0,2.268485335E0
1.122351629E1,5.739071399E-1,1.366725263E-1,-1.997625799E0,2.082920454E0
1.123348629E1,1.523224382E0,-1.129118100E0,-6.623918849E-1,2.008452940E0
1.124345629E1,2.359901446E0,-1.392903832E0,5.937005496E-1,2.803889489E0
1.125342629E1,1.636085000E0,2.189636081E-2,3.913646686E-1,1.682385176E0
1.126339629E1,2.582101488E0,4.375325292E-2,1.526136734E0,2.999709282E0
1.127336629E1,3.011273376E0,1.243231191E0,5.579214370E-1,3.305248474E0
1.128333629E1,1.552026304E0,1.680773076E0,-1.004951014E0,2.498741748E0
1.129330629E1,3.099968621E0,-2.526494175E-2,-1.019554435E0,3.263423818E0
1.130327629E1,1.764075580E0,8.477103218E-1,-1.876073295E0,2.711130106E0
1.131324729E1,1.464862884E0,3.730546975E-1,-1.827517431E0,2.371668830E0
1.132321729E1,2.308767546E0,-1.073691173E0,-1.025126832E0,2.744832479E0
1.133318729E1,1.131901521E0,-5.777259564E-1,-2.720470292E0,3.002653317E0
1.134315729E1,1.692898009E0,-1.210686758E0,6.757744074E-2,2.082362314E0
1.135312729E1,1.920902289E0,-1.757337395E0,1.869095812E0,3.204936736E0
1.136309729E1,1.373365946E0,-1.497124312E0,3.855756328E0,4.358253329E0
1.137306729E1,1.608435563E0,1.797220668E0,3.708532208E-1,2.440204746E0
1.138303729E1,2.631919181E0,1.002365375E0,1.333655165E0,3.116146823E0
1.139300729E1,2.889582878E0,-2.319678158E-1,1.808294125E0,3.416639566E0
1.140297729E1,1.952833495E0,2.411399921E0,-2.506493774E0,3.988849368E0
1.141294729E1,1.753307494E0,2.233635210E0,-3.722017057E0,4.681519453E0
1.142291729E1,2.384563833E0,5.237716511E-1,-3.883500196E0,4.587161997E0
1.143288729E1,2.057816013E0,-1.645326378E0,-4.942099999E0,5.600540869E0
1.144285729E1,1.384834675E0,-3.181555991E0,-3.603396932E0,5.002452903E0
1.145282729E1,2.296352737E0,-1.570900093E0,-7.958060503E-3,2.782269995E0
1.146279729E1,2.222514829E0,-8.327098748E-1,4.208410090E0,4.831531163E0
1.147276729E1,2.751800551E0,-5.758662495E-1,5.926084067E0,6.559153952E0
1.148273729E1,2.499604000E0,1.903526849E0,3.208870674E0,4.490911447E0
1.149270729E1,3.809910064E0,1.913268603E0,2.955502633E0,5.187582024E0
1.150267729E1,3.724709992E0,1.425439494E0,1.764738801E0,4.361151833E0
1.151264729E1,3.223623199E0,9.335775608E-1,1.547183787E0,3.695550197E0
1.152261729E1,2.462746953E0,4.484375864E-1,-8.834803712E-1,2.654572732E0
1.153258729E1,1.228745153E0,2.445060003E-1,-7.624318975E-1,1.466594775E0
1.154255829E1,1.324650746E0,-3.447050571E-1,-2.918842345E-1,1.399541918E0
1.155252829E1,8.214889218E-1,1.108356391E0,-9.773170727E-1,1.690694118E0
1.156249829E1,1.472636465E0,-7.747154358E-1,7.263136464E-1,1.815591826E0
1.157246829E1,1.059394877E0,-6.412401670E-1,6.749774319E-1,1.410354917E0
1.158243829E1,1.216736872E0,1.655779153E0,1.755341740E0,2.702457742E0
1.159240829E1,1.526333931E0,9.024820679E-1,1.629438908E0,2.408161188E0
1.160237829E1,2.321216121E0,1.760425894E0,1.646550200E0,3.346381803E0
1.161234829E1,2.311855752E0,2.127271433E0,-5.245712578E-1,3.185142976E0
1.162231829E1,2.327147976E0,2.675908077E-1,-2.348207307E0,3.316820782E0
1.163228829E1,1.629786817E0,1.319011983E-1,-2.711580185E0,3.166428603E0
1.164225829E1,1.621559785E0,-1.962458012E0,-7.096414804E-1,2.642780471E0
1.165222829E1,4.463920842E-1,-1.117094178E0,9.406328112E-1,1.527074124E0
1.166219829E1,-3.916279760E-1,-6.570717958E-1,9.025826401E-1,1.183119283E0
1.167216829E1,5.390613891E-1,-8.573857096E-1,1.424539023E0,1.747858365E0
1.168213829E1,1.067616867E0,1.569040094E0,5.664232886E-1,1.980537284E0
1.169210829E1,1.249586238E0,1.235416972E0,4.268572676E-1,1.808294220E0
1.170207829E1,1.020282706E0,9.257890695E-1,-2.827643323E-1,1.406420232E0
1.171204829E1,6.460419005E-1,2.099913481E0,-1.215968256E0,2.511092504E0
1.172201829E1,1.270720560E0,7.444601879E-1,-8.644389135E-1,1.707690355E0
1.173198829E1,-1.477408670E-2,-9.813344023E-1,-2.385026640E0,2.579067187E0
1.174195829E1,-2.479370733E-1,-2.831733450E-1,-3.914589842E0,3.932642059E0
1.175192829E1,-9.026015704E-1,-1.912088635E0,-1.122894031E0,2.394089294E0
1.176189929E1,8.716715538E-1,-3.214244557E0,4.714880122E0,5.772458223E0
1.177186929E1,8.005064077E-1,-7.025742432E-1,4.912240022E0,5.026382707E0
1.178183929E1,6.766610646E-1,-6.575278786E-1,3.500039794E0,3.624981609E0
1.179180929E1,1.584602934E-1,2.945526114E-1,2.234366696E0,2.259262145E0
1.180177929E1,-6.354188984E-1,-6.198849660E-1,1.383732474E0,1.643998208E0
1.181174929E1,-9.691338214E-1,-1.397015302E0,1.990216792E-1,1.711864991E0
1.182171929E1,-1.378162855E0,-1.210590279E0,-1.894631773E0,2.637136939E0
1.183168929E1,-4.894937380E-1,-2.439119524E0,-2.419305941E0,3.470151209E0
1.184165929E1,-6.916540564E-1,-2.685346945E0,-7.619658744E-1,2.875772164E0
1.185162929E1,-4.088575279E-1,-2.789269216E0,1.128421404E0,3.036531262E0
1.186159929E1,3.253754047E-1,-1.688149631E0,3.503277397E0,3.902392965E0
1.187156929E1,7.600897953E-1,-8.318585202E-1,3.428570446E0,3.608991604E0
1.188153929E1,5.363071313E-1,1.582338417E0,1.566366747E0,2.290180122E0
1.189150929E1,5.894354078E-1,3.438722967E0,2.032252425E-1,3.494789013E0
1.190147929E1,6.846533313E-1,-6.229535848E-2,1.056676068E0,1.260632861E0
1.191144929E1,-1.624563536E-1,1.794028088E-1,-1.556932849E0,1.575632359E0
1.192141929E1,1.987495552E-2,1.924786448E0,-5.088534744E0,5.440439663E0
1.193138929E1,-8.285979666E-3,4.078617105E-1,-4.615434771E0,4.633428316E0
1.194135929E1,-8.878275203E-2,2.762590125E-1,-3.813304372E0,3.824328916E0
1.195132929E1,9.087468479E-1,-9.774401566E-1,-2.127901179E0,2.511806824E0
1.196129929E1,1.862819850E-1,-1.576016992E0,-4.392837703E-2,1.587595742E0
1.197126929E1,7.720777568E-1,-1.032934326E0,1.266726181E0,1.807664959E0
1.198123929E1,4.532438150E-1,-9.445416749E-2,1.573132560E0,1.639846821E0
1.199121029E1,-2.325463977E-1,1.179091036E-1,1.316629243E-1,2.920881878E-1
1.200118029E1,7.240548670E-1,4.994636062E-1,-7.105472142E-1,1.130750498E0
1.201115029E1,-3.087830167E-1,1.649447788E0,1.105579841E-1,1.681739583E0
1.202112029E1,6.858479905E-1,3.343715653E-1,3.068998843E-1,8.224228528E-1
1.203109029E1,8.002954694E-1,-3.471164489E-1,5.519245327E-2,8.740760117E-1
1.204106029E1,2.718858799E-1,-6.677552435E-1,-3.160209560E-1,7.872027957E-1
1.205103029E1,7.351364370E-1,-4.536728910E-1,-4.072451216E-1,9.550357387E-1
1.206100029E1,-4.792640160E-2,-1.981902051E-1,1.968757510E-1,2.834366926E-1
1.207097029E1,1.068613817E0,-2.455672699E0,2.793799054E0,3.870087473E0
1.208094029E1,9.433138327E-1,3.768056864E-1,2.516467955E0,2.713749155E0
1.209091029E1,1.068017182E0,2.425896631E0,-4.417413551E-1,2.687149156E0
1.210088029E1,6.602348471E-1,2.132469023E0,-1.668536900E0,2.786996515E0
1.211085029E1,-5.996745767E-1,1.141592550E0,-2.127267925E0,2.487591601E0
1.212082029E1,-1.637005863E-1,-1.498782582E0,-2.718271154E-1,1.532004272E0
1.213079029E1,-8.030387637E-1,-1.265642399E0,2.964023196E0,3.321468869E0
1.214076029E1,1.508840926E-1,7.935589653E-1,1.364155996E0,1.585378006E0
1.215073029E1,1.180374354E0,7.069593626E-1,9.129222715E-1,1.651212351E0
1.216070029E1,1.967222031E0,-8.896152699E-1,2.955176944E-1,2.179153174E0
1.217067029E1,1.779893029E0,-7.921135336E-2,1.166533556E0,2.129576054E0
1.218064029E1,7.540280599E-1,1.096678917E0,1.065647451E0,1.704953798E0
1.219061029E1,1.367341267E0,5.252173752E-2,8.067450213E-1,1.588464102E0
1.220058029E1,7.035051200E-1,1.233735605E0,-2.605916905E-1,1.443929024E0
1.221055054E1,9.702389451E-1,-4.516775286E-1,-1.990532541E-1,1.088576317E0
1.222052154E1,4.446585675E-1,6.816499820E-1,-7.724914473E-1,1.122101143E0
1.223049154E1,5.163953885E-1,1.667385876E0,-1.123283456E0,2.075718088E0
1.224046154E1,9.826634744E-1,-6.512687266E-1,-1.473473786E0,1.887035627E0
1.225043154E1,1.168772071E-1,-7.195905179E-1,-2.811024951E0,2.904019985E0
1.226040154E1,1.143611228E0,-1.306628458E0,-2.484447432E0,3.031106004E0
1.227037154E1,9.087818581E-1,-3.304849210E-1,-7.502217418E-1,1.223902533E0
1.228034154E1,1.610002032E0,1.503971109E-1,1.096253532E-1,1.620723158E0
1.229031154E1,1.737211425E0,-3.738183439E-1,1.392189887E0,2.257395927E0
1.230028154E1,1.111009273E0,8.449916589E-1,1.247947848E-1,1.401401530E0
1.231025154E1,1.697907026E0,8.239905068E-1,3.733295166E-1,1.923856427E0
1.232022154E1,4.548883444E-1,6.235125786E-1,-6.166532099E-2,7.742699486E-1
1.233019154E1,6.511710781E-1,-1.818747777E0,1.522688046E0,2.459765464E0
1.234016154E1,-5.743504319E-2,-2.020183187E0,7.007285696E-1,2.139032356E0
1.235013154E1,1.788450850E-2,-8.437725145E-1,-9.362994397E-1,1.260527093E0
1.236010154E1,1.012790559E-1,6.747175232E-1,-1.330623384E0,1.495346038E0
1.237007154E1,9.596502223E-1,-9.886676878E-2,5.000035965E-1,1.086603324E0
1.238004154E1,1.962238011E0,-1.936439072E0,2.909599067E0,4.008234153E0
1.239001154E1,7.318421888E-1,3.783867735E-1,1.430813670E-3,8.238759536E-1
1.239998154E1,1.883509784E0,-4.093583053E-1,1.010379569E0,2.176246815E0
1.240995154E1,1.777860245E0,2.028735325E-1,1.802238164E0,2.539686422E0
1.241992154E1,1.869533769E0,9.865372548E-1,1.225650076E0,2.443487339E0
1.242989154E1,1.176912071E0,4.888564646E-2,1.577454822E0,1.968724345E0
1.243986154E1,1.236308819E0,-1.181441617E-1,5.929345644E-1,1.376222706E0
1.244983254E1,1.913952435E0,7.994836566E-1,6.274939477E-2,2.075168795E0
1.245980254E1,9.886430564E-1,1.157874999E0,-4.641975868E-1,1.591718884E0
1.246977254E1,5.707084206E-1,-1.785888472E0,-8.799129850E-1,2.071075227E0
1.247974254E1,4.461397769E-1,-8.133067667E-1,-8.951046360E-1,1.289077541E0
1.248971254E1,4.895871108E-1,-5.274764469E-1,-7.992401201E-1,1.075505328E0
1.249968254E1,1.079890099E0,-1.621488449E-1,-8.284545636E-1,1.370690278E0
1.250965254E1,1.416534331E0,1.227394885E-1,-8.519036525E-1,1.657520536E0
1.251962254E1,7.574913657E-1,-1.490819551E0,2.957550913E-1,1.698177605E0
1.252959254E1,4.506326677E-1,3.036576033E-1,2.156967688E-1,5.846390658E-1
1.253956254E1,1.634459766E0,2.661418676E-2,1.508395112E0,2.224280301E0
1.254953254E1,8.323621117E-1,8.686810684E-1,1.206668844E0,1.703961027E0
1.255950254E1,1.121336772E0,5.922366992E-1,-1.637705702E-1,1.278656038E0
1.256947254E1,4.810819336E-1,2.923356396E-1,6.257660955E-1,8.417144167E-1
1.257944254E1,3.015416238E-1,1.623374176E0,-2.049536794E-1,1.663814015E0
1.258941254E1,1.153416351E0,1.679824658E0,6.231921512E-1,2.130856311E0
1.259938254E1,9.908841480E-2,2.061903656E0,-7.941138661E-1,2.211759940E0
1.260935254E1,8.217614020E-1,9.890913185E-1,-1.818591657E0,2.227300845E0
1.261932254E1,6.984374113E-1,1.144294256E0,-2.194509151E0,2.571593781E0
1.262929254E1,7.175885043E-1,1.086811156E0,-1.593904794E0,2.058306159E0
1.263926254E1,1.421195000E0,1.584087026E0,-2.312420594E0,3.142676556E0
1.264923254E1,6.357789407E-1,1.114426971E0,-2.111197438E0,2.470489214E0
1.265920354E1,1.963134828E0,-1.571977735E0,9.477798629E-1,2.687619582E0
1.266917354E1,1.158454312E0,-1.439648813E-1,1.266341434E0,1.722313243E0
1.267914354E1,9.824668618E-1,2.327463725E-1,-6.228746474E-2,1.011578834E0
1.268911354E1,3.989629792E-1,-1.936130047E-1,-5.016887641E-1,6.695887322E-1
1.269908354E1,-4.607783543E-1,-2.950033733E0,5.320030689E-2,2.986276275E0
1.270905354E1,4.042784271E-1,-3.167359536E0,1.453550568E0,3.508335322E0
1.271902354E1,-7.794468565E-1,-1.364738964E0,1.920139081E0,2.481327051E0
1.272899354E1,1.066056391E0,-1.387804183E0,4.345058935E0,4.684230334E0
1.273896354E1,3.432047712E-1,6.148016891E-1,2.381094387E0,2.483018549E0
1.274893354E1,2.817345280E-1,-1.207107093E0,1.350725527E0,1.833287028E0
1.275890354E1,8.115183958E-1,5.888058454E-1,-2.801377630E-1,1.041024302E0
1.276887354E1,-2.354238857E-1,5.956894800E-1,-9.866293484E-1,1.176311113E0
1.277884354E1,4.319257803E-1,-9.984500796E-1,-1.662180392E0,1.986531172E0
1.278881354E1,-6.484273452E-1,-9.805473670E-1,-2.601501088E0,2.854774785E0
1.279878354E1,1.716312014E-1,-1.292737812E0,-2.262229264E-1,1.323557756E0
1.280875354E1,2.829287852E-1,2.864413539E-1,1.118422666E0,1.188682719E0
1.281872354E1,8.253409944E-1,-8.236718336E-1,2.765761655E0,3.001509717E0
1.282869354E1,2.952536560E-1,4.677418765E-1,1.619455372E0,1.711313205E0
1.283866354E1,5.780782877E-1,5.974018371E-1,5.796496904E-1,1.013438318E0
1.284863354E1,1.073553472E0,1.525836772E-1,7.183205026E-1,1.300685657E0
1.285860454E1,8.757166576E-2,8.789405930E-1,-2.107830611E0,2.285422334E0
1.286857454E1,1.128579498E-1,-8.968289798E-1,-2.760929516E0,2.905128384E0
1.287854454E1,-6.472952512E-1,-5.202098197E-1,-4.104704458E0,4.187864382E0
1.288851454E1,-1.221576723E-1,-1.615773088E0,-2.845532295E0,3.274553284E0
1.289848454E1,7.423978018E-1,-1.443198365E0,1.017996152E0,1.915800664E0
1.290845454E1,1.081296062E0,-8.684895721E-1,3.216726408E0,3.502970753E0
1.291842454E1,1.831004711E0,-3.178254068E-3,3.460020280E0,3.914630084E0
1.292839454E1,5.615645447E-1,1.773390341E0,3.855554599E-1,1.899716045E0
1.293836454E1,6.669347329E-1,1.849833915E-1,4.010991132E-1,7.999383050E-1
1.294833454E1,4.404306286E-1,3.653945526E-1,-2.144478035E-1,6.111302464E-1
1.295830454E1,3.464255638E-1,1.384472440E0,-1.641085977E0,2.174842015E0
1.296827454E1,2.285437776E-1,1.961693197E0,-2.160629799E0,2.927250174E0
1.297824454E1,-2.504941704E-2,-9.256054670E-2,-9.801330918E-1,9.848125739E-1
1.298821454E1,1.424141266E-1,-1.889430674E0,-4.132139593E-1,1.939323550E0
1.299818454E1,4.146743014E-1,-1.744565322E0,2.251920623E-1,1.807256043E0
1.300815454E1,5.887854532E-1,-1.878836689E0,2.129294570E0,2.900101891E0
1.301812454E1,8.129341529E-1,1.142489513E0,1.858225254E0,2.327905779E0
1.302809554E1,5.573582040E-1,6.292560062E-1,9.719680399E-1,1.285042085E0
1.303806554E1,1.100591070E-1,7.165505505E-1,-8.664205348E-1,1.129708919E0
1.304803554E1,1.929294104E-1,9.784941173E-1,-2.332940227E0,2.537180049E0
1.305800554E1,1.123111621E-1,-5.580728799E-1,-6.959128028E-1,8.990849601E-1
1.306797554E1,-1.057504399E-1,-6.632675055E-1,-2.870234442E-1,7.304035849E-1
1.307794554E1,3.273027566E-1,-1.081050771E0,-1.221413768E0,1.663625396E0
1.308791554E1,7.997354523E-1,-2.295473608E-1,-2.234982993E0,2.384830762E0
1.309788554E1,1.867508586E0,-1.832885468E0,-3.731453294E-1,2.643160020E0
1.310785554E1,1.374389647E0,-2.802373411E0,4.368074745E0,5.368642344E0
1.311782554E1,6.880276863E-1,4.860369372E-1,2.159125310E0,2.317635887E0
1.312779554E1,4.049205976E-1,1.987120983E0,-7.841069412E-1,2.174266356E0
1.313776554E1,7.977516382E-1,2.311480946E0,-6.095172679E-1,2.520091891E0
1.314773554E1,9.990213525E-1,3.027147397E-1,-6.057808971E-1,1.206917715E0
1.315770554E1,3.588086144E-1,2.151661339E-1,2.481149018E-1,4.864165822E-1
1.316767554E1,8.682706670E-1,2.952305961E-1,-4.793196559E-2,9.183422724E-1
1.317764554E1,-1.535409212E-1,5.764954099E-1,1.720572442E-1,6.209069716E-1
1.318761554E1,-6.001965869E-3,7.266609710E-1,-1.011363655E-1,7.336898220E-1
1.319758654E1,1.432146397E0,-1.187749593E0,2.836683703E0,3.392427866E0
1.320755654E1,1.132356215E0,2.197660800E0,1.385696554E0,2.834095717E0
1.321752617E1,2.074469322E0,2.672234271E0,-4.652372217E-1,3.414777392E0
1.322749617E1,8.765755405E-1,1.841910353E0,5.078008586E-1,2.102113255E0
1.323746617E1,6.800890678E-1,1.385572593E0,-1.846461241E0,2.406605839E0
1.324743617E1,1.649081277E-1,-2.147343171E-1,-6.608985060E-1,7.142074998E-1
1.325740617E1,6.009260271E-2,3.115858430E-1,-1.370062854E0,1.406331782E0
1.326737617E1,1.706413409E-1,-7.082241154E-1,-9.436751175E-1,1.192150407E0
1.327734617E1,-8.354974618E-1,-1.701102675E0,-2.169726312E-1,1.907585763E0
1.328731617E1,2.383974872E-1,-3.707158113E0,-1.217331827E-1,3.716809600E0
1.329728617E1,-1.550946543E-1,-1.163713152E0,8.191732782E-1,1.431547244E0
1.330725617E1,9.794084756E-1,-1.087359917E0,2.689574774E0,3.061928317E0
1.331722617E1,1.115821897E0,-1.942546489E0,2.731936097E0,3.532990264E0
1.332719617E1,2.093851380E-3,-7.495241690E-1,4.518073368E-1,8.751689744E-1
1.333716617E1,6.990160663E-1,-2.143709126E-1,5.055865180E-1,8.889297365E-1
1.334713717E1,-1.159045319E-1,1.108839372E0,-2.399445873E-1,1.140408706E0
1.335710717E1,5.388770922E-1,-6.237999693E-1,-3.062479198E-1,8.793763191E-1
1.336707717E1,-2.558878979E-1,-1.742664392E0,-4.884126610E-1,1.827814194E0
1.337704717E1,-7.964938290E-2,-2.008050507E0,-1.562436833E0,2.545549002E0
1.338701717E1,3.759565610E-1,-2.249163660E-1,-1.982341177E0,2.030174192E0
1.339698717E1,3.795870241E-1,3.152625722E-1,-4.948966384E-2,4.959092912E-1
1.340695717E1,-4.406699259E-2,-1.018651625E0,2.369847853E0,2.579878268E0
1.341692717E1,-2.668713809E-1,1.434181082E0,2.001496071E-1,1.472465814E0
1.342689717E1,5.267302691E-1,1.193683055E0,-6.172046024E-1,1.443352186E0
1.343686717E1,9.264631073E-1,4.839585444E-1,-3.517322409E-1,1.102844201E0
1.344683717E1,1.155949438E0,-1.674500183E0,9.516296697E-1,2.246278922E0
1.345680717E1,2.064328203E0,-1.150722392E0,3.250024547E0,4.018491323E0
1.346677717E1,6.556715338E-1,2.208403012E0,1.056838621E0,2.534532875E0
1.347674717E1,2.780953306E-1,1.865203613E0,1.900853210E0,2.677604239E0
1.348671717E1,-1.926610049E-1,8.728828776E-1,2.544269711E-1,9.293954295E-1
1.349668717E1,2.967772577E-2,-1.790607760E0,-8.732541758E-1,1.992418072E0
1.350665817E1,-4.305290632E-1,2.908703274E-1,-5.013794464E-1,7.220402834E-1
1.351662817E1,5.809665564E-2,3.123816490E-2,5.426169348E-1,5.466115460E-1
1.352659817E1,1.172171734E0,-4.296858582E-1,1.987332360E0,2.346935538E0
1.353656817E1,5.819798058E-1,8.597304431E-1,-2.436540610E-1,1.066397783E0
1.354653817E1,6.154206169E-1,-2.151097083E-1,-1.339918703E-1,6.655588205E-1
1.355650817E1,4.730865240E-1,1.314598505E0,-1.296054645E0,1.905711870E0
1.356647817E1,2.289319414E-1,-4.243286392E-1,-1.980774123E0,2.038610005E0
1.357644817E1,7.718543932E-3,-1.580699734E0,-2.789049361E0,3.205848961E0
1.358641817E1,-2.936320769E-1,-1.524953257E0,-2.810530277E0,3.211040746E0
1.359638817E1,-5.510586331E-1,-7.002350646E-1,-1.575107750E0,1.809684831E0
1.360635817E1,8.093628198E-1,-2.922830147E-1,1.155624406E0,1.440821051E0
1.361632817E1,1.663189329E-2,-1.808624785E0,5.869382447E0,6.141746538E0
1.362629817E1,-2.021118595E-1,8.327136755E-1,2.292310849E0,2.447233193E0
1.363626817E1,1.783467652E-1,6.413319683E-1,-9.110312819E-2,6.718735314E-1
1.364623817E1,9.069057059E-2,2.022468864E0,-4.435048753E-1,2.072510955E0
1.365620817E1,1.960669715E-1,6.116395149E-1,-5.334806603E-1,8.349531534E-1
1.366617817E1,1.473041531E-2,-1.625323345E0,2.889109254E-2,1.625646843E0
1.367614917E1,-3.246268149E-2,4.247046152E-1,-1.957292290E0,2.003102829E0
1.368611917E1,-6.067414485E-2,8.178392360E-1,-9.477529657E-1,1.253306847E0
1.369608917E1,-1.289828165E-1,1.344107356E0,-2.410754389E-1,1.371633522E0
1.370605917E1,1.313491846E-1,-1.332322585E0,1.576719242E-1,1.348034315E0
1.371602917E1,-2.082656520E-1,-1.390646515E0,5.553317052E-1,1.511841795E0
1.372599917E1,2.624697066E-1,-5.503475386E-1,-5.465778387E-1,8.188529134E-1
1.373596917E1,4.902291716E-1,3.470456976E-1,8.904981995E-1,1.074128670E0
1.374593917E1,5.073566164E-1,-1.205255280E0,1.173996357E0,1.757361224E0
1.375590917E1,3.943205823E-1,-1.310859503E0,8.347262871E-1,1.603311988E0
1.376587917E1,-2.517936044E-1,1.410485825E-1,7.955084270E-1,8.462436879E-1
1.377584917E1,1.899128135E-1,-1.592047133E0,1.164654846E0,1.981691667E0
1.378581917E1,-1.912630087E-1,-1.189483000E0,5.589306664E-1,1.328101968E0
1.379578917E1,-1.042597216E0,-2.614215859E0,-7.659396422E-1,2.916812823E0
1.380575917E1,-5.833766326E-1,-9.337585321E-1,-2.108986605E0,2.379087597E0
1.381572917E1,-1.184503585E0,-3.424246430E-1,-5.327164292E-2,1.234156087E0
1.382569917E1,-2.468046869E-1,-1.568860000E0,-2.045601618E-1,1.601274215E0
1.383566917E1,-1.813958323E-1,-8.718941134E-1,-8.205222309E-2,8.943357090E-1
1.384564017E1,-3.102028303E-2,-1.967868733E-1,1.425703204E-1,2.449767902E-1
1.385561017E1,2.610884115E-1,1.531995644E0,1.569573945E0,2.208787038E0
1.386558017E1,-1.413698139E-1,8.258086985E-1,1.975735577E0,2.146037395E0
1.387555017E1,6.632028937E-1,-8.776729167E-2,-3.407055616E-2,6.698522065E-1
1.388552017E1,-3.840006121E-1,-6.685925648E-1,-1.186000691E0,1.414591859E0
1.389549017E1,4.283610984E-1,-6.989334744E-1,-1.303599308E0,1.539926098E0
1.390546017E1,2.094993049E-1,1.217842873E0,-3.202876693E-1,1.276563909E0
1.391543017E1,8.174144357E-2,7.696236804E-1,1.748200536E-1,7.934508959E-1
1.392540017E1,4.950008650E-1,8.447472453E-1,6.658838421E-1,1.184071390E0
1.393537017E1,-4.933435448E-1,7.549840066E-1,6.403391111E-1,1.106084482E0
1.394534017E1,1.085510004E-1,1.144457978E-1,-3.685932720E-1,4.009266273E-1
1.395531017E1,-2.266706769E-1,9.272105277E-2,-1.378194577E-1,2.810177793E-1
1.396528017E1,-5.940983064E-2,-1.344202665E0,-4.908509499E-1,1.432251720E0
1.397525017E1,2.728763983E-1,2.364055601E-1,-5.586254418E-2,3.653351084E-1
1.398522017E1,-4.505279660E-3,5.075587839E-2,-3.073273158E-1,3.115229298E-1
1.399519017E1,3.044093359E-1,-5.369349030E-1,-6.737647194E-1,9.137412275E-1
1.400516017E1,-1.662663080E-2,-1.171256060E0,-5.942139351E-1,1.313471508E0
1.401513017E1,2.497590657E-1,-1.977288890E0,-2.403626633E-1,2.007442442E0
1.402510017E1,3.821708722E-1,-9.338868785E-1,8.145639181E-2,1.012341060E0
1.403507117E1,2.275512676E-1,-1.261723596E0,-2.529248214E-1,1.306788803E0
1.404504017E1,5.806058563E-1,-8.327534366E-1,-1.561873162E-1,1.027120209E0
1.405501117E1,5.080355512E-1,-2.012053218E-1,-4.922303081E-2,5.486406926E-1
1.406498117E1,9.124652385E-1,1.019827500E-1,1.708055892E0,1.939187516E0
1.407495117E1,9.601112752E-1,1.733518762E0,3.659731346E-1,2.015151928E0
1.408492117E1,6.907055649E-1,9.967061475E-1,3.304629940E-1,1.256862408E0
1.409489117E1,2.202355237E-1,7.699072704E-1,-5.284655035E-2,8.025295314E-1
1.410486117E1,-5.721675202E-1,6.951210898E-1,-1.711239701E0,1.933626209E0
1.411483117E1,-7.445639759E-2,1.057823292E0,-2.573426267E0,2.783353485E0
1.412480117E1,-4.467106113E-1,5.799116457E-1,-8.602359349E-1,1.129536963E0
1.413477117E1,-1.346841221E0,-1.394565319E0,1.189364009E0,2.274506639E0
1.414474117E1,-5.077191072E-1,7.311621577E-2,-5.026710963E-1,7.181941965E-1
1.415471117E1,-3.961890601E-3,1.352516529E-1,-1.296353438E0,1.303395927E0
1.416468117E1,9.185367680E-1,1.177976557E0,-5.275398892E-1,1.584183354E0
1.417465117E1,1.889421173E0,-8.478483161E-1,1.500935819E0,2.557648816E0
1.418462117E1,2.336460836E0,-1.768955228E0,4.143870277E0,5.075422417E0
1.419459117E1,1.736145624E0,6.029330108E-1,2.671426771E0,3.242568555E0
1.420456117E1,1.391888171E0,1.813320099E0,2.178909364E0,3.158026042E0
1.421453129E1,2.102457020E-1,1.907156801E0,1.587441866E0,2.490265447E0
1.422450129E1,4.258612675E-1,-1.341882783E0,1.743744957E0,2.241127774E0
1.423447129E1,-3.474437102E-1,-1.076872936E-1,-3.081318927E-1,4.767168429E-1
1.424444129E1,-4.480510855E-1,1.171190571E0,-1.150930261E0,1.702080372E0
1.425441129E1,3.363769044E-1,6.203702849E-1,-6.127975559E-1,9.346280312E-1
1.426438129E1,-7.856631046E-1,-1.371332869E-1,-1.708765744E0,1.885723315E0
1.427435229E1,-2.446367586E-1,-1.182389158E0,-2.064999756E0,2.392094325E0
1.428432229E1,-2.841072550E-1,-1.269719955E-1,-2.776321726E0,2.793707420E0
1.429429229E1,3.234556907E-1,1.353262049E-1,-2.482321969E0,2.506962131E0
1.430426229E1,6.875230716E-1,-8.760087991E-1,-1.124896703E0,1.582868277E0
1.431423229E1,7.055221170E-1,-2.653018274E0,2.256440520E-2,2.745319029E0
1.432420229E1,6.205454090E-1,-5.404394317E-1,5.335549200E-1,9.807304607E-1
1.433417229E1,1.095393553E0,8.718993759E-1,6.861280721E-1,1.559123885E0
1.434414229E1,1.686775535E0,-1.379275142E0,8.371318316E-1,2.334181083E0
1.435411229E1,7.866145197E-1,-1.239022073E0,-4.648723555E-1,1.539494855E0
1.436408229E1,5.584522546E-1,-1.287941341E0,-5.491260552E-1,1.507382249E0
1.437405229E1,1.314104123E0,5.983113715E-1,-7.720944214E-1,1.637368602E0
1.438402229E1,-2.504654825E-2,-2.809753767E-1,1.318533096E0,1.348370876E0
1.439399229E1,-1.574942127E0,-1.112813432E0,2.555371234E0,3.201361989E0
1.440396229E1,-1.327988336E0,1.223123494E-1,2.468361157E-1,1.356260078E0
1.441393229E1,1.389773891E-1,2.080320046E0,6.628403664E-3,2.084967660E0
1.442390229E1,1.242127383E0,3.765781420E0,8.443361861E-1,4.054243916E0
1.443387229E1,2.006436968E0,8.706211746E-3,1.571242155E0,2.548463658E0
1.444384229E1,1.699333016E0,-7.515034515E-1,1.656371768E0,2.489188135E0
1.445381229E1,1.733069111E0,1.448788888E0,-1.551620654E0,2.740446029E0
1.446378229E1,2.300822641E0,1.735699189E0,-1.064310193E-1,2.884053408E0
1.447375229E1,1.756503436E0,-4.568046597E-1,7.853950828E-1,1.977579392E0
1.448372229E1,1.734596111E0,-2.284565335E0,1.298654317E0,3.148740300E0
1.449369229E1,9.586455975E-1,-4.886257920E-1,4.459361476E-1,1.164738423E0
1.450366229E1,1.361626491E0,-3.751632035E-2,5.691989619E-1,1.476286433E0
1.451363229E1,1.246462217E0,3.230630502E-1,2.762563813E-1,1.316949270E0
1.452360229E1,3.678414297E-1,-2.512376073E0,2.959188133E-1,2.556346767E0
1.453357229E1,-3.552220054E-2,-1.717278705E0,-6.276038754E-1,1.828713920E0
1.454354229E1,-6.244763459E-1,1.369604140E0,-1.604001766E0,2.199683584E0
1.455351229E1,2.804911541E-1,5.596603990E-1,-1.092483832E0,1.259133025E0
1.456348229E1,1.188253623E-1,-1.000096071E0,-4.029316306E-2,1.007936087E0
1.457345229E1,-6.848582031E-1,-9.282639036E-1,-1.886700025E0,2.211411679E0
1.458342229E1,-1.372695636E-1,7.814540595E-1,-6.552360624E-1,1.029003245E0
1.459339229E1,1.136159317E0,-1.226669830E-1,2.397483548E0,2.655905221E0
1.460336229E1,1.530717735E0,1.828386328E-1,2.004193976E0,2.528501581E0
1.461333229E1,5.772623819E-1,9.773954254E-1,-1.434528991E0,1.829318753E0
1.462330229E1,1.638096734E-1,2.030348572E0,-3.240377811E0,3.827426980E0
1.463327329E1,1.063198857E-1,2.316505166E0,-1.710803499E0,2.881726690E0
1.464324329E1,-1.975478154E-2,-3.930413577E-1,-2.621596799E0,2.650969924E0
1.465321329E1,-2.348260444E-1,-1.183196659E0,-2.793833553E0,3.043123974E0
1.466318329E1,4.328934214E-1,-2.911163490E0,-4.505513549E-2,2.943518225E0
1.467315329E1,1.645156516E0,-4.173441401E-1,4.232079034E0,4.559737826E0
1.468312329E1,5.666302069E-1,8.391166690E-1,4.147329490E0,4.269136737E0
1.469309329E1,2.140306047E-1,2.528224951E-1,1.730620882E0,1.762037727E0
1.470306329E1,-3.356545175E-1,1.534381893E0,3.028150195E-1,1.599590161E0
1.471303329E1,1.517166082E-1,4.367373079E-2,8.154217046E-1,8.305647960E-1
1.472300329E1,-2.897900543E-1,2.006442815E-2,-9.724328935E-1,1.014892403E0
1.473297329E1,-1.039616524E0,-5.963201022E-1,-2.932302051E0,3.167774534E0
1.474294329E1,-3.510725288E-1,-9.165048605E-1,-1.094964806E0,1.470435652E0
1.475291329E1,-2.413170750E-1,-2.574061859E0,1.115569224E0,2.815763321E0
1.476288329E1,1.020647572E0,-1.304638065E0,1.794051477E0,2.441807251E0
1.477285329E1,-2.065511388E-1,6.384691715E-1,5.031254250E-1,8.387141642E-1
1.478282329E1,1.086114460E-1,-2.506148496E0,1.037424695E0,2.714558294E0
1.479279329E1,-1.458777979E0,5.865312785E-1,8.702984083E-1,1.797073024E0
1.480276329E1,-2.369922112E0,1.185484967E-1,3.096012980E-1,2.392997603E0
1.481273329E1,-9.218424913E-1,-7.676715875E-1,-1.982679731E-1,1.215904369E0
1.482270329E1,-9.742118358E-1,-2.338374630E-1,-7.913539803E-1,1.276718364E0
1.483267329E1,-3.531376192E-1,-6.191949946E-1,-3.802204603E-1,8.078837898E-1
1.484264329E1,-5.216498427E-2,1.614065409E-2,4.576259011E-1,4.608721858E-1
1.485261329E1,-1.287523265E-1,-9.922453067E-1,9.643953109E-1,1.389671265E0
1.486258329E1,4.266474257E-1,-6.823200729E-1,6.456939912E-1,1.031750667E0
1.487255329E1,-5.106484526E-1,-8.809435567E-1,-5.438530362E-1,1.154382743E0
1.488252329E1,-3.840979683E-1,-1.038281605E0,2.201400679E-1,1.128725649E0
1.489249329E1,-1.179458826E0,1.321686792E0,-1.014270306E0,2.041255338E0
1.490246329E1,-1.344263769E0,9.413029021E-1,-1.573735408E0,2.273706087E0
1.491243329E1,-1.044624153E0,3.849616751E-1,5.469655091E-1,1.240405732E0
1.492240329E1,-1.479623595E0,5.710080904E-1,2.977402210E-2,1.586260608E0
1.493237329E1,-9.517077300E-1,3.234498435E-1,-2.066218901E-1,1.026187122E0
1.494234329E1,-3.780602065E-1,-1.725484980E0,-3.454803979E-1,1.799884619E0
1.495231329E1,4.868322317E-1,-1.583371035E0,5.991139019E-1,1.761535388E0
1.496228329E1,-4.841779612E-2,-2.072946122E-1,1.308242581E0,1.325448600E0
1.497225329E1,-2.115290196E-1,8.570626509E-1,2.314918524E-1,9.126277398E-1
1.498222329E1,-1.178722369E0,1.160238736E0,1.236830537E0,2.065257883E0
1.499219329E1,-1.646117652E0,-8.803181970E-1,2.820416164E-1,1.887911790E0
1.500216329E1,-1.502649638E0,-1.000247806E0,4.657699031E-1,1.864240653E0
1.501213329E1,-2.030563895E0,-1.910431534E-1,5.555802119E-1,2.113848763E0
1.502210329E1,-9.215217716E-1,-6.143508688E-1,3.043170522E0,3.238443483E0
1.503207329E1,-7.561749382E-1,-5.111483896E-1,1.701193600E0,1.930578379E0
1.504204329E1,-4.730065633E-1,-8.205093670E-1,1.041619488E0,1.407814614E0
1.505201329E1,-9.716123830E-1,8.391520447E-1,5.052789545E-1,1.379678803E0
1.506198329E1,-1.269505363E0,-1.470951882E-1,1.324376804E-1,1.284842636E0
1.507195329E1,-1.401360514E0,7.187394556E-1,-1.073426002E-1,1.578581683E0
1.508192329E1,-2.307981241E0,6.876237899E-2,-1.829738789E0,2.946090581E0
1.509189329E1,-2.191697810E0,5.059458295E-1,-3.129570150E0,3.854053684E0
1.510186329E1,-1.463743873E0,-2.061865649E-1,-2.947259814E0,3.297180528E0
1.511183329E1,-1.281851320E0,-2.730866349E0,8.559709758E-1,3.135834838E0
1.512180329E1,-5.884443413E-1,-6.139898032E-1,1.302829229E0,1.555832324E0
1.513177329E1,-1.146263306E0,7.896919093E-1,9.024329513E-1,1.658890626E0
1.514174329E1,-2.463439263E-1,1.202841842E0,2.335639887E0,2.638698070E0
1.515171329E1,5.911191501E-1,-1.428121027E-1,2.962140393E0,3.023920113E0
1.516168329E1,3.536806794E-1,2.296341920E-1,2.413957493E0,2.450512735E0
1.517165329E1,-5.996177857E-1,8.615378174E-1,1.907583940E0,2.177306912E0
1.518162329E1,-1.030804624E0,2.219068919E0,4.066124529E-1,2.480354556E0
1.519159329E1,-1.759192278E0,1.142267026E0,-1.473692472E0,2.563454882E0
1.520156329E1,-1.027894903E0,-1.468939563E0,-1.736639421E0,2.496050450E0
1.521153342E1,-7.964385729E-1,2.447968993E-1,-3.031230508E0,3.143660019E0
1.522150342E1,-1.066923314E0,-7.294340131E-1,-2.792060677E0,3.076686880E0
1.523147342E1,-2.179394683E0,-4.300059932E-1,-6.269022095E-1,2.308175193E0
1.524144342E1,-2.000635799E0,-1.040231944E0,1.120257522E0,2.517856829E0
1.525141342E1,-1.747610844E0,-2.304364884E0,1.892415678E0,3.456223124E0
1.526138342E1,-1.177952876E0,-4.217286748E-1,2.673504871E-1,1.279415623E0
1.527135342E1,-7.176878339E-1,-6.250679380E-1,2.158751088E-1,9.759035898E-1
1.528132342E1,6.604573336E-1,-1.702137048E0,1.482353368E0,2.351775059E0
1.529129342E1,8.366494364E-1,-3.029022015E0,2.158096200E0,3.812130094E0
1.530126342E1,2.983281586E-1,-7.497475326E-1,1.534578944E0,1.733797447E0
1.531123342E1,3.915975340E-1,-7.162005946E-1,1.433753065E0,1.649830226E0
1.532120342E1,-3.792426597E-1,-8.281084085E-1,1.455735673E0,1.717193897E0
1.533117442E1,-6.940104112E-2,-7.952482259E-1,4.902609658E-1,9.367988364E-1
1.534114342E1,-6.446195653E-1,-1.583092707E0,1.084290714E0,2.024204351E0
1.535111442E1,-9.260024929E-1,1.132711214E0,-1.659299469E-1,1.472429305E0
1.536108442E1,-1.037731674E0,7.040296152E-1,5.371152896E-1,1.364198505E0
1.537105442E1,-4.552433069E-1,1.129383856E0,-3.194047397E-1,1.258877973E0
1.538102442E1,1.400520708E-1,8.601201600E-1,-2.446600744E0,2.597167009E0
1.539099442E1,-3.877740397E-1,6.758913517E-1,-1.805433083E0,1.966414616E0
1.540096442E1,8.945497352E-1,-2.048425823E-1,-9.673920089E-1,1.333426793E0
1.541093442E1,3.102611563E-1,-9.800842676E-1,-1.452343118E-1,1.038229340E0
1.542090442E1,7.880272070E-1,-5.734104189E-1,-5.647334433E-1,1.126370387E0
1.543087442E1,2.579649751E-1,-9.194059566E-1,-1.294584655E0,1.608664872E0
1.544084442E1,2.748015940E-1,3.863255382E-1,-8.362331146E-1,9.612747575E-1
1.545081442E1,5.265900090E-1,-2.570129022E-1,-1.607762110E-1,6.076196668E-1
1.546078442E1,-6.405054644E-2,-9.618318915E-2,1.028279650E0,1.034752491E0
1.547075442E1,-3.322690527E-1,3.676811063E-1,6.089296228E-1,7.851034358E-1
1.548072442E1,-5.263989513E-1,7.318649930E-1,1.215568891E0,1.513383611E0
1.549069442E1,2.339310184E-1,1.266643443E0,5.404318303E-1,1.396844979E0
1.550066442E1,5.562722299E-1,-1.164132982E0,9.866954219E-1,1.624257445E0
1.551063442E1,4.794600622E-1,-9.495609248E-1,-2.691420740E-1,1.097262665E0
1.552060442E1,-3.895137325E-2,-2.455570373E-1,-7.186532092E-1,7.604458581E-1
1.553057442E1,8.923194610E-2,6.596010089E-1,4.796137708E-1,8.204055097E-1
1.554054442E1,4.511409735E-1,-1.548605829E-2,8.670175356E-1,9.774903595E-1
1.555051442E1,-1.000894947E-1,-8.850629202E-1,1.523896081E0,1.765110066E0
1.556048442E1,-3.408334695E-2,8.329648134E-1,-4.868988168E-1,9.654338469E-1
1.557045442E1,-1.317162217E0,1.206332337E0,3.687447149E-1,1.823767166E0
1.558042442E1,-9.746060112E-1,4.534442648E-1,-4.365139443E-1,1.160178004E0
1.559039442E1,-1.392126737E0,-6.249729207E-1,-1.485575184E0,2.129681110E0
1.560036442E1,-6.518444581E-1,4.938014549E-1,-2.473326028E0,2.605011078E0
1.561033442E1,-4.421948797E-1,-1.019799726E0,-1.124329523E0,1.581026460E0
1.562030442E1,-6.552677105E-1,-6.627924192E-1,2.266217065E-1,9.591803590E-1
1.563027442E1,-4.847812477E-1,2.019888487E-1,7.298015106E-1,8.991232385E-1
1.564024442E1,-8.491466904E-1,2.092282864E-1,2.349131168E0,2.506639946E0
1.565021442E1,4.965791747E-2,1.249682132E0,1.344735639E0,1.836432759E0
1.566018442E1,-3.452107682E-1,6.275524199E-3,9.143624407E-1,9.773783964E-1
1.567015442E1,-8.513934830E-1,2.205645758E0,-3.352284747E-1,2.387911682E0
1.568012442E1,-1.324977313E0,5.321936882E-1,-1.561890703E-1,1.436380878E0
1.569009442E1,-1.460095503E0,-7.733199978E-1,6.087945521E-2,1.653362938E0
1.570006442E1,-7.961209229E-1,1.099712160E-1,-1.431666194E0,1.641819199E0
1.571003442E1,-6.586423579E-1,6.589490443E-1,-9.616979903E-1,1.338987163E0
1.572000442E1,-5.529457489E-1,6.110834447E-1,-1.575611780E0,1.778123859E0
1.572997442E1,-1.066849054E0,-2.207701347E0,-1.280498713E0,2.766186742E0
1.573994442E1,-1.299981489E-1,-2.389072328E0,-9.988511986E-1,2.592734044E0
1.574991442E1,1.775144506E-1,-2.732520819E0,8.331697583E-1,2.862228721E0
1.575988442E1,1.199368449E-1,-2.961573797E-1,1.230205057E0,1.271022628E0
1.576985442E1,-5.852989778E-2,-3.770147243E-1,1.395373696E0,1.446593793E0
1.577982442E1,-3.740323520E-1,-3.770480534E-1,1.778636463E0,1.856236273E0
1.578979442E1,3.151546910E-2,-1.103504957E0,7.379355723E-1,1.327880011E0
1.579976442E1,-6.620566933E-1,-6.997716728E-1,4.002962905E-1,1.043185784E0
1.580973442E1,-8.301813926E-1,5.425660640E-2,-2.477436036E-1,8.680563444E-1
1.581970442E1,-1.041519939E0,-1.558653977E0,1.509871534E0,2.407047580E0
1.582967442E1,-7.668563394E-1,-5.238961968E-1,1.484817384E0,1.751347634E0
1.583964442E1,-9.738974749E-1,-6.466400707E-1,1.840230448E0,2.180153154E0
1.584961442E1,-9.295703177E-1,1.811220364E0,8.220179486E-1,2.195525835E0
1.585958442E1,-6.202745368E-1,1.087742325E0,-3.676787674E-2,1.252707365E0
1.586955442E1,-8.538677323E-1,1.123630196E-1,2.058927423E-1,8.854983759E-1
1.587952442E1,-1.129148506E0,-8.120788515E-2,-1.300592085E0,1.724271104E0
1.588949442E1,-3.746369541E-1,1.779576695E-1,-2.922800910E-1,5.073947488E-1
1.589946442E1,-3.163738355E-2,-2.222813183E-1,1.413500065E-1,2.653106346E-1
1.590943442E1,8.855745515E-1,-1.887789069E0,1.574070454E0,2.612601701E0
1.591940442E1,5.872178878E-1,-8.164204091E-2,1.093905875E0,1.244234839E0
1.592937542E1,2.002902326E-1,3.638997120E-1,1.958929510E0,2.002484458E0
1.593934442E1,1.984865858E-1,7.263572082E-1,1.775388919E0,1.928470257E0
1.594931542E1,-4.645928586E-1,-6.292685777E-1,4.477025914E-1,9.012563883E-1
1.595928542E1,-2.191904801E-1,3.313085014E-1,-3.307816672E-1,5.169393591E-1
1.596925542E1,-9.939669462E-1,1.055532061E0,-1.495086849E0,2.082643250E0
1.597922542E1,-8.605627211E-1,9.405363321E-2,-3.991888279E-1,9.532921919E-1
1.598919542E1,-1.123002863E0,1.158380198E0,-1.999635487E0,2.569342755E0
1.599916542E1,-1.285853300E0,-1.739561275E-1,-2.090155063E0,2.460168212E0
1.600913542E1,-7.602918166E-1,1.906461275E-1,-1.771150272E0,1.936843535E0
1.601910542E1,-8.169889046E-1,-1.546490599E0,-1.544502254E0,2.333364793E0
1.602907542E1,1.826925986E-2,-1.385125574E0,-8.074303150E-2,1.387597225E0
1.603904542E1,1.057675796E-1,-8.556581497E-1,6.520241868E-1,1.080959384E0
1.604901542E1,-1.393091820E-1,3.590763438E-1,5.330508900E-1,6.576367692E-1
1.605898542E1,-2.174109531E-1,7.597889560E-1,-6.509523922E-1,1.023858290E0
1.606895542E1,-3.479374710E-1,-4.353322220E-1,3.390800357E-3,5.573025433E-1
1.607892542E1,3.249857609E-1,-2.327653760E-1,9.961012530E-1,1.073318765E0
1.608889542E1,3.527516299E-1,-1.874424380E0,1.408983091E0,2.371314787E0
1.609886542E1,1.757154085E-2,7.371087760E-1,1.297579014E-1,7.486489295E-1
1.610883542E1,-2.593392169E-1,4.215696305E-2,8.380603695E-1,8.782819717E-1
1.611880542E1,2.154549864E-1,1.025060466E0,2.244606341E0,2.476979498E0
1.612877542E1,-1.423993624E-1,1.347924418E0,-1.952595806E-1,1.369417438E0
1.613874542E1,-2.115781362E-1,1.916125260E0,6.289265156E-2,1.928796725E0
1.614871542E1,6.639486330E-1,5.930354288E-1,9.320099223E-1,1.288860467E0
1.615868542E1,1.194478642E0,4.102786571E-2,8.902514470E-1,1.490305389E0
1.616865542E1,1.245482516E-1,1.235229277E0,-1.393117840E0,1.866033480E0
1.617862542E1,-4.487215418E-1,-1.709521204E-2,-2.396961976E0,2.438661515E0
1.618859542E1,-9.886479534E-2,6.132320040E-1,-1.832137901E0,1.934568951E0
1.619856542E1,-4.404213461E-1,-2.355389150E0,-6.041401684E-1,2.471196948E0
1.620853542E1,-1.755502246E-1,-2.419602688E0,2.089872642E0,3.202009167E0
1.621850579E1,6.851868166E-1,-9.187268025E-1,1.813730866E0,2.145497510E0
1.622847579E1,1.285994949E-1,7.093596447E-1,1.243568283E-1,7.315692423E-1
1.623844579E1,1.020775991E0,-4.768924767E-1,-1.256625116E-1,1.133667114E0
1.624841579E1,4.966496336E-1,-2.942242903E0,1.966163101E0,3.573408946E0
1.625838579E1,5.073406097E-1,-3.403085357E-1,1.022204393E-1,6.193976202E-1
1.626835579E1,2.770772573E-1,9.774576983E-1,-2.848558813E-1,1.055148441E0
1.627832579E1,3.963769750E-1,7.257961679E-1,-1.088980181E0,1.367396291E0
1.628829579E1,5.411334962E-1,-1.854876261E0,-2.673107845E0,3.298317292E0
