"Time (s)","Linear Acceleration x (m/s^2)","Linear Acceleration y (m/s^2)","Linear Acceleration z (m/s^2)","Absolute acceleration (m/s^2)"
3.772666678E-3,-1.822449211E0,2.893772408E0,1.017514926E-1,3.421343778E0
1.374266663E-2,-2.630911998E0,1.679057503E0,-8.633852452E-1,3.238265913E0
2.371266665E-2,-2.177806287E0,2.224959111E-1,-2.093644096E0,3.029140184E0
3.368266666E-2,-1.861476013E0,1.402924206E0,-2.106737766E0,3.141915545E0
4.365266667E-2,-1.923178172E0,2.959485757E0,-1.374706128E0,3.787741697E0
5.362266663E-2,-1.950080042E0,2.457047087E0,-1.458532981E0,3.459365695E0
6.359266664E-2,-1.245736285E0,2.129075300E0,-1.551238831E0,2.913959923E0
7.356266666E-2,-3.855441309E-1,2.313333052E0,-7.969690615E-1,2.476956554E0
8.353266667E-2,-5.378095002E-1,1.955899483E0,-2.593257684E-1,2.045001638E0
9.350266663E-2,-4.528354235E-1,1.324249627E0,-5.714630038E-1,1.511709945E0
1.034726666E-1,-2.433688630E-1,1.464299212E0,-5.375924224E-1,1.578735633E0
1.134436667E-1,4.252895560E-1,2.390364271E0,-4.260246241E-1,2.464996863E0
1.234136667E-1,-1.596838050E-2,2.600450343E0,-3.529332590E-1,2.624339700E0
1.333836666E-1,7.453408516E-1,1.679575566E0,-4.317911482E-1,1.887577989E0
1.433542083E-1,1.124390699E0,9.886033684E-1,-9.524640673E-1,1.774479886E0
1.533242083E-1,6.961944924E-1,7.757310972E-1,-5.313949585E-1,1.169968422E0
1.632942083E-1,1.288020571E0,1.234460075E0,-8.453454155E-1,1.974208079E0
1.732642083E-1,1.451521000E0,1.346435425E0,-1.377161373E0,2.411716197E0
1.832342083E-1,2.219385838E0,8.741947004E-1,-9.527230990E-1,2.568573763E0
1.932042083E-1,2.897041879E0,1.505551026E0,-2.062383127E-1,3.271401807E0
2.031742083E-1,2.676484905E0,2.672963127E0,1.160952973E-1,3.784412958E0
2.131442083E-1,2.715967351E0,1.568045483E0,8.947403544E-1,3.261258283E0
2.231152083E-1,2.992565502E0,2.943649158E-1,3.515989244E-1,3.027494144E0
2.330852083E-1,2.825184569E0,9.098559916E-2,1.662375104E-1,2.831533354E0
2.430552083E-1,2.862923668E0,-3.081406635E-1,7.961247236E-1,2.987490113E0
2.530252083E-1,2.688697399E0,-7.330209875E-1,5.641884828E-1,2.843364577E0
2.629952083E-1,2.642398269E0,-1.342959840E0,1.655444984E0,3.395041655E0
2.729652083E-1,2.791433271E0,-1.969246922E0,1.467019629E0,3.717819218E0
2.829352083E-1,2.579843878E0,-2.045289669E0,1.906272994E0,3.804297701E0
2.929052083E-1,2.579545378E0,-2.220260581E0,1.478172024E0,3.710606950E0
3.028752083E-1,1.820706595E0,-2.562378538E0,1.513247132E0,3.488649188E0
3.128452083E-1,1.217555848E0,-2.904696469E0,1.421439999E0,3.455458796E0
3.228152083E-1,8.650652234E-1,-2.647399684E0,1.281482799E0,3.065821439E0
3.327852083E-1,9.235866427E-1,-2.087864124E0,1.183688117E0,2.571634975E0
3.427562083E-1,1.179144100E0,-2.470847101E0,1.030952412E0,2.925462200E0
3.527262083E-1,1.725611865E0,-3.059040743E0,1.169125042E0,3.701664482E0
3.626962083E-1,2.470808217E0,-2.713466789E0,9.922871143E-1,3.801635040E0
3.726662083E-1,6.679830656E-1,-2.728185401E0,4.041525292E-1,2.837699107E0
3.826362083E-1,-5.439321198E-1,-3.107622042E0,2.373811680E-1,3.163783609E0
3.926062083E-1,1.443068521E-1,-1.968880886E0,9.831461620E-1,2.205423494E0
4.025762083E-1,-5.789320908E-1,-1.507589951E0,-7.088638008E-2,1.616482200E0
4.125462083E-1,-8.131104465E-1,-1.459323524E0,-1.018380314E0,1.956494879E0
4.225162083E-1,8.059866009E-2,-1.210753417E0,-1.412496098E0,1.862139953E0
4.324862083E-1,-1.337662409E-1,-9.703153244E-1,-1.146323240E0,1.507800453E0
4.424562083E-1,-1.240770756E-1,-2.299394166E-1,-3.194772452E-1,4.127141459E-1
4.524272083E-1,2.381108092E-1,3.073746783E-1,1.834669161E-1,4.299256442E-1
4.623972083E-1,-5.498677015E-1,-1.722154114E-1,-7.928426814E-1,9.801082361E-1
4.723672083E-1,-1.139420163E0,7.225053549E-2,-1.781479379E0,2.115931763E0
4.823372083E-1,-1.285199582E0,1.359094354E0,-2.065258788E0,2.786425899E0
4.923072083E-1,-1.395296659E0,2.350713132E0,-2.209558715E0,3.514947326E0
5.022772083E-1,-7.837344005E-1,2.250268492E0,-1.421095598E0,2.774429778E0
5.122472083E-1,-2.322632829E-1,2.210158639E0,-8.423598272E-1,2.376618926E0
5.222172083E-1,-1.529741250E-3,1.747695921E0,1.107614672E-1,1.751202865E0
5.321872083E-1,-2.494631235E-1,2.213164693E0,-5.207705677E-2,2.227788551E0
5.421572083E-1,-2.664583847E-1,2.378793508E0,-7.968222964E-1,2.522812794E0
5.521272083E-1,-6.955168001E-2,2.624732953E0,-7.999236596E-1,2.744802064E0
5.620982083E-1,-8.259137291E-1,2.716250064E0,-1.059448818E0,3.030277165E0
5.720682083E-1,1.094114182E-1,2.055625208E0,-6.190505683E-1,2.149602163E0
5.820382083E-1,1.406216627E0,1.639730008E0,-3.279001594E-2,2.160378412E0
5.920082083E-1,8.158133950E-1,1.530057000E0,-8.577046752E-1,1.934498185E0
6.019782083E-1,9.787402850E-1,2.701522390E0,-1.476624851E0,3.230569101E0
6.119482083E-1,1.860098702E0,3.433120457E0,-6.917449075E-1,3.965450072E0
6.219182083E-1,1.597115500E0,3.318364465E0,-3.900817895E-1,3.703307230E0
6.318882083E-1,1.850848991E0,3.201970375E0,3.916897738E-1,3.719096281E0
6.418582083E-1,2.292785936E0,3.055027214E0,6.467084831E-1,3.874053496E0
6.518282083E-1,2.166706518E0,3.035211000E0,-5.175165921E-1,3.764962997E0
6.617982083E-1,2.282729017E0,2.833489662E0,-1.266605728E0,3.852765954E0
6.717692083E-1,2.991459501E0,2.581732529E0,-1.875098564E0,4.373804685E0
6.817392083E-1,2.277937809E0,2.334240063E0,-2.698591765E0,4.233210938E0
6.917092083E-1,2.072225599E0,2.664552492E0,-2.509753012E0,4.206283288E0
7.016792083E-1,2.598433054E0,2.454461448E0,-9.321584415E-1,3.693934853E0
7.116492083E-1,1.426916062E0,2.739911407E0,-1.335732096E0,3.365617952E0
7.216192083E-1,1.431469435E0,3.011448793E0,-1.091251239E0,3.508383936E0
7.315892083E-1,7.884215286E-1,2.638489113E0,-5.836901164E-1,2.814947150E0
7.415592083E-1,-5.981610250E-1,2.943846794E0,-1.183592223E0,3.228764641E0
7.515292083E-1,2.236622845E-1,3.489833771E0,-1.255215937E0,3.715445009E0
7.614992083E-1,-1.110350804E0,3.046520685E0,-2.530271477E0,4.112960118E0
7.714702083E-1,-1.802024594E0,2.437318582E0,-2.392044468E0,3.861306935E0
7.814402083E-1,-2.081360704E0,2.235633788E0,-2.454398591E0,3.918442708E0
7.914102083E-1,-3.323316179E0,2.540377219E0,-2.956880822E0,5.122605884E0
8.013802083E-1,-3.690253812E0,2.748322627E0,-1.323819564E0,4.787875175E0
8.113502083E-1,-5.092262928E0,2.539060426E0,-4.098547339E-1,5.704905826E0
8.213202083E-1,-5.726063683E0,1.508859673E0,6.810222834E-1,5.960558209E0
8.312902083E-1,-6.430578325E0,8.903447101E-1,2.422565764E-1,6.496440529E0
8.412602083E-1,-6.632658098E0,-2.343254131E-1,1.921435994E-1,6.639576869E0
8.512302083E-1,-6.848172433E0,-1.424031192E0,8.726285237E-1,7.048887221E0
8.612002083E-1,-5.588563483E0,-1.531005710E0,9.409725344E-1,5.870387517E0
8.711712083E-1,-4.999026151E0,-2.270080320E0,2.722962375E0,6.128462386E0
8.811412083E-1,-3.885922990E0,-3.222981759E0,3.525058275E0,6.157438165E0
8.911112083E-1,-3.068426986E0,-4.083657405E0,4.571098258E0,6.854665656E0
9.010812083E-1,-2.197777160E0,-4.687977083E0,4.736501956E0,7.017250484E0
9.110512083E-1,-1.064690628E0,-4.434418423E0,3.652997108E0,5.843117383E0
9.210212083E-1,-3.298602922E-1,-4.177738812E0,2.548026547E0,4.904564066E0
9.309912083E-1,1.059954017E0,-4.796083914E0,1.095512105E0,5.032501386E0
9.409612083E-1,3.679072474E-1,-4.862379060E0,2.022750700E-1,4.880471399E0
9.509312083E-1,6.569345324E-1,-4.090797732E0,6.539514291E-1,4.194501345E0
9.609012083E-1,7.216101462E-1,-3.471935737E0,9.549245757E-1,3.672456931E0
9.708722083E-1,1.795248329E-1,-3.132828219E0,6.858216780E-1,3.212038790E0
9.808422083E-1,2.217443612E-1,-3.086073883E0,5.327696389E-1,3.139564629E0
9.908122083E-1,2.391685595E0,-2.316780277E0,1.277868050E-1,3.332260540E0
1.000782208E0,2.571456925E0,-1.283158611E0,-5.361171699E-1,2.923406978E0
1.010752208E0,2.370069170E0,-1.039617986E0,2.804558516E-1,2.603207428E0
1.020722208E0,1.732813734E0,-5.034210017E-1,2.540264368E-2,1.804638866E0
1.030692208E0,1.874055713E0,-6.411743858E-1,-7.088035744E-1,2.103709085E0
1.040662208E0,1.854322091E0,-8.225816202E-1,-5.999173093E-1,2.115431804E0
1.050632208E0,1.624403725E0,3.075015628E-1,-2.589129549E-1,1.673403893E0
1.060602208E0,8.485338291E-1,1.865493635E0,-1.109877545E-1,2.052411860E0
1.070573208E0,6.469235875E-1,2.703360170E0,-1.325756747E-1,2.782847938E0
1.080543208E0,1.110437416E-1,2.761148494E0,-1.990537804E0,3.405658889E0
1.090513208E0,3.849758546E-1,2.355583862E0,-3.179878424E0,3.976004091E0
1.100483208E0,6.535141305E-1,1.974904103E0,-2.906582488E0,3.574289957E0
1.110453208E0,2.777793617E-1,2.489157364E0,-3.141856320E0,4.018000360E0
1.120423208E0,2.203878437E-1,2.301277555E0,-2.652388237E0,3.518467357E0
1.130393208E0,-3.795087811E-1,2.746621087E0,-2.222241910E0,3.553352419E0
1.140363208E0,-9.295477328E-1,3.879194891E0,-1.712469370E0,4.341055556E0
1.150334208E0,-1.128278367E0,4.311648822E0,-8.954689175E-1,4.545898395E0
1.160304208E0,-1.500330925E0,3.459205763E0,-6.489964986E-1,3.826002333E0
1.170274208E0,-1.834099934E0,2.610444697E0,-1.844450383E0,3.685151462E0
1.180244208E0,-1.221809698E0,2.712092986E0,-2.666634393E0,3.994897531E0
1.190214208E0,-1.284746130E0,3.958395135E0,-3.020728909E0,5.142399032E0
1.200184208E0,-3.743823078E-1,5.219709426E0,-3.205333693E0,6.136749358E0
1.210154208E0,5.961912442E-1,5.201543881E0,-2.311623033E0,5.723207474E0
1.220124208E0,6.883165388E-1,5.289269072E0,-1.641563110E0,5.580759484E0
1.230094208E0,1.763324359E0,5.057236353E0,-5.143345374E-1,5.380473245E0
1.240065208E0,1.675716989E0,4.997181939E0,-9.231414503E-1,5.350891972E0
1.250035208E0,1.775176519E0,4.943136710E0,-1.427997651E0,5.442887974E0
1.260005208E0,2.375481060E0,4.609414478E0,-1.268204942E0,5.338347672E0
1.269975208E0,2.214615971E0,4.954225370E0,-1.402840590E0,5.605072224E0
1.279945208E0,2.152183642E0,4.723797711E0,-1.714997122E0,5.466934641E0
1.289915208E0,1.973010190E0,4.283416418E0,-1.577722625E0,4.972889914E0
1.299885208E0,2.095388905E0,3.616289750E0,-1.353424602E0,4.393172473E0
1.309855208E0,2.065299426E0,3.003289003E0,-1.779047522E0,4.055886665E0
1.319825208E0,2.066270064E0,1.984961022E0,-2.012401713E0,3.501328732E0
1.329796208E0,1.742533999E0,4.804686338E-1,-3.737817403E0,4.151933740E0
1.339766208E0,9.172495034E-1,-9.853315589E-1,-3.909093459E0,4.134396764E0
1.349736208E0,5.234629181E-1,-1.960948846E0,-1.402129569E0,2.466840313E0
1.359706208E0,-1.154772686E0,-1.161546758E0,2.239966575E0,2.774912806E0
1.369676208E0,-2.212017469E0,-2.408740023E-1,4.501453827E0,5.021367157E0
1.379646208E0,-3.018097369E0,1.998730338E-1,3.921854423E0,4.952757118E0
1.389616208E0,-3.638424093E0,-3.669271079E-1,2.842826788E0,4.631892650E0
1.399586208E0,-3.103666108E0,-1.983284917E0,1.479557814E0,3.969288815E0
1.409556208E0,-2.788362313E0,-3.924714004E0,1.687509361E0,5.101571546E0
1.419527208E0,-2.987695649E0,-4.705778054E0,1.223867260E0,5.706883865E0
1.429497208E0,-2.775986681E0,-3.479834155E0,3.330761147E-1,4.463887039E0
1.439467208E0,-1.462018506E0,-2.874892041E0,4.065756154E-1,3.250816219E0
1.449437208E0,-1.048820115E0,-2.472475843E0,1.054796188E0,2.885438515E0
1.459407208E0,2.468429862E-1,-2.715748958E0,2.107448788E0,3.446384229E0
1.469377208E0,9.251465336E-1,-2.801612688E0,3.308748719E0,4.433141984E0
1.479347208E0,1.564055927E0,-2.802844697E0,3.728976998E0,4.920109632E0
1.489317208E0,2.295385900E0,-2.552059371E0,3.663822058E0,5.020497539E0
1.499287208E0,1.438406864E0,-1.805603529E0,2.191167467E0,3.182834159E0
1.509258208E0,8.635836120E-1,-1.406934226E0,6.164280921E-1,1.762164625E0
1.519228208E0,1.405961542E-1,-1.053524711E0,5.270738661E-2,1.064170881E0
1.529198208E0,-8.865058668E-2,-1.502788802E0,6.691530204E-1,1.647421887E0
1.539168208E0,9.531414673E-2,-1.603437217E0,6.444438565E-1,1.730723427E0
1.549138208E0,-2.660071624E-1,-5.348749289E-1,-3.099112004E-1,6.729754469E-1
1.559108208E0,-5.404904486E-1,4.274004740E-1,-2.209662795E-1,7.236208861E-1
1.569078208E0,-1.535939299E0,1.899829655E0,-6.022059095E-1,2.516170544E0
1.579048208E0,-1.231192651E0,3.333145641E0,-1.933207608E0,4.045118894E0
1.589018208E0,-1.463288521E0,3.824636861E0,-2.701311890E0,4.905725873E0
1.598989208E0,-1.055716248E0,3.096450351E0,-2.449475820E0,4.086865959E0
1.608959208E0,-9.248715683E-1,1.035305957E0,-1.705609417E0,2.199170145E0
1.618929208E0,-7.095770880E-1,-2.086432725E-1,-9.720042926E-1,1.221402474E0
1.628899208E0,-5.335984086E-1,4.465401649E-2,-1.217386206E0,1.329943765E0
1.638869208E0,-4.968091165E-1,1.432232205E0,-8.553453237E-1,1.740610240E0
1.648839208E0,7.499419525E-3,1.398220705E0,-8.339386672E-1,1.628045172E0
1.658809208E0,-3.373840508E-1,4.957889235E-1,-9.581996012E-1,1.130389813E0
1.668779208E0,-4.834493250E-1,-1.411354136E-1,-8.759082270E-1,1.010375018E0
1.678750208E0,-6.870572678E-1,7.278233975E-2,-1.330165547E-1,7.035896262E-1
1.688720208E0,-1.116651983E0,-2.656878313E-1,3.587446312E0,3.766599623E0
1.698690208E0,-1.739768851E0,1.831140366E-1,4.946812270E0,5.247025637E0
1.708660208E0,-1.380452771E0,1.346644463E0,3.394141456E0,3.903754268E0
1.718630208E0,-1.743084222E0,1.098387181E0,3.346536934E-2,2.060562286E0
1.728600208E0,-2.033178332E0,9.027343753E-1,-2.886218390E0,3.644036234E0
1.738570208E0,-1.814054948E0,-2.304057321E-1,-3.210385687E0,3.694652679E0
1.748540208E0,-1.746836088E0,-1.208233267E0,-2.088212618E0,2.978572793E0
1.758510208E0,-1.527949371E0,-9.839372903E-1,-1.406951183E-1,1.822788245E0
1.768481208E0,-1.942635805E0,-1.034179198E0,1.326737325E0,2.569745593E0
1.778451208E0,-2.409305449E0,-1.228076670E0,2.530204234E0,3.703357735E0
1.788421208E0,-2.867492390E0,-1.130813500E0,2.336257353E0,3.867731919E0
1.798391208E0,-2.632756210E0,-6.100142813E-1,9.276578397E-1,2.857283982E0
1.808361208E0,-2.097345822E0,6.652698845E-2,-1.197968187E0,2.416280844E0
1.818331208E0,-1.858376551E0,-1.467847888E0,-1.364582843E0,2.733171630E0
1.828301208E0,-9.811272646E-1,-2.065613421E0,-2.577277243E-2,2.286926705E0
1.838271208E0,-5.113995640E-1,-9.593982804E-1,7.187976354E-1,1.303320611E0
1.848241208E0,4.028442513E-1,8.769423071E-1,1.345127403E0,1.655499631E0
1.858212208E0,6.910011417E-1,8.188022724E-1,8.534794772E-1,1.369798145E0
1.868182208E0,1.062629703E0,-1.237215284E-1,1.702007532E-1,1.083262295E0
1.878152208E0,1.988471982E0,-7.949798387E-1,-1.485333109E-1,2.146642940E0
1.888122208E0,1.489090530E0,-6.880921519E-1,-5.262108171E-1,1.722718561E0
1.898092208E0,1.478656320E0,-2.439785814E-1,-8.600318670E-1,1.727890295E0
1.908062208E0,2.245927811E0,1.066374260E-1,-1.150595800E0,2.525754139E0
1.918032208E0,2.264736111E0,9.187498990E-1,-8.051557481E-2,2.445324884E0
1.928002208E0,1.466547759E0,5.954272324E-1,1.281993846E0,2.036861345E0
1.937972208E0,1.301962380E0,-6.631721959E-1,2.041484594E0,2.510490539E0
1.947943208E0,1.755705145E0,-1.615790922E0,1.320257440E0,2.726969117E0
1.957913208E0,1.802462258E0,-2.580663658E0,-8.704516053E-2,3.149011269E0
1.967883208E0,1.904454656E0,-8.252842033E-1,1.940176320E-1,2.084630518E0
1.977853208E0,1.264736666E0,1.241580815E0,1.009726435E0,2.039762051E0
1.987823208E0,7.809270792E-1,1.422617043E0,1.903464577E0,2.501372373E0
1.997793208E0,8.041166248E-1,1.178422700E0,6.908157849E-1,1.585089920E0
2.007763208E0,9.661632165E-1,7.953944063E-1,-7.941483647E-1,1.482158982E0
2.017733208E0,9.379037695E-1,5.959730700E-1,-1.778555771E0,2.097166663E0
2.027703208E0,9.423320121E-1,-7.782497853E-2,-1.258779230E0,1.574347960E0
2.037674208E0,8.135988352E-1,-5.042393196E-1,-1.353475472E0,1.657738282E0
2.047644208E0,1.138596583E0,3.010675791E-1,-2.186601961E0,2.483600613E0
2.057614208E0,1.380247972E0,1.164785823E0,-1.090497533E0,2.109738218E0
2.067584208E0,1.970470306E0,1.441272292E0,-1.967044276E-1,2.449226751E0
2.077554208E0,1.908276689E0,1.121631033E0,-5.298039311E-1,2.276020277E0
2.087524208E0,1.899651461E0,3.370069054E-1,-9.820053703E-1,2.164851929E0
2.097494208E0,1.113183487E0,1.478611735E-1,-7.350125492E-1,1.342119164E0
2.107464208E0,8.925672367E-1,4.375032932E-1,-9.573307049E-1,1.380060681E0
2.117434208E0,5.086596319E-1,3.528300557E-1,-8.005627602E-1,1.011990317E0
2.127405208E0,4.878212882E-1,4.687654316E-1,-1.663550395E-1,6.966955133E-1
2.137375208E0,3.759408101E-1,7.347479627E-1,5.142070681E-1,9.724170762E-1
2.147345042E0,-7.959193401E-3,1.140571334E0,5.085826313E-1,1.248848513E0
2.157315042E0,3.488720754E-1,1.725224779E0,2.273268807E-1,1.774764709E0
2.167285042E0,8.954589589E-2,1.893428123E0,-1.203134787E-1,1.899358802E0
2.177255042E0,2.259121469E-1,1.664201482E0,-3.520795655E-1,1.715972870E0
2.187225042E0,3.054380073E-1,1.595702228E0,-7.429133070E-1,1.786470867E0
2.197195042E0,5.547358374E-1,1.369510584E0,-6.108574498E-1,1.598886460E0
2.207165042E0,9.944032947E-1,9.657170740E-1,1.736471021E-1,1.396997028E0
2.217136042E0,1.195551825E0,5.665756086E-1,-4.355082232E-1,1.392845828E0
2.227106042E0,1.364713382E0,7.055747420E-1,-1.752797617E0,2.330789098E0
2.237076042E0,9.284414396E-1,-5.255579755E-1,-1.399675493E0,1.759916526E0
2.247046042E0,1.020436707E0,-5.256462684E-1,-1.264735204E-1,1.154811943E0
2.257016042E0,6.824674959E-1,-3.555007714E-1,1.286716642E0,1.499260617E0
2.266986042E0,8.908588996E-1,3.146152854E-2,8.054902089E-1,1.201429933E0
2.276956042E0,5.648086531E-1,5.821145841E-1,-4.314192653E-1,9.186886230E-1
2.286926042E0,8.789009781E-1,-3.321756434E-1,2.081901133E-1,9.623672432E-1
2.296896042E0,3.251697289E-1,-6.020854568E-1,6.205474555E-1,9.237539686E-1
2.306867042E0,7.033850511E-2,6.008774221E-2,-1.164595789E-1,1.487308831E-1
2.316837042E0,-1.360811170E-1,6.326242948E-1,-1.826369623E0,1.937616466E0
2.326807042E0,-4.388357274E-1,-1.931151143E-1,-1.084787727E0,1.186016297E0
2.336777042E0,-9.447959556E-1,-1.256420756E0,3.769232154E-1,1.616571565E0
2.346747042E0,-1.129503066E0,-8.182728070E-1,1.093641581E0,1.772399354E0
2.356717042E0,-9.169141656E-1,5.109682953E-1,1.409744398E0,1.757611861E0
2.366687042E0,-8.889499298E-1,9.333384097E-2,1.469781269E0,1.720232590E0
2.376657042E0,-2.244574875E-1,-3.039762765E-1,1.030848332E0,1.097921229E0
2.386627042E0,-4.015674387E-1,-2.268342528E-1,7.666477400E-1,8.946837113E-1
2.396598042E0,3.238044772E-1,2.367800742E-1,1.679681693E0,1.726917697E0
2.406568042E0,3.668600111E-1,7.868247271E-1,1.423549089E0,1.667384607E0
2.416538042E0,1.730745683E-2,-2.092423198E-1,-3.412528610E-1,4.006687055E-1
2.426508042E0,-6.499338255E-2,-5.036744785E-1,-1.701668978E0,1.775834855E0
2.436478042E0,2.996333485E-1,-5.101950011E-1,-1.204793057E0,1.342238948E0
2.446448042E0,6.001257260E-1,-6.235704660E-2,-1.358584185E0,1.486536335E0
2.456418042E0,4.235006004E-1,-2.770372769E-1,-2.564857757E-1,5.673511827E-1
2.466388042E0,7.475701757E-1,-2.257381922E-1,5.117524070E-1,9.336538036E-1
2.476358042E0,6.966843429E-1,7.515034515E-1,4.215550125E-1,1.108077226E0
2.486329042E0,8.137796603E-1,7.479913214E-1,-6.436883962E-1,1.279086824E0
2.496299042E0,5.617612305E-1,5.889491022E-1,-1.367077850E0,1.591018093E0
2.506269042E0,6.126930369E-1,-3.853227407E-2,-1.258824254E0,1.400541322E0
2.516239042E0,7.906769458E-3,-3.346762052E-1,-8.103825742E-1,8.768070460E-1
2.526209042E0,4.326789382E-1,7.277649254E-2,-1.107908202E0,1.191624130E0
2.536179042E0,6.674233409E-1,-2.852453059E-1,-5.955529475E-1,9.388834400E-1
2.546149042E0,6.585315531E-1,1.757877678E-2,-4.787115455E-3,6.587835277E-1
2.556119042E0,8.116992941E-1,1.250117165E0,1.232692462E-1,1.495608230E0
2.566089042E0,3.433455064E-1,1.670189908E0,1.274114138E-1,1.709869625E0
2.576059042E0,1.393088166E-2,1.310075099E0,-6.692383897E-1,1.471180090E0
2.586030042E0,-8.440300478E-3,4.523473272E-1,-6.538853556E-1,7.951448933E-1
2.596000042E0,-6.009717084E-1,-1.176667365E-1,7.976186872E-2,6.175551886E-1
2.605970042E0,-6.141020697E-1,3.476482531E-1,1.132787520E0,1.334611639E0
2.615940042E0,-5.795902315E-1,1.241600988E0,1.522986254E0,2.048654431E0
2.625910042E0,-5.134298269E-1,8.158368570E-1,1.343124146E0,1.653233933E0
2.635880042E0,-8.795496536E-1,3.307088694E-1,1.478778380E-1,9.512327814E-1
2.645850042E0,-5.901414225E-1,1.294039695E0,-6.817034841E-1,1.577189041E0
2.655820042E0,-5.401740046E-1,1.253874586E0,-9.837998807E-1,1.682810636E0
2.665790042E0,-8.690233315E-2,1.232954417E0,-1.091113245E0,1.648713657E0
2.675761042E0,1.225442189E-1,7.183146554E-1,-6.649693376E-1,9.864974656E-1
2.685731042E0,4.159165424E-1,4.602472079E-1,-5.229515791E-1,8.113522149E-1
2.695701042E0,7.171985681E-1,7.464935571E-2,-2.032269967E-1,7.491645511E-1
2.705671042E0,6.617872828E-1,-8.332258916E-1,-3.027922153E-2,1.064492661E0
2.715641042E0,9.817462655E-1,-8.450682575E-1,5.574027890E-1,1.410199971E0
2.725611042E0,4.571507417E-1,-1.281559690E0,1.085805143E0,1.740791443E0
2.735581042E0,2.736612408E-1,-7.111825141E-1,1.209864932E0,1.429840620E0
2.745551042E0,-1.642336696E-4,-8.939822629E-1,8.424106979E-1,1.228356665E0
2.755521042E0,1.845614966E-1,-6.728812051E-1,1.160344863E-1,7.073160992E-1
2.765491042E0,2.000436628E-1,-5.474397182E-2,-8.553950250E-2,2.243465533E-1
2.775462042E0,6.622066744E-1,1.514490250E-1,-7.162640369E-1,9.871619205E-1
2.785432042E0,7.929395259E-1,-8.914840400E-2,-7.209154969E-1,1.075369557E0
2.795402042E0,7.798449788E-1,-4.352506533E-1,-8.643623149E-1,1.242869073E0
2.805372042E0,6.424170654E-1,-5.479826322E-1,-1.610369968E-1,8.596031441E-1
2.815342042E0,8.259202342E-1,-4.356163967E-1,4.870198542E-1,1.053135422E0
2.825312042E0,7.427633259E-1,-4.483302900E-1,1.527789157E0,1.756939702E0
2.835282042E0,3.699936070E-1,-6.451852834E-1,8.317658418E-1,1.115792873E0
2.845252042E0,1.459666756E-1,-1.227913533E0,7.020085251E-1,1.421933150E0
2.855222042E0,2.499732566E-1,-7.585864761E-1,1.279995267E0,1.508750462E0
2.865193042E0,1.172071015E0,-2.568895259E-1,6.542028594E-1,1.366647019E0
2.875163042E0,-1.331195388E-2,-2.199886250E-1,-2.416221535E-1,3.270374112E-1
2.885133042E0,-1.480627928E-1,-2.004013297E-1,4.666177493E-1,5.289758100E-1
2.895103042E0,-2.602694907E-1,-2.545690584E-1,3.527286065E-1,5.069152623E-1
2.905073042E0,-6.804193624E-1,-2.943956137E-1,-1.551453424E-1,7.574360457E-1
2.915043042E0,-1.022887494E0,-8.334825844E-2,-3.677360702E-1,1.090172269E0
2.925013042E0,-9.726354995E-1,2.884174204E-1,3.823260427E-1,1.084148341E0
2.934983042E0,-1.085368356E0,1.252068088E0,3.111087102E-1,1.685967851E0
2.944953042E0,-7.176949237E-1,1.094592923E0,-1.761555576E-1,1.320700742E0
2.954924042E0,-4.280788971E-1,1.820247003E-1,-5.554960120E-1,7.245414778E-1
2.964894042E0,-1.516765548E-1,-2.608913603E-1,-6.133688289E-1,6.835871557E-1
2.974864042E0,-3.061296599E-1,3.067098498E-1,-4.304755247E-1,6.108154205E-1
2.984834042E0,-2.098180147E-1,2.018885690E-1,2.160768378E-1,3.625903934E-1
2.994804042E0,-1.124703525E-1,-4.102090752E-1,5.194602066E-1,6.713866039E-1
3.004774042E0,-2.622506553E-1,3.036020547E-2,-7.267270446E-1,7.731942483E-1
3.014744042E0,-5.500738889E-2,-7.886870652E-2,-1.071836729E0,1.076141282E0
3.024714042E0,-2.891286976E-1,5.947059783E-1,-5.312487781E-2,6.633949481E-1
3.034684042E0,-5.302404989E-1,2.274634132E-1,5.835895443E-1,8.206530005E-1
3.044654042E0,-8.861754991E-1,4.380804133E-1,3.515930772E-1,1.049208824E0
3.054625042E0,-3.655146764E-1,4.810843456E-1,-2.072206450E-1,6.387358780E-1
3.064595042E0,-2.790101275E-1,1.273062516E0,-5.306909537E-1,1.407184320E0
3.074565042E0,-1.253140541E-1,8.312507021E-1,-2.337851304E-1,8.725461759E-1
3.084535042E0,1.389568873E-2,4.402029526E-1,-2.350305873E-1,4.992104833E-1
3.094505042E0,8.650312364E-2,3.154558226E-1,-5.096427315E-1,6.055830911E-1
3.104475042E0,2.459384585E-1,3.262366265E-1,-1.905958414E-2,4.089979579E-1
3.114445042E0,3.727125258E-1,2.731234431E-3,6.530720079E-1,7.519475607E-1
3.124415042E0,1.836662696E-1,-2.931501567E-3,5.695609045E-1,5.984492595E-1
3.134385042E0,2.373088818E-2,-1.311235186E-1,2.539843369E-1,2.868180182E-1
3.144355042E0,5.155570805E-1,-3.926466706E-1,3.267160982E-1,7.257505908E-1
3.154326042E0,4.737720370E-1,-3.773447996E-1,6.892686117E-1,9.175730270E-1
3.164296042E0,7.706402919E-1,-1.829555771E-1,6.010031372E-1,9.942655449E-1
3.174266042E0,2.740630541E-1,-4.571908683E-1,4.294130856E-1,6.844922540E-1
3.184236042E0,3.792455833E-1,-6.615744442E-2,-1.560481524E0,1.607266813E0
3.194206042E0,-8.850542955E-2,-5.337385225E-1,-3.261613144E0,3.306180624E0
3.204176042E0,-5.976314865E-2,-1.565916511E0,-2.247843359E0,2.740158010E0
3.214146042E0,-8.884993288E-1,-1.574203770E0,9.074586332E-1,2.022629412E0
3.224116042E0,-6.807275838E-1,-1.163174038E0,2.823827430E0,3.128955935E0
3.234086042E0,-1.012855572E0,-3.834165484E-2,3.535189161E0,3.677622724E0
3.244056042E0,-7.046808489E-3,4.906135529E-1,2.243125826E0,2.296163057E0
3.254027042E0,-1.262793197E-1,1.008673936E-1,1.141672949E0,1.153055862E0
3.263997042E0,-8.247855089E-1,-3.381897971E-1,-3.882095110E-1,9.722911596E-1
3.273967042E0,-1.115293528E-1,-4.880378544E-3,-1.539005871E0,1.543049476E0
3.283937042E0,3.351542516E-1,-3.091493082E-1,-1.179301536E0,1.264378812E0
3.293907042E0,3.785526151E-1,-7.283151484E-1,-9.924163377E-1,1.287880128E0
3.303877042E0,1.210293899E0,-3.345969754E-1,-7.749654043E-1,1.475580508E0
3.313847042E0,1.258367440E0,7.156828237E-1,-5.355266011E-1,1.543528185E0
3.323817042E0,1.117844303E0,-6.006610751E-2,1.832774663E-1,1.134360812E0
3.333787042E0,7.159439018E-1,-2.448363680E-1,2.258223921E-1,7.896304645E-1
3.343757042E0,7.093331860E-1,-3.599347150E-1,1.241103097E0,1.474124644E0
3.353728042E0,6.129552846E-1,-3.902314782E-2,1.986068192E0,2.078870811E0
3.363698042E0,2.976829549E-1,3.906176868E-1,2.085317661E0,2.142369498E0
3.373668042E0,9.253427808E-1,6.255178812E-1,9.275736398E-1,1.451869395E0
3.383638042E0,6.171334125E-1,1.888153642E-1,-1.464879549E-1,6.617881923E-1
3.393608042E0,5.595804383E-1,-1.867486659E-1,-9.652694696E-1,1.131260571E0
3.403578042E0,3.571930287E-1,-4.154423332E-1,-8.921319115E-1,1.046937696E0
3.413548042E0,3.952431633E-1,8.787809640E-2,-4.142109096E-1,5.792325920E-1
3.423518042E0,2.831101220E-1,1.503719094E0,-1.117262578E0,1.894623478E0
3.433488042E0,7.333307438E-1,1.847298270E0,-1.505700715E0,2.493475390E0
3.443459042E0,4.309659599E-1,6.489517674E-1,-1.733981861E0,1.900937440E0
3.453429042E0,3.608735586E-1,-4.985189885E-1,-1.372813969E0,1.504449766E0
3.463399042E0,3.837527633E-3,-8.839560422E-1,-1.221081646E0,1.507459252E0
3.473369042E0,1.871549743E-1,-3.453517592E-1,-6.571381617E-1,7.655882611E-1
3.483339042E0,-6.211469779E-2,-5.187886539E-1,-3.709461915E-1,6.407815385E-1
3.493309042E0,-3.911324062E-2,-1.392388692E-1,-1.836815089E-1,2.337866656E-1
3.503279042E0,-8.388188082E-2,-5.028535295E-1,3.491582966E-1,6.179072407E-1
3.513249042E0,-2.100201456E-1,6.088764131E-2,1.143724152E0,1.164440081E0
3.523219042E0,-3.276955068E-2,1.657153541E-1,9.231753641E-1,9.385031566E-1
3.533189042E0,-1.680921376E-1,6.888479045E-1,-4.263029516E-2,7.103405833E-1
3.543159042E0,-2.086087191E-1,7.343500596E-1,-9.027270663E-1,1.182245222E0
3.553130042E0,-4.841833333E-1,4.084060863E-1,-1.958957577E-1,6.630265300E-1
3.563100042E0,-4.849606841E-1,-6.139304540E-1,7.082410723E-1,1.055321223E0
3.573070042E0,-5.954844620E-2,-1.026446840E0,9.490048546E-1,1.399195965E0
3.583040042E0,-6.411581598E-3,-9.994464451E-1,1.290409743E0,1.632204525E0
3.593010042E0,2.714655382E-1,-1.340264566E0,1.423899922E0,1.974207090E0
3.602980042E0,5.304754107E-1,-7.139593568E-1,9.069452477E-1,1.270311697E0
3.612950042E0,7.454254901E-1,-6.114415866E-1,1.000101918E0,1.389144997E0
3.622920042E0,7.764544708E-1,-3.256106821E-1,6.993690920E-1,1.094541451E0
3.632890042E0,6.469603519E-1,3.097147340E-1,4.694390309E-1,8.572362085E-1
3.642861042E0,3.694562114E-1,-9.960381031E-2,2.293248743E-1,4.461039219E-1
3.652831042E0,2.097936391E-1,-3.115057361E-1,-7.050198412E-1,7.988129763E-1
3.662801042E0,-7.174537717E-2,-4.620908350E-2,-1.333110790E0,1.335839457E0
3.672771042E0,1.794012922E-1,-6.691498044E-1,-9.323122233E-1,1.161530183E0
3.682741042E0,9.032873757E-1,-4.874206808E-1,-1.569796139E-1,1.038339830E0
3.692711042E0,6.966742565E-1,-6.413799155E-1,2.515641743E-1,9.797998517E-1
3.702681042E0,6.395077832E-1,1.109354219E-1,3.661245775E-1,7.452006970E-1
3.712651042E0,9.691275721E-2,7.391719660E-1,1.388362885E-1,7.583157606E-1
3.722621042E0,6.584009364E-3,9.166150805E-1,1.698586911E-1,9.322438147E-1
3.732591042E0,-1.657098540E-1,4.754511380E-1,-2.188291222E-1,5.489988389E-1
3.742562042E0,-3.472175326E-1,2.901113588E-1,-9.206271476E-1,1.025806493E0
3.752532042E0,-2.899808197E-1,1.140554962E-1,-2.212258374E0,2.234095935E0
3.762502042E0,2.814985928E-1,6.297363549E-2,-2.319351298E0,2.337220054E0
3.772472042E0,-2.796015551E-1,5.388402182E-1,-1.038346217E0,1.202783720E0
3.782442042E0,-2.129367368E-1,7.483380613E-1,8.643652385E-1,1.162961381E0
3.792412042E0,-5.164489271E-1,1.862060443E0,1.913145227E0,2.719211879E0
3.802382042E0,-4.869567408E-1,2.050649227E0,1.612787792E0,2.653935490E0
3.812352042E0,-1.759346060E-1,1.403675573E0,1.974107713E-1,1.428365889E0
3.822322042E0,2.529297915E-1,3.625551447E-1,-1.067812675E-1,4.547768150E-1
3.832292042E0,1.182895290E-1,-4.058090454E-1,8.418289000E-1,9.419921926E-1
3.842263042E0,1.803227220E-1,-2.513259880E0,1.513301862E1,1.534135730E1
3.852233042E0,-2.650484566E-1,-3.363683894E-1,1.939430683E1,1.939903430E1
3.862203042E0,-1.372781809E0,8.919775450E-1,1.722864200E1,1.730624913E1
3.872173042E0,-1.889439153E0,2.453573549E0,1.417611008E1,1.451041352E1
3.882143042E0,3.303905470E0,3.297733149E0,-1.164452649E1,1.254535103E1
3.892113042E0,1.224780229E0,-5.694094616E-1,-5.551091602E0,5.713049249E0
3.902083042E0,1.309283824E0,1.895859103E0,-1.202334303E0,2.598867763E0
3.912053042E0,9.165229138E-1,1.806564519E0,-7.595498049E0,7.860997407E0
3.922023042E0,-2.008351931E0,-1.854924208E0,-1.546937970E1,1.570910340E1
3.931993042E0,-2.594965948E0,-4.672764382E0,-1.570441204E1,1.658906666E1
3.941964042E0,-2.067733914E0,-5.024735189E0,-7.454742120E0,9.224785490E0
3.951934042E0,-1.435275680E0,-3.450561824E0,3.549192658E0,5.153946227E0
3.961904042E0,-5.352520743E-1,-2.620303687E0,-4.859275943E-1,2.718200107E0
3.971874042E0,7.180916572E-1,-2.072564299E0,-9.309131016E0,9.564052419E0
3.981844042E0,7.824904054E-1,-2.845496919E0,-1.370361880E1,1.401778557E1
3.991814042E0,3.203078056E-1,-4.568828369E0,-1.608349054E1,1.672290219E1
4.001784042E0,-4.601642688E-2,-5.544870164E0,-1.366124988E1,1.474372581E1
4.011754042E0,8.634462755E-1,-4.384195811E0,-3.510492861E0,5.682453036E0
4.021724042E0,9.169799468E-1,-1.252351386E0,4.700671973E0,4.950308396E0
4.031694042E0,1.662912683E-1,9.556364742E-1,-1.241156892E0,1.575234677E0
4.041664042E0,-3.100195201E-1,3.914088736E0,-1.060609724E1,1.130953144E1
4.051635042E0,1.404439219E0,-1.477685243E0,1.146325345E1,1.164311740E1
4.061605042E0,4.607662652E0,-7.252091074E0,4.978144926E1,5.051748282E1
4.071575042E0,2.871126142E0,4.139028198E0,4.010840508E1,4.042349661E1
4.081545042E0,3.145514777E-1,1.985595152E0,-1.350368145E1,1.365250686E1
4.091515042E0,-2.003023510E0,-1.863551132E1,-1.840091635E1,2.626572115E1
4.101485042E0,-3.892013450E0,-1.802969300E1,3.223557710E0,1.872455400E1
4.111455042E0,1.770156246E0,-3.896692684E-1,2.655307167E0,3.214957453E0
4.121425042E0,3.035087039E0,2.698510489E0,7.306518711E0,8.359361691E0
4.131395042E0,1.632353745E0,6.402218744E-1,5.385254626E0,5.663517474E0
4.141365042E0,1.807167659E0,-5.094547436E-1,-1.182208187E0,2.218786894E0
4.151336208E0,1.686389181E0,5.099646208E-1,1.576328648E0,2.364060995E0
4.161306208E0,2.259289393E-1,5.463924819E0,-1.446984730E0,5.656790886E0
4.171276208E0,5.910518340E-1,5.826549253E0,6.842002451E-1,5.896282596E0
4.181246208E0,-7.034007472E-1,3.769604037E0,-5.346734923E-1,3.871764836E0
4.191216208E0,-1.093228914E0,7.715985775E-2,-3.419882069E0,3.591197080E0
4.201186208E0,-8.051807450E-1,-4.741754217E0,-4.656137239E0,6.694188755E0
4.211156208E0,6.023189800E-1,-6.766652892E0,-5.812181475E0,8.940460447E0
4.221126208E0,1.952718744E0,-5.724570889E0,-5.917867559E0,8.461972513E0
4.231096208E0,-1.463410162E-1,-2.698744377E0,-4.310076798E0,5.087376427E0
4.241066208E0,-4.571665292E-1,3.773356780E0,-2.294023499E0,4.439568271E0
4.251037208E0,-6.634785169E-1,4.094159589E0,-1.681191444E-2,4.147605227E0
4.261007208E0,-9.824484430E-1,-1.767038218E0,-3.117554122E-1,2.045683369E0
4.270977208E0,-5.928273045E-1,1.205640553E1,-6.310446110E0,1.362094301E1
4.280947208E0,-1.433040728E0,2.960918675E1,-5.308373095E0,3.011538429E1
4.290917208E0,1.045179273E0,3.189245196E1,2.964321989E-1,3.191095053E1
4.300887208E0,9.020509089E-1,-3.394446096E0,9.988619574E0,1.058812926E1
4.310857208E0,2.422212739E0,-1.659159604E1,6.679291397E0,1.804885335E1
4.320827208E0,2.151289895E0,-2.000238451E1,-4.583280932E0,2.063322318E1
4.330797208E0,2.335666199E0,2.160290660E0,-1.283646269E1,1.322486169E1
4.340767208E0,3.273864522E0,8.177499490E0,-5.811231303E0,1.055272932E1
4.350737208E0,2.729064822E0,3.626372104E0,4.033505836E0,6.071864522E0
4.360708208E0,2.710979969E0,3.274814987E-1,1.077526772E1,1.111589182E1
4.370678208E0,-1.029378676E-2,1.057869485E-1,8.509150053E0,8.509813833E0
4.380648208E0,-6.717586128E-1,8.492101327E-1,-3.169547564E-1,1.128218862E0
4.390618208E0,-1.049077758E0,-8.608145168E-1,-4.667150470E0,4.860438178E0
4.400588208E0,-1.774382759E0,-2.493999736E0,-2.559023405E0,3.989620239E0
4.410558208E0,-9.623894966E-1,-2.286077718E0,2.018605024E0,3.197985478E0
4.420528208E0,-6.935446805E-1,-2.418043528E0,3.608655333E0,4.398901231E0
4.430498208E0,-6.451683265E-1,-1.765571152E0,1.692413421E0,2.529376771E0
4.440468208E0,8.698080461E-1,-8.111497289E-1,-2.655208933E-1,1.218618589E0
4.450438208E0,1.582685010E0,-1.680407625E0,-4.083139926E-1,2.344223101E0
4.460409208E0,1.995335444E0,-3.919937121E0,-4.460250252E-1,4.421109463E0
4.470379208E0,1.475826560E0,-5.075970247E0,-3.711607844E-1,5.299179022E0
4.480349208E0,7.867630389E-1,-3.361456982E0,-8.638845974E-1,3.558747774E0
4.490319208E0,6.406505484E-1,-1.323021127E0,-7.862493610E-1,1.667035118E0
4.500289208E0,9.612796220E-1,-1.333152890E0,1.565071589E-1,1.651014727E0
4.510259208E0,7.847269654E-1,-2.973427565E0,1.751550406E0,3.539067210E0
4.520229208E0,2.263526432E-1,-3.418228768E0,4.538374316E0,5.686155544E0
4.530199208E0,-3.662177310E-1,-2.153596768E0,6.144293969E0,6.521076816E0
4.540169208E0,-8.831073189E-1,-9.290333971E-1,4.319049350E0,4.505237938E0
4.550139208E0,1.533224363E-1,-4.848739260E-1,-9.128848493E-2,5.166663151E-1
4.560110208E0,3.525261832E-1,-2.844091541E-1,-4.336004521E0,4.359598432E0
4.570080208E0,1.246070015E0,-1.126042172E-1,-5.582353740E0,5.720842899E0
4.580050208E0,1.626332575E0,-5.224013561E-1,-3.302615574E0,3.718216031E0
4.590020208E0,8.970910813E-1,-1.052021685E0,1.217552851E0,1.842269519E0
4.599990208E0,-3.382849240E-1,-2.583039674E-1,4.725319741E0,4.744449840E0
4.609960208E0,-7.522862475E-1,1.640586917E0,4.904481352E0,5.226030746E0
4.619930208E0,-6.063887883E-1,2.082922057E0,2.361909673E0,3.207006230E0
4.629900208E0,-3.662818311E-1,1.019871354E-2,-7.162348008E-1,8.045238862E-1
4.639870208E0,4.173946272E-2,-1.630069823E0,-3.052913153E0,3.461090656E0
4.649840208E0,6.415674649E-1,-6.074207488E-1,-3.343343185E0,3.458108216E0
4.659810208E0,1.545159773E0,1.188380800E0,-1.993036904E0,2.787824196E0
4.669781208E0,1.724828776E0,1.483000947E0,4.926337659E-2,2.275247898E0
4.679751208E0,5.810990690E-1,4.320800006E-1,9.718288761E-1,1.211949099E0
4.689721208E0,5.825600598E-2,-2.924815276E-1,1.573244242E0,1.601260957E0
4.699691208E0,-7.366043074E-1,4.343788335E-1,-8.491648167E-1,1.205135579E0
4.709661208E0,-7.424996895E-1,2.276265505E-1,-2.564727364E0,2.679728734E0
4.719631208E0,-1.369196443E-1,5.551592124E-1,-2.040394673E0,2.118999566E0
4.729601208E0,7.352325963E-2,1.650010290E0,-7.476893127E-1,1.813002740E0
4.739571208E0,6.891328101E-1,2.405575510E0,1.442820343E0,2.888499282E0
4.749541208E0,4.082865107E-1,7.612010586E-1,3.339122665E0,3.449038286E0
4.759511208E0,-4.644127643E-1,-1.561845388E0,3.031212382E0,3.441407958E0
4.769481208E0,-1.292589439E0,-2.826895756E0,1.130781925E0,3.307687234E0
4.779452208E0,-9.713844877E-1,-2.082202849E0,-3.979468793E-1,2.331848676E0
4.789422208E0,-2.604401746E-1,-2.494948447E-2,-1.648818335E0,1.669447053E0
4.799392208E0,4.695358023E-1,8.635363957E-1,-1.869648374E0,2.112284077E0
4.809362208E0,1.140681335E0,1.187150254E0,-3.493413144E-1,1.683008908E0
4.819332208E0,1.903578013E0,5.538055819E-1,1.708410818E0,2.617055100E0
4.829302208E0,5.662649387E-1,-1.076650742E0,3.013522800E0,3.249792681E0
4.839272208E0,-6.127396685E-1,-1.939783972E0,2.623919898E0,3.320115569E0
4.849242208E0,-1.281707332E0,-1.689966653E0,1.287354573E0,2.481137395E0
4.859212208E0,-1.446265815E0,-7.571091771E-1,-1.666690350E-2,1.632536952E0
4.869182208E0,-6.591399559E-1,4.475543645E-1,-4.927752686E-1,9.368019300E-1
4.879152208E0,3.929159349E-1,4.607155699E-1,-9.111441332E-1,1.093995155E0
4.889123208E0,6.204042719E-1,-8.247301796E-1,-3.138387752E-1,1.078691850E0
4.899093208E0,3.570568617E-1,-1.149766080E0,4.229887497E-1,1.276076457E0
4.909063208E0,-3.635500485E-1,-9.402787623E-1,7.114821839E-1,1.233896141E0
4.919033208E0,-8.723902497E-1,-5.805536699E-1,6.479995483E-1,1.232075779E0
4.929003208E0,-7.422360532E-1,-2.606527939E-1,-9.309995234E-2,7.921627603E-1
4.938973208E0,-5.337913302E-1,3.887632424E-1,-9.728000987E-1,1.175759361E0
4.948943208E0,9.169473851E-2,1.180313689E0,-1.626840405E0,2.012003488E0
4.958913208E0,2.361494338E-1,5.258310404E-1,-1.162978449E0,1.297992184E0
4.968883208E0,6.031538162E-2,-6.485693595E-1,-3.625741482E-2,6.523762407E-1
4.978853208E0,-5.045888369E-1,-8.846159005E-1,7.167288905E-1,1.245333485E0
4.988824208E0,-4.938447243E-1,-6.206740478E-1,9.794518912E-1,1.260335230E0
4.998794208E0,-6.248824351E-1,-7.343494749E-1,1.160700374E0,1.508964071E0
5.008764208E0,-3.134941549E-1,-7.324792430E-1,8.324786174E-1,1.152312924E0
5.018734208E0,6.585249385E-2,-4.998989314E-2,-1.010162053E0,1.013539793E0
5.028704208E0,6.946997979E-1,6.019454160E-1,-1.677502436E0,1.912840954E0
5.038674208E0,7.749473510E-1,2.665710533E-1,-8.502138072E-1,1.180875540E0
5.048644208E0,3.993710783E-1,-3.434031746E-1,-1.071777087E-1,5.375035439E-1
5.058614208E0,-2.555736466E-1,-6.001839423E-1,1.545617902E-1,6.703939144E-1
5.068584208E0,-9.331095643E-1,-3.560647354E-1,5.386168545E-1,1.134717441E0
5.078554208E0,-6.478013277E-1,-6.241861778E-1,4.783045793E-1,1.018837679E0
5.088524208E0,-6.407893467E-1,-8.097338256E-1,1.863829225E-1,1.049294262E0
5.098495208E0,2.972157989E-3,-6.726128179E-1,1.577348987E0,1.714773065E0
5.108465208E0,2.478688254E-1,3.499675512E-2,1.485409707E0,1.506355113E0
5.118435208E0,9.621005711E-1,4.462866881E-1,7.606052274E-1,1.305116711E0
5.128405208E0,8.427978567E-1,-1.663015375E-1,-2.780830514E-1,9.029366601E-1
5.138375208E0,1.164082476E0,-3.733406264E-1,-6.359151077E-1,1.377991023E0
5.148344917E0,1.054329581E0,-3.467340410E-1,-1.004782029E0,1.497138032E0
5.158314917E0,5.978824051E-1,-6.627956352E-1,-3.226329875E-1,9.491330091E-1
5.168284917E0,1.551382891E-1,-7.022935769E-1,2.240419149E-1,7.533119782E-1
5.178254917E0,-4.960232872E-1,-4.973124155E-1,-1.059626573E-1,7.103427517E-1
5.188224917E0,-2.633194349E-1,9.316164047E-2,-5.167067528E-2,2.840529436E-1
5.198194917E0,7.561764000E-1,-9.415683657E-2,4.843435836E-1,9.029158127E-1
5.208164917E0,5.686861245E-1,-1.053158383E0,1.463137078E0,1.890321824E0
5.218135917E0,5.858626494E-1,-1.022877700E0,1.668252726E0,2.042689646E0
5.228105917E0,3.918617185E-1,-3.078105882E-1,8.725647891E-1,1.004824500E0
5.238075917E0,7.063503020E-1,-2.362772137E-1,-1.857999551E-1,7.676452919E-1
5.248045917E0,7.066600583E-1,-4.090217981E-1,-9.378787726E-1,1.243496627E0
5.258015917E0,1.376569197E0,-5.273194492E-1,-1.212649376E0,1.908802521E0
5.267985917E0,1.099124661E0,-7.422236279E-1,-1.115601969E-1,1.330945759E0
5.277955917E0,6.681420368E-1,-2.345212948E-1,1.022128379E-1,7.154449548E-1
5.287925917E0,3.964827730E-1,-8.922968030E-2,-2.631486779E-1,4.841567431E-1
5.297895917E0,-3.631678233E-2,5.938432217E-3,-5.969843459E-1,5.981174491E-1
5.307865917E0,7.274908828E-2,8.038263837E-1,-8.650312364E-1,1.183092695E0
5.317836917E0,1.269455186E-2,6.720421296E-1,-4.623434347E-1,8.158205852E-1
5.327806917E0,-4.940400213E-2,-1.009548095E-1,1.154883564E-1,1.611526898E-1
5.337776917E0,-4.724311242E-1,-1.232178784E0,6.526416528E-1,1.472208155E0
5.347746917E0,-5.900466611E-1,-1.227378805E0,1.463969137E0,1.999454783E0
5.357716917E0,-5.214394526E-1,-5.367983705E-1,1.264646326E0,1.469483557E0
5.367686917E0,2.019395311E-1,1.107725769E-2,3.652053952E-1,4.174652807E-1
5.377656917E0,4.532078546E-1,-3.822295636E-2,-7.315369642E-1,8.613969374E-1
5.387626917E0,6.326915377E-1,-4.980029717E-1,-1.269093134E0,1.502964712E0
5.397596917E0,6.833635817E-1,-1.585569003E-1,-1.099996920E0,1.304652942E0
5.407566917E0,2.932563202E-1,-2.148489225E-1,-8.183704555E-2,3.726347151E-1
5.417536917E0,1.068652299E-1,-3.907942727E-1,8.440637058E-1,9.362605836E-1
5.427507917E0,-4.884152922E-1,-7.973052764E-1,1.816521742E0,2.043036084E0
5.437477917E0,-8.875305182E-1,-7.049868044E-1,1.763417330E0,2.096272285E0
5.447447917E0,-1.052597051E0,-7.409968820E-1,1.296486170E0,1.826995708E0
5.457417917E0,-6.449863319E-1,-7.027522910E-1,-8.597190410E-1,1.284128101E0
5.467387917E0,-2.680588042E-1,-2.459569868E-1,-2.101999767E0,2.133249489E0
5.477357917E0,4.385191738E-1,-2.228403121E-1,-1.106727650E0,1.211116411E0
5.487327917E0,5.029887829E-1,-1.183909727E0,2.938389587E0,3.207611779E0
5.497297917E0,-1.484532132E-1,-1.354399625E0,4.945179142E0,5.129447675E0
5.507267917E0,-3.048843491E-1,-7.343257937E-1,4.845127435E0,4.909933676E0
5.517237917E0,-5.291819701E-2,7.694380313E-1,1.793130541E0,1.951961156E0
5.527207917E0,6.737561678E-1,1.190133211E0,-2.004833077E0,2.426874553E0
5.537178917E0,9.334014865E-1,6.732413936E-1,-3.474642997E0,3.660278168E0
5.547148917E0,1.198328668E0,5.321659139E-1,-3.675894805E0,3.902741956E0
5.557118917E0,9.248951764E-1,3.399077091E-1,-2.118359107E0,2.336324816E0