"Time (s)","Linear Acceleration x (m/s^2)","Linear Acceleration y (m/s^2)","Linear Acceleration z (m/s^2)","Absolute acceleration (m/s^2)"
8.274166612E-4,9.264702702E-1,1.233958384E-1,7.601187390E-1,1.204721624E0
1.079741667E-2,1.202475806E0,8.809040880E-1,6.670111853E-1,1.633047457E0
2.076741669E-2,1.401821421E0,1.025500176E0,-7.368895054E-2,1.738442973E0
3.073741670E-2,5.866456281E-1,-1.144563813E0,1.076051402E0,1.676921594E0
4.070741666E-2,1.415959184E-1,-1.084551792E0,2.100145031E0,2.367891708E0
5.067741667E-2,8.855549634E-2,7.212309542E-1,-4.288020515E-1,8.437341789E-1
6.064741669E-2,-1.659359403E-2,8.700349912E-1,-1.114992104E0,1.414370399E0
7.061741670E-2,4.322750053E-1,7.780302224E-1,1.098996461E0,1.414208587E0
8.058741671E-2,2.293999014E-1,-8.303481844E-1,2.646145749E0,2.782838434E0
9.055841668E-2,2.967931183E-1,6.396774986E-1,1.347677958E-1,7.179385880E-1
1.005284167E-1,-1.924371296E-1,1.977962197E0,-1.660779399E0,2.589894730E0
1.104984167E-1,-1.175128086E-1,5.015984246E-1,-1.332255342E0,1.428395791E0
1.204684167E-1,-8.480183970E-2,4.929404524E-1,8.919167340E-2,5.080716448E-1
1.304384167E-1,-4.980231811E-1,1.070344227E0,-3.424492013E-1,1.229201086E0
1.404084167E-1,-1.997082519E-1,1.004473881E0,-6.086051023E-1,1.191323354E0
1.503784167E-1,8.390027945E-1,2.431406754E-1,-3.519556046E-1,9.417620850E-1
1.603484167E-1,1.283945062E0,-1.207440969E0,-8.704527748E-1,1.965735651E0
1.703184167E-1,1.187139582E0,-3.089066488E-1,-7.861990750E-2,1.229188674E0
1.802884167E-1,1.534734187E0,4.287877259E-1,4.002155989E-1,1.642997403E0
1.902584167E-1,1.548656408E0,7.473253235E-1,-9.326577938E-1,1.956190780E0
2.002284167E-1,1.686856227E0,2.218448237E-1,-1.573786279E0,2.317650169E0
2.101984167E-1,1.701402345E0,-1.180672416E0,-1.461681122E0,2.534811432E0
2.201694167E-1,1.220251488E0,-9.208563584E-1,-2.198038530E-1,1.544442896E0
2.301394167E-1,1.136234746E0,1.298480947E0,3.346747434E-1,1.757580540E0
2.401094167E-1,1.244339531E0,1.358619853E0,-7.392137736E-1,1.985111024E0
2.500794167E-1,3.533571091E-1,2.280171445E-1,-1.516181265E0,1.573422604E0
2.600494167E-1,7.779623216E-1,-7.219060153E-1,-1.444323662E0,1.792329353E0
2.700194167E-1,9.055308062E-1,-2.187337541E0,1.210630918E-1,2.370461523E0
2.799894167E-1,6.012419594E-1,3.470655781E-1,-3.047709131E-1,7.581765749E-1
2.899594167E-1,4.519238791E-1,2.907452554E0,-1.767910915E0,3.432641046E0
2.999294167E-1,1.075265682E-1,1.414803117E0,-8.884008032E-1,1.674062666E0
3.098994167E-1,3.852404411E-1,-5.701710615E-1,8.830862689E-1,1.119529631E0
3.198694167E-1,1.036088168E0,1.971698660E-1,5.736510319E-1,1.200595750E0
3.298394167E-1,8.821260099E-1,1.059302053E-1,-1.729629779E-1,9.051429155E-1
3.398094167E-1,6.038679440E-1,-7.779211718E-1,8.198509705E-1,1.281395121E0
3.497794167E-1,6.105467068E-1,-9.036450791E-1,2.593517885E0,2.813481247E0
3.597504167E-1,3.797401115E-4,1.420461175E0,1.409593540E0,2.001165671E0
3.697204167E-1,4.943985653E-1,1.982848715E0,1.292180865E0,2.417819339E0
3.796904167E-1,1.215187360E-1,2.087945985E0,1.415863509E0,2.525659263E0
3.896604167E-1,2.410463124E-1,3.603367111E-1,1.386463124E0,1.452661648E0
3.996304167E-1,-6.331281055E-2,-3.504563785E-1,-1.290093994E0,1.338346255E0
4.096004167E-1,-1.768018211E-1,1.685006753E-1,-2.160429239E0,2.174190852E0
4.195704167E-1,-3.643330637E-2,5.533293262E-1,-1.156643575E0,1.282702261E0
4.295404167E-1,1.689320171E-1,3.193509454E-1,-1.203286815E0,1.256352742E0
4.395104167E-1,-1.330634421E-1,1.775566090E0,-2.277036168E0,2.890542255E0
4.494804167E-1,-1.280108996E-1,7.451864120E-1,-1.192795740E0,1.412250423E0
4.594504167E-1,2.196419217E-1,-7.977809474E-1,5.792982727E-1,1.010090839E0
4.694204167E-1,3.510484456E-1,-1.219058217E0,2.927595627E-1,1.301939365E0
4.793904167E-1,3.801048316E-2,-1.053743105E0,-3.716800171E-1,1.118018499E0
4.893614167E-1,7.222521704E-1,1.791751183E0,-5.541037899E-1,2.009739164E0
4.993314167E-1,9.194750268E-1,2.871449201E0,7.156582654E-2,3.015920507E0
5.093014167E-1,6.985800833E-1,-4.607398358E-1,6.505278844E-1,1.059944271E0
5.192714167E-1,7.973751506E-1,-1.761021726E0,-3.627144814E-1,1.966867165E0
5.292414167E-1,-3.277104172E-1,-1.096030753E0,-1.926672760E0,2.240702000E0
5.392114167E-1,-8.954140998E-2,1.354377113E0,-1.238440275E0,1.837413765E0
5.491814167E-1,1.000887199E0,2.772954315E-1,8.262074786E-1,1.327134786E0
5.591514167E-1,7.220135310E-1,-1.698303029E0,2.094305416E0,2.791353058E0
5.691214167E-1,7.924091835E-1,-1.473068282E0,5.072184759E-1,1.747888171E0
5.790914167E-1,2.568336120E-1,2.191132969E-1,2.877730572E-1,4.436073416E-1
5.890614167E-1,-6.327962760E-2,1.168153819E-1,1.421513674E0,1.427708398E0
5.990314167E-1,1.849546670E-1,5.062373132E-2,1.660801034E0,1.671834641E0
6.090014167E-1,2.943020217E-1,-3.885620981E-1,6.530953968E-1,8.149403545E-1
6.189724167E-1,8.529614870E-2,-5.924527538E-1,-5.785188389E-1,8.324420373E-1
6.289424167E-1,3.689027724E-1,1.057506958E0,-1.748943132E-1,1.133577629E0
6.389124167E-1,2.124727968E-1,1.073833846E0,7.937010527E-3,1.094681147E0
6.488824167E-1,5.792891365E-1,2.192097759E-1,-5.212412685E-1,8.095191718E-1
6.588524167E-1,5.205119380E-1,3.783762485E-2,-1.448885075E0,1.540010495E0
6.688224167E-1,1.036077643E-1,5.567923397E-1,-1.485776328E0,1.590057727E0
6.787924167E-1,4.167129332E-1,7.801676720E-2,4.010377175E-1,5.835816442E-1
6.887624167E-1,3.821129847E-2,-3.028615049E-1,8.848293239E-1,9.360064780E-1
6.987324167E-1,1.700719317E-1,-4.529721022E-2,-5.247846812E-1,5.535117531E-1
7.087024167E-1,9.444799136E-2,4.300498474E-1,-1.245619487E0,1.321147683E0
7.186724167E-1,4.491407141E-2,-5.834322542E-2,3.162244391E-1,3.246830788E-1
7.286424167E-1,-1.018117189E-1,1.536983319E0,-1.269535183E0,1.996096924E0
7.386134167E-1,-1.402853016E-2,1.097055185E0,-2.200063421E0,2.458456007E0
7.485834167E-1,-1.825545677E-1,-7.787365660E-1,2.252788349E0,2.390567329E0
7.585534167E-1,5.672359054E-1,-1.224620381E-1,2.258680589E0,2.332035918E0
7.685234167E-1,6.411843992E-1,8.373665974E-1,-2.721118748E-2,1.055007441E0
7.784934167E-1,9.766307558E-1,5.806524879E-1,6.213660657E-1,1.295013796E0
7.884634167E-1,1.021718782E0,5.081815124E-3,1.527114973E0,1.837393598E0
7.984334167E-1,5.769581805E-1,5.328681645E-1,9.919158161E-1,1.265198091E0
8.084034167E-1,1.043379061E0,1.590461661E0,-1.310667422E0,2.309990747E0
8.183734167E-1,1.772152558E-1,3.055690581E-1,-2.498181372E0,2.523031483E0
8.283434167E-1,-3.730139863E-1,5.942712379E-1,-1.757673025E0,1.892541202E0
8.383134167E-1,-1.927059554E-3,3.101956674E-1,-2.157435465E-1,3.778496308E-1
8.482836667E-1,-3.301401546E-1,-4.804893914E-1,1.361461599E0,1.481026760E0
8.582536667E-1,4.051700179E-2,-2.840898961E-1,3.278966510E-1,4.357349082E-1
8.682246667E-1,-8.081480607E-2,-2.219600138E-1,-7.794829631E-1,8.144881646E-1
8.781946667E-1,3.118992537E-2,-1.664506415E-1,1.280394047E-1,2.123033600E-1
8.881646667E-1,3.963966728E-1,-8.404311231E-1,1.079243397E0,1.424156278E0
8.981346667E-1,7.509520590E-2,-1.084140733E0,2.430860624E0,2.662721126E0
9.081046667E-1,-6.194962724E-1,-9.596184281E-1,4.787776190E-1,1.238495526E0
9.180746667E-1,-4.266642730E-1,-6.778466606E-1,-4.075883532E-1,8.986916951E-1
9.280446667E-1,-2.020041429E-1,-2.673914176E-1,8.493987054E-1,9.131166435E-1
9.380146667E-1,5.239475061E-1,-9.205713066E-1,8.886557418E-1,1.382635725E0
9.479846667E-1,3.758050816E-1,-8.922456399E-1,4.831057280E-1,1.081999485E0
9.579546667E-1,1.172399410E0,-8.926926595E-1,-6.894451976E-1,1.626885134E0
9.679246667E-1,1.179547777E0,-5.309078854E-1,-8.976493442E-1,1.574474670E0
9.778946667E-1,7.180391054E-1,1.814774010E-1,-8.964033026E-1,1.162778175E0
9.878656667E-1,7.993687588E-1,-2.463306239E-1,-7.625061572E-1,1.131850179E0
9.978356667E-1,-7.303402584E-2,1.147273412E-1,-4.353848469E-1,4.561318852E-1
1.007805667E0,1.345290832E-1,9.594816032E-1,-6.769286478E-1,1.181920224E0
1.017775667E0,-2.272302737E-1,4.590532064E-1,-1.212814268E0,1.316541641E0
1.027745667E0,-2.006470955E-1,-6.200475186E-2,-5.068191111E-1,5.486068333E-1
1.037715667E0,3.860912110E-1,1.066670129E0,-1.149478982E0,1.614977869E0
1.047685667E0,7.557403805E-2,1.465248508E0,-1.077974551E0,1.820630044E0
1.057655667E0,4.578226599E-1,6.233789697E-1,-5.806302685E-1,9.671268978E-1
1.067625667E0,-1.801135196E-1,-1.963761064E-1,3.329275954E-1,4.264331588E-1
1.077595667E0,-4.901715765E-1,4.023740986E-1,4.991896641E-1,8.070708831E-1
1.087565667E0,4.603812553E-2,1.309676903E0,-1.412256362E0,1.926613903E0
1.097535667E0,-1.072482554E0,1.450264433E-1,7.573804879E-1,1.320937811E0
1.107505667E0,-4.063314942E-1,-1.037020945E0,2.095245649E0,2.372882646E0
1.117476667E0,-4.679484294E-1,8.388883352E-2,5.060887939E-1,6.943622515E-1
1.127446667E0,-5.556702225E-1,8.249202141E-1,8.402068824E-1,1.302002443E0
1.137416667E0,-1.891356089E-1,1.369026142E-1,2.369668928E0,2.381143723E0
1.147386667E0,-5.848251706E-1,-9.300639689E-2,1.369474039E0,1.492022055E0
1.157356667E0,6.400716741E-2,5.659724683E-2,6.336265075E-1,6.393611787E-1
1.167326667E0,2.862577513E-1,8.108722785E-1,4.692641991E-1,9.796255615E-1
1.177296667E0,-2.387200525E-1,7.561072567E-1,1.061271395E0,1.324757495E0
1.187266667E0,6.171761703E-2,7.780889869E-2,7.785380530E-1,7.848469844E-1
1.197236667E0,3.055019430E-1,-6.818701297E-2,-5.574934208E-1,6.393589134E-1
1.207206667E0,-2.683301150E-1,6.821075267E-1,-1.428553721E0,1.605626813E0
1.217176667E0,-1.207515265E-1,1.602879685E-1,3.722384262E-1,4.228884131E-1
1.227146667E0,-1.246377724E0,1.752308205E-1,8.705510080E-1,1.530366730E0
1.237117667E0,-8.393452220E-1,2.579545963E-1,-3.288228500E-1,9.376382256E-1
1.247087667E0,-6.461758018E-1,8.780500621E-2,-1.232902962E0,1.394741051E0
1.257057667E0,-2.949381987E-1,-9.985383725E-1,5.873194832E-1,1.195412731E0
1.267027667E0,3.181403159E-1,-6.575287557E-1,7.919053727E-1,1.077344627E0
1.276997667E0,-5.016777640E-2,2.330086201E-2,-3.539173454E-1,3.582139352E-1
1.286967667E0,-1.584611704E-1,-3.191170567E-1,-7.250547409E-5,3.562943217E-1
1.296937667E0,-2.408701650E-1,1.746019817E0,-8.316459739E-1,1.948907043E0
1.306907667E0,-3.806869950E-1,1.438006038E0,-1.236265696E0,1.934201857E0
1.316877667E0,-4.590900074E-1,-7.830994660E-1,-1.838738823E-1,9.261846539E-1
1.326847667E0,-5.669091922E-1,-5.904202616E-1,-6.033016777E-1,1.016835794E0
1.336817667E0,-1.495576883E-1,8.573927262E-1,-2.853018485E0,2.982818175E0
1.346787667E0,5.202307966E-2,1.756066503E0,-2.152241968E0,2.778240711E0
1.356758667E0,-1.271731580E-1,9.348221406E-1,-6.626468235E-1,1.152894730E0
1.366728667E0,-3.185207138E-1,-1.850582943E0,6.657306451E-1,1.992312718E0
1.376698667E0,-5.952551781E-1,-1.583970374E0,3.204484677E-1,1.722201526E0
1.386668667E0,-1.380832402E0,-1.706512812E-1,-7.350137186E-1,1.573551762E0
1.396638667E0,-7.533223741E-1,1.494257129E0,-4.180724108E-1,1.724843039E0
1.406608667E0,-8.806039066E-1,6.305236825E-1,-3.300911111E-1,1.132247100E0
1.416578667E0,-6.622809340E-1,-9.828172562E-1,-1.794778871E0,2.150761956E0
1.426548667E0,-6.938016656E-1,-1.467103829E0,-1.311997079E0,2.086885414E0
1.436518667E0,-5.299265765E-1,-9.555198222E-2,1.322661231E0,1.428070407E0
1.446488667E0,-1.658407038E0,3.878058485E0,-2.245493363E0,4.778272906E0
1.456458667E0,-1.486322933E-1,5.049038556E-1,-1.982375675E0,2.051056504E0
1.466428667E0,-2.804857454E-1,-3.785175464E0,1.786151304E0,4.194825626E0
1.476399667E0,-1.136779122E0,-2.181117273E0,2.282810293E0,3.355705912E0
1.486369667E0,4.535415479E-1,2.772238908E0,5.383396965E-1,2.860212952E0
1.496339667E0,-1.220877578E0,2.829457422E0,-6.922968847E-1,3.158424661E0
1.506309667E0,-6.872330497E-1,-1.371825789E0,7.338477838E-1,1.700802114E0
1.516279667E0,-3.501464760E-1,-2.126064568E0,2.316257536E0,3.163511036E0
1.526249667E0,-9.134760759E-1,6.464134911E-1,-3.001773405E-1,1.158617874E0
1.536219667E0,5.056352692E-1,3.118777944E0,-1.880316035E0,3.676687542E0
1.546189667E0,1.434795478E0,1.840641507E0,2.977343738E-1,2.352710135E0
1.556159667E0,1.138768272E-1,-9.673534173E-1,1.651210431E0,1.917090622E0
1.566129667E0,-2.678471350E-1,8.685334262E-1,-1.406936565E0,1.674981462E0
1.576099667E0,-2.002625314E-1,1.666783905E0,-3.012004863E0,3.448252741E0
1.586070667E0,-2.871544584E-1,7.369757518E-1,-2.272262501E0,2.405985830E0
1.596040667E0,1.044471760E0,-9.861937308E-1,-1.227949786E0,1.889804225E0
1.606010667E0,1.450889500E0,-1.702898648E0,-5.975152731E-2,2.237971044E0
1.615980667E0,1.632460457E0,3.380743146E-2,2.065242416E-1,1.645819658E0
1.625950667E0,2.452908136E0,-4.507340804E-1,5.955096781E-1,2.564088787E0
1.635920667E0,2.298901539E0,-2.510023446E0,1.767425011E0,3.835225828E0
1.645890667E0,1.532582266E0,-1.385813791E0,1.282192066E0,2.431728759E0
1.655860667E0,1.673810650E0,-1.131561652E0,2.982457128E0,3.602377602E0
1.665830667E0,4.702809934E-1,3.807952416E-1,2.895581537E0,2.958134829E0
1.675800667E0,1.444417802E0,1.032808903E0,7.320450872E-1,1.920657967E0
1.685770667E0,4.024413781E-1,-8.207590431E-1,-1.035559434E-1,9.199610334E-1
1.695740667E0,-2.241142742E-1,-8.495045400E-1,1.216843584E0,1.500864244E0
1.705711667E0,1.123578156E0,8.427401885E-1,-1.655893466E0,2.171318048E0
1.715681667E0,-5.355782028E-1,6.744061589E-1,-2.523741891E0,2.666634735E0
1.725651667E0,5.640368937E-1,-3.664920750E-1,-2.419032292E0,2.510810882E0
1.735621667E0,7.637800462E-1,-1.295421976E0,1.463156374E0,2.098166969E0
1.745591667E0,9.475167382E-1,1.517023264E0,1.752834454E0,2.504311517E0
1.755561667E0,2.054778239E0,2.844871852E0,-1.305365751E0,3.744247482E0
1.765531667E0,2.218667800E0,-1.060144637E0,-1.069571518E0,2.681487775E0
1.775501667E0,2.735200305E0,-1.674735534E0,1.996101429E0,3.777628983E0
1.785471667E0,2.400151632E0,1.994493153E0,-9.655214846E-2,3.122187232E0
1.795441667E0,2.366770171E0,4.379669189E0,-2.341473069E0,5.501417943E0
1.805411667E0,1.467683873E0,9.716060972E-1,4.971612650E-1,1.829011668E0
1.815381667E0,5.677233439E-1,-2.681626654E0,1.059202650E0,2.938595168E0
1.825352667E0,8.328361747E-1,-8.641719881E-1,-1.188323790E0,1.688941310E0
1.835322667E0,3.049749079E-1,2.887556233E0,-2.686033115E0,3.955472739E0
1.845292917E0,-5.935852133E-2,1.443058324E0,5.618554437E-1,1.549716846E0
1.855262917E0,4.658035976E-1,-1.488662806E0,4.542210674E-1,1.624625101E0
1.865232917E0,-4.999256824E-1,-1.665479976E0,-7.152746880E-1,1.880257195E0
1.875202917E0,-4.628127468E-1,-4.470582283E-1,3.443711811E-1,7.298275197E-1
1.885172917E0,3.845501773E-2,8.618386567E-1,-6.058405387E-1,1.054176179E0
1.895142917E0,-8.538840314E-1,2.804102433E-1,-2.511384385E0,2.667358126E0
1.905112917E0,-6.694972021E-1,-7.734009817E-1,-9.746805632E-1,1.412932335E0
1.915082917E0,-4.076142271E-1,-9.805470747E-1,8.255976140E-1,1.345077449E0
1.925052917E0,-4.473625758E-1,8.992365709E-1,-1.995712005E0,2.234194730E0
1.935022917E0,1.044371188E-1,-4.120190808E-1,-4.082275708E0,4.104344258E0
1.944993917E0,-3.739089026E-1,-2.607367307E0,-1.489722614E0,3.026127163E0
1.954963917E0,-7.150837764E-1,-2.319019176E0,3.860270378E0,4.559701979E0
1.964933917E0,9.598534861E-1,4.305375051E-1,4.329103637E0,4.455089175E0
1.974903917E0,8.484193698E-1,1.677172653E0,1.348231689E0,2.313104456E0
1.984873917E0,9.292197040E-1,-1.545322326E0,6.520610243E-1,1.917460281E0
1.994843917E0,3.350912844E-1,-2.787929911E0,1.865881598E0,3.371402304E0
2.004813917E0,8.883192345E-1,2.000148287E0,1.397181655E0,2.596501649E0
2.014783917E0,9.862231131E-1,3.192296449E0,-8.615234917E-1,3.450451474E0
2.024753917E0,-1.119078869E-1,1.448416713E-1,-3.145192741E0,3.150514222E0
2.034723917E0,-4.654646053E-1,-1.041679422E0,-6.706972700E-1,1.323475782E0
2.044693917E0,-2.880554777E-1,4.959886059E-1,7.804313815E-1,9.685317737E-1
2.054664917E0,-1.046615057E-1,2.850745380E0,1.375525907E0,3.166981966E0
2.064634917E0,6.800007018E-1,-2.541951290E-1,2.866023277E0,2.956536072E0
2.074604917E0,2.163774578E-1,-2.746992677E-2,9.098138916E-1,9.355934579E-1
2.084574917E0,-2.733275110E-1,2.901107156E0,-7.291729349E-1,3.003801562E0
2.094544917E0,1.485255633E-1,4.442625575E0,1.343225888E0,4.643623330E0
2.104514917E0,9.985045318E-1,2.544652411E0,4.708955723E-1,2.773807822E0
2.114484917E0,9.955760269E-1,-5.695112032E-1,-2.680431483E0,2.915514975E0
2.124454917E0,1.030188474E0,-6.622609073E-1,-4.028526932E0,4.210570869E0
2.134424917E0,1.005817791E0,8.300254181E-1,-1.882102359E0,2.289742543E0
2.144394917E0,1.021052711E0,1.685713096E0,3.420299560E-1,2.000290422E0
2.154364917E0,9.479768410E-1,-1.444284778E0,6.795207185E-1,1.856439339E0
2.164334917E0,-9.314080976E-2,-2.034203641E0,-5.544756728E-1,2.110474576E0
2.174304917E0,9.484644257E-2,6.327716446E-1,-1.357479646E0,1.500715426E0
2.184275917E0,7.977842364E-1,5.211214006E-1,-1.832113928E-1,9.703574684E-1
2.194245917E0,1.152129233E0,-5.079078627E-1,1.902292210E-1,1.273404618E0
2.204215917E0,8.626091004E-1,-5.782396343E-1,-4.615406120E-1,1.136430936E0
2.214185917E0,-2.004276422E-1,-1.203149113E0,1.804015133E0,2.177661504E0
2.224155917E0,1.243922040E-3,-2.514027911E-1,3.383295456E0,3.392623329E0
2.234125917E0,2.460150936E-1,2.605250323E-1,1.363031577E0,1.409344457E0
2.244095917E0,3.380576500E-1,-5.410457879E-2,1.042732213E0,1.097497494E0
2.254065917E0,7.541808915E-1,-1.131255550E0,7.035293859E-1,1.530843406E0
2.264035917E0,4.394531203E-1,-8.123066005E-1,8.957951921E-1,1.286627407E0
2.274005917E0,3.937154686E-1,2.066961789E0,-1.171986669E0,2.408504860E0
2.283975917E0,1.184511698E0,1.950616524E0,-1.252838459E0,2.603377996E0
2.293946917E0,7.948320504E-1,2.619374272E-1,1.822372466E-1,8.564926258E-1
2.303916917E0,1.730137756E-1,-1.183768809E-3,-3.875534534E-1,4.244206017E-1
2.313886917E0,1.634021225E-1,6.831781518E-1,-2.309069554E0,2.413552329E0
2.323856917E0,4.140106425E-2,1.303932014E-1,-9.792437303E-1,9.887541244E-1
2.333826917E0,-1.083354794E0,1.058831937E0,3.675860306E0,3.975768060E0
2.343796917E0,-1.909615117E-1,2.586998532E0,2.561866906E0,3.645845546E0
2.353766917E0,-3.961802161E-1,-2.839562872E-1,3.671657912E0,3.703871186E0
2.363736917E0,6.569240805E-1,8.572483000E-1,1.026955841E0,1.490322849E0
2.373706917E0,1.656982364E0,3.063513863E0,-3.308335905E0,4.803727116E0
2.383676917E0,2.334200887E0,4.802645075E0,-3.735067458E0,6.516488503E0
2.393646917E0,1.607145521E0,6.146876684E-1,1.048364836E0,2.014901111E0
2.403616917E0,3.256703968E-1,-2.617520120E0,3.893981915E0,4.703250785E0
2.413587917E0,1.136524768E-1,-9.672987458E-1,2.334074003E0,2.529127359E0
2.423557917E0,1.303500928E0,6.342766010E0,-1.038570165E0,6.558080764E0
2.433527917E0,1.368201100E0,2.445761084E0,1.649345169E0,3.251778132E0
2.443497917E0,6.625843314E-1,-1.700448080E0,2.871955277E0,3.402744302E0
2.453467917E0,1.452796131E0,-1.202495102E0,7.647947574E-1,2.035072994E0
2.463437917E0,2.615503708E0,2.653643341E0,-1.159080110E0,3.902069878E0
2.473407917E0,2.176257067E0,2.385579202E-1,9.558115983E-1,2.388845017E0
2.483377917E0,2.022995698E0,-3.527956156E0,2.432410721E0,4.738734868E0
2.493347917E0,1.408904738E0,-2.281887603E0,-2.187279654E-1,2.690699819E0
2.503317917E0,1.223918350E0,5.966288352E-1,-2.490315698E0,2.838241422E0
2.513287917E0,1.229868549E0,1.368233552E0,-1.965767244E0,2.692374521E0
2.523258917E0,1.716034564E0,-7.382869899E-1,1.464754418E0,2.373888753E0
2.533228917E0,1.661229489E0,-2.495857981E0,-1.055668008E-1,3.000022471E0
2.543198917E0,1.551355629E0,-1.950224760E0,-3.290684330E-1,2.513636198E0
2.553168917E0,1.512604230E0,-8.039895210E-1,5.471052575E-1,1.798247722E0
2.563138917E0,2.700081636E0,6.991340339E-1,-1.867594832E-1,2.795372666E0
2.573108917E0,1.564468448E0,-1.993608177E-1,-1.069869726E0,1.905761657E0
2.583078917E0,1.371157306E0,-1.243914731E0,-1.211189327E0,2.212323620E0
2.593048917E0,1.502406102E0,-1.538884541E0,4.583790225E-1,2.198977274E0
2.603018917E0,2.487023715E0,1.111930210E0,-2.358801877E-1,2.734467995E0
2.612988917E0,3.306918832E0,2.156542887E0,-1.695275633E0,4.296550810E0
2.622958917E0,2.704596856E0,-6.920065704E-1,-1.542948064E0,3.189734467E0
2.632928917E0,2.442180395E0,-1.382809491E0,-2.911805221E0,4.044133630E0
2.642899917E0,3.384233349E0,9.371203887E-1,-1.541796162E0,3.835148679E0
2.652869917E0,2.030861080E0,2.549666691E-1,1.231530036E0,2.388738361E0
2.662839917E0,2.394833297E0,-1.463749282E0,1.208498438E0,3.055856174E0
2.672809917E0,2.485911575E0,1.698144569E0,1.689082847E0,3.452021466E0
2.682779917E0,2.631002630E0,1.084033729E0,2.657774692E0,3.893721905E0
2.692749917E0,2.642267583E0,-1.322374132E-1,1.681706584E0,3.134836798E0
2.702719917E0,1.021396162E0,1.264942195E0,-1.382418020E0,2.134106010E0
2.712689917E0,1.021910278E0,-4.205931455E-2,-1.230710256E0,1.600224152E0
2.722659917E0,6.148836963E-1,-2.999046556E0,2.572495390E0,3.998761651E0
2.732629917E0,1.097101963E0,-1.447664176E0,2.982172953E0,3.491807528E0
2.742599917E0,2.399007186E0,-6.803115544E-1,2.257718137E0,3.363829733E0
2.752570917E0,7.287785402E-1,-3.340294739E0,4.310959142E0,5.502095586E0
2.762540917E0,8.705906229E-1,-1.466694232E0,4.251947288E0,4.581285381E0
2.772510917E0,2.566968017E0,4.586383465E-1,2.821834114E0,3.842189702E0
2.782480917E0,1.486193527E0,-2.326350708E0,1.902937742E0,3.352886945E0
2.792450917E0,6.679458627E-1,-3.517520045E0,2.197200040E0,4.200807893E0
2.802420917E0,7.237516889E-1,-1.223251548E0,1.376542153E0,1.978643262E0
2.812390917E0,1.791224495E0,1.334406825E0,-9.674832255E-1,2.434163215E0
2.822360917E0,7.207140604E-1,-2.494288588E0,1.278158072E0,2.893888798E0
2.832330917E0,6.123818189E-1,-3.372816953E0,4.935225427E-1,3.463303364E0
2.842300333E0,-2.136375256E-2,-1.626587221E-1,-8.352630615E-1,8.512218581E-1
2.852270333E0,5.470350909E-1,1.617294534E0,-2.279685541E0,2.848131873E0
2.862240333E0,2.369159635E0,-5.485308087E-1,-1.945434721E0,3.114244640E0
2.872211333E0,2.377074134E0,-2.177748400E0,-2.496003869E0,4.077144202E0
2.882181333E0,3.037075970E0,-2.449234622E0,9.825801516E-1,4.023436893E0
2.892151333E0,1.027074174E0,1.382926728E0,-4.396287560E-2,1.723165816E0
2.902121333E0,2.244963898E0,9.035871917E-1,5.929626310E-1,2.491573277E0
2.912091333E0,1.800180675E0,-3.061210352E-1,1.463718292E0,2.340263188E0
2.922061333E0,6.757701682E-1,1.022257018E0,-1.383751770E0,1.848362435E0
2.932031333E0,2.451582572E0,2.607720771E-1,-2.278240694E0,3.356879480E0
2.942001333E0,7.364187314E-1,-1.095233193E0,-8.720169050E-1,1.581853905E0
2.951971333E0,8.878083341E-2,1.062146723E-2,-4.277507222E-1,4.369960323E-1
2.961941333E0,6.728804011E-1,1.381793245E0,-1.569903143E0,2.196978945E0
2.971911333E0,5.908034004E-1,1.046505421E-1,2.555551329E0,2.625041521E0
2.981882333E0,1.120209867E0,9.468761757E-1,3.431446107E0,3.731791396E0
2.991852333E0,2.817737409E-1,1.865057725E0,-1.436672580E0,2.371047208E0
3.001822333E0,3.265004821E-1,-3.323262092E-1,-2.261214772E0,2.308708626E0
3.011792333E0,-7.567598791E-1,-2.040024544E0,8.649178004E-1,2.341467159E0
3.021762333E0,-3.321728660E-1,9.018514457E-1,-9.914573944E-1,1.380819542E0
3.031732333E0,-4.829939000E-1,2.972202574E0,-3.103052443E0,4.323910927E0
3.041702333E0,-4.118581362E-1,-3.885018718E-1,-5.230720317E-1,7.708211071E-1
3.051672333E0,-1.212481050E0,-2.723487455E0,-1.249704351E0,3.232530770E0
3.061642333E0,-8.987772721E-1,-1.023204267E-2,-2.674105380E0,2.821124752E0
3.071612333E0,-6.067518273E-1,2.219433492E-1,6.782653213E-2,6.496207114E-1
3.081582333E0,-1.312671409E0,-1.471021172E0,2.186456366E0,2.944078965E0
3.091552333E0,1.112583124E0,-2.790518766E0,2.355270744E0,3.817346784E0
3.101523333E0,-2.824457321E-1,-1.210128642E0,1.084945602E0,1.649634469E0
3.111493333E0,-1.224388100E0,-1.634665149E-1,2.051307331E0,2.394516504E0
3.121463333E0,3.074062898E-1,-1.155095817E0,3.620318189E0,3.812538363E0
3.131433333E0,3.697191899E-1,-1.175712807E0,3.281286685E0,3.505115575E0
3.141403333E0,4.831865658E-1,3.515150169E-1,1.651421515E0,1.756196198E0
3.151373333E0,-5.877242201E-1,4.467357543E-1,1.278914702E-1,7.492321544E-1
3.161343333E0,-8.427851390E-1,-4.799090552E-1,-2.065903151E-1,9.916042810E-1
3.171313333E0,-1.659994411E0,6.026222312E-1,-2.653626677E0,3.187549143E0
3.181283333E0,-3.043768985E0,-6.059881809E-1,-2.251011965E0,3.833902213E0
3.191253333E0,-2.867802585E0,-5.145663795E-1,-7.994213837E-1,3.021281975E0
3.201223333E0,-2.326291212E0,-2.880759430E-1,-7.648520601E-1,2.465687983E0
3.211193333E0,4.711344311E-1,-1.178595192E0,-1.278955632E-1,1.275700417E0
3.221164333E0,-1.103259227E0,-9.373650947E-1,8.752638638E-2,1.450343101E0
3.231134333E0,-1.201961982E0,6.665036470E-1,-2.991143167E0,3.291789356E0
3.241104333E0,5.561678571E-1,1.098790639E0,-3.108314352E0,3.343393735E0
3.251074333E0,-1.618019296E0,8.443478805E-1,-2.981644365E0,3.495870837E0
3.261044333E0,-6.279138509E-1,-2.474076810E-1,-1.243039110E0,1.414437201E0
3.271014333E0,-5.637470911E-1,-4.299559996E-1,6.249363756E-1,9.451023319E-1
3.280984333E0,-6.187375230E-1,2.396987119E-1,1.717136618E0,1.840882875E0
3.290954333E0,3.979867500E-1,1.439611976E0,1.283656794E0,1.969429069E0
3.300924333E0,-9.913733041E-2,1.353853202E0,8.670836091E-2,1.360244479E0
3.310894333E0,-1.992463950E-1,3.312506139E-2,3.089276987E-1,3.690971669E-1
3.320864333E0,-1.941619267E0,2.096569458E0,-2.444759456E0,3.760629956E0
3.330835333E0,-1.676589978E0,2.618020057E0,-3.095253426E0,4.386978088E0
3.340805333E0,-1.865127746E0,9.805868357E-2,5.408463979E-1,1.944436124E0
3.350775333E0,-2.515075732E0,-4.024846110E-1,9.126398510E-1,2.705644341E0
3.360745333E0,-2.350075785E0,7.564326543E-1,-2.247072696E0,3.338320275E0
3.370715333E0,-2.490727926E0,-5.332292300E-1,3.652995354E-1,2.573228083E0
3.380685333E0,-2.558262390E0,-1.795943052E-1,2.579792715E0,3.637621617E0
3.390655333E0,-5.070831494E-1,1.416880048E0,1.533693675E0,2.148696973E0
3.400625333E0,-1.004376964E0,7.467002562E-1,1.413948546E0,1.888275628E0
3.410595333E0,-1.241509479E0,-5.071263823E-1,1.331947778E0,1.890134344E0
3.420565333E0,-1.927239502E0,-2.175477049E-1,-5.528045386E-1,2.016723074E0
3.430535333E0,-1.638244084E0,-7.636013407E-1,8.149866718E-1,1.982708743E0
3.440505333E0,-1.393061853E0,7.503079882E-1,3.769571292E-1,1.626554666E0
3.450476333E0,-1.126852889E0,8.998321098E-1,-1.251509972E0,1.909390601E0
3.460446333E0,2.439040660E-1,-3.201113757E-1,-2.708664179E-2,4.033536568E-1
3.470416333E0,4.948561464E-1,-2.269825382E0,7.090152436E-1,2.428928258E0
3.480386333E0,-4.515867506E-1,1.223369077E-1,-1.070484268E0,1.168260879E0
3.490356333E0,-6.943241874E-1,-6.407311669E-1,1.445456852E0,1.726837577E0
3.500326333E0,-5.633592014E-1,-3.507200879E-1,1.400957202E0,1.550180394E0
3.510296333E0,-6.475388608E-1,-7.876600018E-1,8.285153747E-1,1.313831260E0
3.520266333E0,-3.915466632E-1,-1.199089391E0,1.899262767E0,2.279983161E0
3.530236333E0,-9.015721681E-1,-3.828736344E-1,5.690024954E-1,1.132779076E0
3.540206333E0,-6.943252838E-1,-1.005469954E0,-8.016672993E-1,1.461412976E0
3.550176333E0,-1.697969664E-1,-2.140804814E0,-1.414792299E-2,2.147574545E0
3.560147333E0,-4.713968614E-2,6.903389445E-1,8.936287987E-1,1.130204600E0
3.570117333E0,-6.551459787E-2,5.086530903E-1,4.979880613E-1,7.148511999E-1
3.580087333E0,-5.355176841E-1,-8.175392738E-1,7.297933245E-1,1.219732737E0
3.590057333E0,-6.566221449E-1,-1.764199103E0,4.444228882E-1,1.934182726E0
3.600027333E0,-6.964343014E-1,1.564016166E0,-3.014537877E-1,1.738402051E0
3.609997333E0,-1.027935615E0,4.828879192E-1,-2.522032750E-1,1.163373913E0
3.619967333E0,-1.031067383E0,-3.463802844E-1,-1.482718819E0,1.838894871E0
3.629937333E0,8.021519238E-2,-3.995621726E-1,-8.269980222E-1,9.219599425E-1
3.639907333E0,1.619733371E-1,8.687395406E-1,-1.655949599E0,1.876995692E0
3.649877333E0,1.470887745E-1,1.737453061E0,-8.602534765E-1,1.944328751E0
3.659847333E0,2.328603201E-1,5.994509938E-1,4.730134338E-1,7.983151829E-1
3.669818333E0,5.320641723E-1,-5.664311823E-1,-8.240878630E-1,1.132721225E0
3.679788333E0,6.333682068E-1,-3.503882584E-1,-1.867838661E0,2.003184585E0
3.689758333E0,8.122770721E-1,1.163853777E0,-2.738996610E0,3.084874728E0
3.699728333E0,-1.500719691E-1,-6.940264910E-1,-1.358919815E0,1.533250609E0
3.709698333E0,-5.706563804E-1,-1.764021932E0,1.849251532E0,2.618616679E0
3.719668333E0,-2.372656307E-1,-2.447816965E-1,1.936934039E0,1.966704485E0
3.729638333E0,-8.149437679E-1,5.063691679E-1,3.167479404E0,3.309602522E0
3.739608333E0,-1.659997663E-1,7.691442087E-1,1.808838501E0,1.972570774E0
3.749578333E0,-4.262794896E-1,-6.639606929E-1,1.030082932E0,1.297547244E0
3.759548333E0,8.741899861E-2,-2.134179919E0,2.830814268E0,3.546248077E0
3.769518333E0,1.670304660E-1,-7.734220317E-1,1.220308059E-1,8.006074777E-1
3.779488333E0,2.889964226E-1,1.416640604E0,-1.908421846E0,2.394256351E0
3.789459333E0,6.149936239E-1,-1.229159575E0,2.270275033E0,2.653902625E0
3.799429333E0,-5.644239063E-1,-2.144478327E0,8.703516179E-1,2.382199316E0
3.809399333E0,-1.081918352E0,6.468111017E-1,-3.480032961E0,3.701289144E0
3.819369333E0,-6.911780930E-1,5.451575500E-1,-1.601514945E0,1.827504864E0
3.829339333E0,-4.197758509E-1,-1.579724711E-1,1.124573352E0,1.210715611E0
3.839309333E0,-1.543945599E0,-2.688611153E-1,9.249184191E-2,1.569907339E0
3.849280917E0,-2.361023381E0,3.274651265E-1,-2.354000144E0,3.350071864E0
3.859250917E0,-1.211157459E0,-1.516830013E0,-2.279222442E0,2.993748590E0
3.869220917E0,-7.881657860E-1,-6.786483139E-2,-3.868260598E-1,8.805937441E-1
3.879190917E0,-7.032290583E-1,1.167316791E0,9.786566699E-1,1.677774858E0
3.889160917E0,-7.156865513E-1,-2.567290199E-1,3.863272923E0,3.937384247E0
3.899130917E0,-9.135308935E-1,6.047702059E-1,3.269868243E0,3.448524905E0
3.909101917E0,-1.518525998E0,2.942661856E0,2.733128929E-1,3.322631478E0
3.919071917E0,-1.104031718E0,6.873627117E-1,-6.879968423E-1,1.471289634E0
3.929041917E0,-1.007347276E0,-1.506103004E0,-8.584677368E-1,2.005009139E0
3.939011917E0,-2.636220831E-1,-8.430018514E-1,-2.313170207E-1,9.130478018E-1
3.948981917E0,5.176410647E-1,1.798238668E0,-2.470118830E0,3.098887158E0
3.958951917E0,6.442856893E-2,-3.982515192E-1,8.435696161E-1,9.350748688E-1
3.968921917E0,-4.289719132E-1,-2.229962281E0,2.472957069E0,3.357419447E0
3.978891917E0,-9.524844595E-1,4.170965105E-2,-1.390869586E0,1.686263486E0
3.988861917E0,-8.203768545E-1,8.663421822E-1,-2.798112545E0,3.041874549E0
3.998831917E0,-7.107436806E-1,2.439015444E0,-1.672763852E0,3.041725139E0
4.008801917E0,-5.509191770E-1,-3.905986834E-1,6.690372455E-1,9.506261657E-1
4.018772917E0,-1.002548539E0,-2.037955214E0,1.705004815E0,2.839965924E0
4.028742917E0,-1.012806383E0,-1.228100059E0,2.623470832E0,3.068648844E0
4.038712917E0,-4.985363840E-1,2.030843831E0,1.358402921E0,2.493616588E0
4.048682917E0,-8.064999499E-1,7.274845514E-1,7.274789965E-1,1.307249644E0
4.058652917E0,-8.742718106E-1,-2.421720842E-1,1.664939693E0,1.896054508E0
4.068622917E0,-1.778326487E-1,5.232243517E-1,7.987121165E-2,5.583615170E-1
4.078592917E0,3.717636323E-1,1.682282827E0,-1.185800716E0,2.091508319E0
4.088562917E0,3.300334429E-1,8.830693120E-1,-3.044601336E0,3.187213639E0
4.098532917E0,-5.269328751E-1,-1.184143031E-1,-3.049489024E0,3.096944221E0
4.108502917E0,4.830314684E-1,9.278344256E-1,-1.284203508E0,1.656313609E0
4.118472917E0,1.185417139E0,-8.629730165E-1,4.335289407E-1,1.529013918E0
4.128443917E0,5.796997572E-1,-7.204178989E-1,1.944344800E0,2.153028207E0
4.138413917E0,8.642983610E-1,-1.777845919E-2,4.243989812E0,4.331140411E0
4.148383917E0,9.714372589E-1,5.787840101E-1,1.740922506E0,2.075931707E0
4.158353917E0,1.553445570E0,-4.455996403E-1,-6.993024337E-1,1.760902062E0
4.168323917E0,1.480756639E0,-3.426830900E-1,1.200870160E0,1.937049578E0
4.178293917E0,1.201404742E0,-1.691593641E-1,-6.519019800E-1,1.377303320E0
4.188263917E0,5.589595553E-2,-2.540761381E-1,-2.153214945E0,2.168873818E0
4.198233917E0,2.556453115E-1,-1.046842221E0,2.041509152E0,2.308461128E0
4.208203917E0,1.098746566E0,-7.178825462E-1,1.210560166E0,1.785512610E0
4.218173917E0,4.719847989E-1,-9.425007042E-1,2.063032753E0,2.316717801E0
4.228143917E0,3.487739518E-1,1.061515224E0,1.965435707E0,2.260839525E0
4.238114917E0,2.110814591E0,1.650711371E0,-1.923284883E0,3.298395218E0
4.248084917E0,9.384347697E-1,-5.002360234E-1,-3.443628196E0,3.604090877E0
4.258054917E0,8.991345370E-1,-1.255148109E0,-2.518102251E0,2.953756699E0
4.268024917E0,1.604115202E0,-2.217658862E-1,-1.236917660E0,2.037726917E0
4.277994917E0,9.924379542E-2,-2.515887911E0,-4.291101998E-1,2.554148953E0
4.287964917E0,-3.115701286E-1,-3.666824019E0,1.895812325E0,4.139659250E0
4.297934917E0,4.058089723E-1,-2.043106904E0,1.971000502E0,2.867718557E0
4.307904917E0,3.054891339E-1,1.200415247E0,7.124890745E-1,1.428972028E0
4.317874917E0,-2.802551276E-2,7.324812895E-1,-5.102935266E-1,8.931482252E-1
4.327844917E0,7.395875386E-2,-5.445979714E-1,-2.404450505E0,2.466462868E0
4.337814917E0,5.061815819E-2,-1.527535680E0,-5.648071182E-1,1.629396984E0
4.347785917E0,2.035950972E-1,1.105070841E0,-2.526599425E-1,1.151724608E0
4.357755917E0,-4.335544492E-1,2.149202293E0,-1.865489835E0,2.878731019E0
4.367725917E0,-1.470162800E0,-5.897554332E-1,-1.912478060E0,2.483296692E0
4.377695917E0,3.925497165E-2,-1.516420416E0,-1.430199128E0,2.084836055E0
4.387665917E0,7.383447312E-1,2.088178119E-1,1.066121076E0,1.313534152E0
4.397635917E0,1.017877380E0,9.888919285E-1,3.663630854E0,3.928889493E0
4.407605917E0,1.619969635E0,9.646157509E-1,2.299853173E0,2.973904804E0
4.417575917E0,1.456267185E0,-1.502819207E-1,-9.790051639E-2,1.467270691E0
4.427545917E0,1.096228864E-1,-1.103419295E-1,-4.972957510E-1,5.210523799E-1
4.437515917E0,-4.971909396E-1,3.896409094E-1,-8.734880644E-1,1.077961162E0
4.447485917E0,1.830461724E-2,-8.274365634E-2,-2.899131382E-1,3.020450287E-1
4.457456917E0,-1.036675229E0,6.349280977E-1,-5.647311044E-1,1.340429200E0
4.467426917E0,-1.420904101E0,-3.455990964E-1,2.162779820E-1,1.478236573E0
4.477396917E0,-1.228867287E-1,-3.593827379E-1,4.840307575E-1,6.152583804E-1
4.487366917E0,-5.231788896E-2,7.546723500E-1,6.793096340E-1,1.016724690E0
4.497336917E0,-8.088076998E-2,9.725969079E-1,-1.120984331E0,1.486301556E0
4.507306917E0,-3.711991202E-1,-1.104028575E0,-1.703381628E-1,1.177150360E0
4.517276917E0,-6.183651285E-1,-1.921400618E0,-7.179737628E-2,2.019730336E0
4.527246917E0,-9.615928866E-3,-6.090538761E-1,1.813132111E0,1.912717215E0
4.537216917E0,3.282710190E-1,-1.516250262E0,2.521810555E0,2.960794690E0
4.547186917E0,4.901204499E-1,-3.561281776E-1,4.592958659E-1,7.602618146E-1
4.557156917E0,3.636641423E-1,6.060256031E-1,1.493136218E0,1.651960776E0
4.567127917E0,-5.837197910E-1,-7.498060048E-2,-6.419891953E-1,8.709196357E-1
4.577097917E0,-4.121804274E-1,-2.600765508E-1,-2.293814169E0,2.345019394E0
4.587067917E0,-8.826046776E-1,-4.982228270E-1,-1.283503597E0,1.635419972E0
4.597037917E0,-1.091245977E0,-1.487598320E0,-1.541906675E0,2.404421497E0
4.607007917E0,-1.548754203E-1,-2.607738605E0,-7.690006596E-1,2.723168934E0
4.616977917E0,1.735186826E-1,4.498356557E-1,-5.754192299E-1,7.507117559E-1
4.626947917E0,-1.356691441E-1,2.166786332E0,1.098650891E-1,2.173807596E0
4.636917917E0,-2.178883965E-1,-1.317997491E-1,8.685623699E-1,9.051227086E-1
4.646887917E0,5.963942888E-1,-1.149612883E0,6.165532225E-1,1.434375755E0
4.656857917E0,3.738883643E-1,4.185819957E-1,3.169922370E0,3.219225253E0
4.666827917E0,3.441227476E-1,1.470077139E0,1.180811287E0,1.916732259E0
4.676797917E0,-3.565482270E-1,2.047384142E0,9.032310963E-2,2.080160265E0
4.686768917E0,9.035901519E-2,1.448983893E0,-6.098318481E-1,1.574679001E0
4.696738917E0,-7.459222110E-1,1.070214419E0,-2.927317300E0,3.204831575E0
4.706708917E0,-6.510298678E-1,5.968457669E-2,-2.320654643E0,2.410983224E0
4.716678917E0,-6.179010057E-1,2.319049582E-1,-1.701025785E0,1.824574000E0
4.726648917E0,-1.582665861E-1,7.838347533E-1,-4.503765231E-1,9.177604510E-1
4.736618917E0,6.723052543E-1,3.137022427E-1,6.265192169E-1,9.710457153E-1
4.746588917E0,7.986403054E-2,1.371390172E0,4.169719648E-1,1.435602621E0
4.756558917E0,-3.478521382E-1,1.333937294E0,-2.166867024E-1,1.395472300E0
4.766528917E0,-3.560598018E-1,-1.563126805E0,1.276941851E0,2.049566901E0
4.776498917E0,-5.874370853E-1,-5.648404473E-1,-5.631804228E-2,8.168835792E-1
4.786468917E0,-1.053139380E0,1.911308324E0,2.148641253E-1,2.192799274E0
4.796439917E0,-8.914263719E-1,-9.471188352E-1,1.604616893E0,2.065543618E0
4.806409917E0,-8.823416991E-1,-1.746508059E0,2.443685907E-1,1.971936430E0
4.816379917E0,-3.537596533E-2,1.713283888E-1,6.745207644E-1,6.968379562E-1
4.826349917E0,-3.521755330E-1,1.061895293E-1,-1.910226882E-1,4.144797818E-1
4.836319917E0,-1.545768285E-1,-4.187577045E-1,-5.273633033E-1,6.909153817E-1
4.846289083E0,4.283659954E-1,1.245050552E-1,-2.968549526E-1,5.358374732E-1
4.856259083E0,-4.648377107E-1,-8.098861456E-1,-7.386951256E-1,1.190655347E0
4.866229083E0,-5.797839571E-1,-1.401974325E0,3.397495419E-1,1.554706145E0
4.876199083E0,-5.249894799E-1,6.345620620E-1,8.427849197E-1,1.178375740E0
4.886169083E0,-4.270423320E-1,1.125398394E0,9.497813648E-1,1.533287755E0
4.896139083E0,-1.635665389E-1,-4.878589296E-1,6.584619713E-1,8.356629198E-1
4.906110083E0,-8.263307087E-2,1.198609042E-1,-1.306541042E0,1.314627078E0
4.916080083E0,3.376710394E-1,2.112368050E0,-3.928083462E-1,2.174952622E0
4.926050083E0,2.554506906E-1,1.319473913E-1,5.905231726E-1,6.567973712E-1
4.936020083E0,4.311809181E-1,-1.637614777E0,5.118681818E-1,1.769098126E0
4.945990083E0,3.648172132E-1,1.225388120E0,-1.400573625E0,1.896384487E0
4.955960083E0,-3.304805356E-1,7.602780756E-1,-1.495485629E0,1.709888126E0
4.965930083E0,-4.949804363E-1,-5.669518769E-2,8.714573264E-1,1.003821622E0
4.975900083E0,2.590031482E-1,1.563947754E0,2.535118818E-2,1.585451951E0
4.985870083E0,1.090658295E-1,5.487509564E-1,-1.757373063E0,1.844283885E0
4.995840083E0,-4.237412499E-1,8.650250968E-1,-2.288959225E0,2.483376613E0
5.005811083E0,-9.124478430E-1,-3.472836792E-1,-2.506046462E-1,1.007953227E0
5.015781083E0,-1.000582486E0,-8.438964754E-1,-9.642029375E-1,1.625734873E0
5.025751083E0,-7.659281670E-1,-2.004060659E0,2.615816242E-1,2.161325989E0
5.035721083E0,-8.388702089E-1,-6.460091561E-1,3.106054403E0,3.281555273E0
5.045691083E0,8.866034422E-1,3.718323371E-1,7.586850017E-1,1.224715429E0
5.055661083E0,6.653111073E-1,-1.042399799E0,1.862568566E0,2.235709702E0
5.065631083E0,7.364289641E-1,-1.568188155E0,3.859012642E0,4.230073318E0
5.075601083E0,1.439275322E0,-4.932749131E-1,1.319528292E0,2.013948487E0
5.085571083E0,1.331065470E-1,2.786218724E-1,1.072511498E0,1.116077243E0
5.095541083E0,5.081735821E-1,6.504179567E-2,2.104331637E0,2.165798343E0
5.105511083E0,-2.991951179E-1,-9.594661081E-1,9.884484172E-2,1.009882782E0
5.115482083E0,-4.750965775E-1,-1.935648236E0,-4.664341468E-1,2.046951799E0
5.125452083E0,-1.039705037E0,-6.270966294E-1,1.991152346E0,2.332150169E0
5.135422083E0,-1.003065287E0,-3.934775600E-1,1.311681329E0,1.697490050E0
5.145392083E0,-2.130613373E-1,-2.651302993E-1,-3.181224453E-1,4.657156851E-1
5.155362083E0,-3.828204065E-2,1.686860320E-1,1.369963451E0,1.380840450E0
5.165332083E0,-5.604828829E-1,9.792463616E-1,-6.119421083E-1,1.283564429E0
5.175302083E0,-2.679943204E-1,-2.758485380E-1,-2.006731668E0,2.043253620E0
5.185272083E0,-1.944629706E-1,-2.306887373E-1,-2.940005758E0,2.955447004E0
5.195242083E0,-3.813248532E-1,7.418055519E-1,-3.511774571E0,3.609465993E0
5.205212083E0,-5.879248893E-1,7.637396273E-1,-3.380314545E0,3.515036318E0
5.215183083E0,-1.511769686E0,3.160013679E-1,1.220986336E-1,1.549261929E0
5.225153083E0,-1.075767008E0,-3.468787596E-1,1.052725689E0,1.544613514E0
5.235123083E0,-4.691915109E-1,-1.880654588E-1,-1.545336066E0,1.625906778E0
5.245093083E0,-3.634333234E-1,5.223727047E-1,-2.891062224E-1,6.989559579E-1
5.255063083E0,-3.148138052E-3,1.411455001E0,-1.102081452E0,1.790753656E0
5.265033083E0,-9.099354772E-2,-4.238804501E-1,-3.612515080E-1,5.643200455E-1
5.275003083E0,-3.452995728E-1,-1.028873143E0,-1.460786498E-1,1.095057401E0
5.284973083E0,-1.256464025E0,-2.985798812E-1,9.272292387E-1,1.589844600E0
5.294943083E0,-7.052410852E-1,1.306417081E-1,1.209873703E0,1.406494444E0
5.304913083E0,-3.313476777E-1,9.790180278E-1,7.632610327E-1,1.284848235E0
5.314883083E0,-2.954077302E-2,-9.026484212E-1,1.120734070E0,1.439337238E0
5.324854083E0,-9.405394019E-1,-2.272294661E0,1.247606370E0,2.757618365E0
5.334824083E0,-2.072608171E-2,-1.330975387E0,9.776199585E-1,1.651564662E0
5.344794083E0,-1.397169431E-1,2.073213925E0,-8.264741117E-1,2.236246019E0
5.354764083E0,-3.537562912E-1,-9.235501707E-2,1.389625883E0,1.436917902E0
5.364734083E0,-2.423747176E-2,-5.599431118E-1,1.543393621E0,1.642007191E0
5.374704083E0,1.506849401E-1,5.426020244E-1,1.346883906E0,1.459869571E0
5.384674083E0,-5.623053504E-2,1.072783101E0,8.328423142E-2,1.077479335E0
5.394644083E0,-1.153728738E0,-3.511840644E-1,1.341254792E0,1.803714131E0
5.404614083E0,-1.070292187E0,1.155927584E0,1.824664575E0,2.410621239E0
5.414584083E0,-1.662462666E0,7.830152661E-1,2.665979505E-2,1.837826371E0
5.424555083E0,-1.555364918E0,-1.313545714E0,-3.215255249E-1,2.061053380E0
5.434525083E0,-8.406439617E-1,7.307493442E-1,-2.483989595E0,2.722293368E0
5.444495083E0,-1.531853264E0,2.640813088E0,-5.602840630E0,6.380618412E0
5.454465083E0,-1.483448113E0,-1.866650799E0,-2.108596596E0,3.182951950E0
5.464435083E0,-4.602401912E-1,-2.421652137E0,-5.818956059E-1,2.532750008E0
5.474405083E0,-1.583541847E-1,-1.469928035E0,-5.158524746E-1,1.565844261E0
5.484375083E0,2.271209125E-1,-1.823685459E0,2.856403438E0,3.396535464E0
5.494345083E0,-1.147567052E-1,1.082471060E0,3.134458423E0,3.318093172E0
5.504315083E0,6.264501741E-2,3.438750449E-1,2.442997690E0,2.467876042E0
5.514285083E0,1.088917469E0,-2.644020871E0,2.921399333E0,4.087928777E0
5.524255083E0,7.059603658E-1,-1.464029948E0,1.961965384E0,2.547758210E0
5.534226083E0,-1.619317670E-1,2.538938512E0,1.103767789E0,2.773217265E0
5.544196083E0,-1.466695657E-1,2.166899476E0,-6.539806652E-1,2.268183416E0
5.554166083E0,-1.096311785E0,1.280734940E0,-1.730443711E0,2.415909136E0
5.564136083E0,-8.412718796E-1,-8.530502915E-3,-1.983933958E0,2.154948978E0
5.574106083E0,-7.086081313E-1,1.387744834E0,-7.491580748E0,7.651911089E0
5.584076083E0,-1.286428666E0,1.080967741E0,-5.187155052E0,5.452519373E0
5.594046083E0,-5.248877384E-1,-1.916503575E0,3.990385544E-1,2.026752294E0
5.604016083E0,3.597575809E-1,-1.991267244E0,2.618915851E0,3.309575650E0
5.613986083E0,1.610750768E0,3.225824091E-1,2.795207064E0,3.242184445E0
5.623956083E0,2.015871743E0,1.562598509E0,7.685293740E-1,2.663848791E0
5.633927083E0,5.659585446E-1,1.483773656E0,-6.985633457E-1,1.734901751E0
5.643897083E0,2.033721538E-1,1.603481948E-2,-3.821424401E0,3.826865793E0
5.653867083E0,-3.788226468E-1,-8.018792608E-1,-3.625978294E0,3.732858896E0
5.663837083E0,-6.032384181E-1,-7.266621405E-1,-3.561632609E-1,1.009349654E0
5.673807083E0,-1.012095471E-2,-1.737841901E0,2.303228186E0,2.885317484E0
5.683777083E0,7.226073157E-1,-1.048266895E0,3.840160634E0,4.045721012E0
5.693747083E0,7.866868059E-1,1.537780879E0,2.646394256E0,3.160229219E0
5.703717083E0,-6.145927973E-1,4.704751575E-1,9.961907154E-1,1.261533639E0
5.713687083E0,-2.681144989E-1,-1.439833293E0,2.696194991E0,3.068301277E0
5.723657083E0,5.921646322E-1,-4.919525653E-1,1.091178734E0,1.335420274E0
5.733628083E0,7.201516313E-1,-1.444976504E0,-9.466852641E-1,1.871573792E0
5.743598083E0,7.200275242E-1,-9.286781788E-1,1.154235692E0,1.647162053E0
5.753568083E0,1.228031062E0,1.063394227E0,2.254962929E0,2.779159114E0
5.763538083E0,1.117924775E0,-1.154005604E0,2.962608755E-2,1.606973068E0
5.773508083E0,-2.770235725E-1,-1.948539300E0,-3.447740543E-1,1.998103254E0
5.783478083E0,-2.883307902E-1,2.732371715E-1,-2.847137940E-1,4.887280849E-1
5.793448083E0,2.433987752E-1,1.668277869E-1,1.892924970E-1,3.505796966E-1
5.803418083E0,2.073998621E-1,-1.552149827E0,-4.665230244E-1,1.633960685E0
5.813388083E0,1.115464559E0,-1.626959104E0,-9.605946207E-1,2.194082755E0
5.823358083E0,1.186767700E0,-2.920421094E-2,-9.943517661E-1,1.548549610E0
5.833328083E0,5.335567107E-1,-1.366769117E-1,-1.410779940E0,1.514484526E0
5.843299083E0,8.575684351E-1,4.994253069E-1,-1.711692860E0,1.978570622E0
5.853268792E0,2.019252895E0,1.764717166E0,-3.263544479E0,4.224018406E0
5.863238792E0,1.733137377E-1,-2.247619411E0,-1.569094473E0,2.746613940E0
5.873208792E0,1.428423621E0,-2.002182241E0,5.186866200E-1,2.513595747E0
5.883178792E0,1.801338277E0,1.517774631E0,7.459532744E-1,2.470810739E0
5.893148792E0,1.178113967E0,-2.026539988E0,3.787749701E0,4.454420797E0
5.903118792E0,1.053092675E0,-2.440095132E0,2.223656352E0,3.465215146E0
5.913088792E0,7.704960850E-1,1.709472088E0,-3.727570742E-1,1.911781073E0
5.923058792E0,4.778979054E-1,2.644601792E0,2.266418209E0,3.515530763E0
5.933028792E0,-2.900803685E-2,1.127012225E0,-7.951640260E-1,1.379595539E0
5.942999792E0,2.036895480E-1,-1.132079422E-2,-1.526049610E0,1.539624956E0
5.952969792E0,-4.946366566E-1,6.937937719E-1,1.023839275E0,1.332014294E0
5.962939792E0,-5.226668928E-1,1.662679160E0,-1.059993778E0,2.039918988E0
5.972909792E0,3.288892890E-1,1.287662137E-1,-1.041970906E0,1.100205558E0
5.982879792E0,-8.495112643E-2,-1.710222870E-1,1.524260947E0,1.536176016E0
5.992849792E0,-3.673751873E-1,8.851193458E-2,3.567941755E-1,5.197123959E-1
6.002819792E0,6.599332038E-2,1.030276474E0,-8.083366334E-1,1.311195197E0
6.012789792E0,-1.892703507E-2,1.303010201E0,1.587758201E0,2.054061810E0
6.022759792E0,5.440651439E-1,1.259891663E0,1.087097377E0,1.750746866E0
6.032729792E0,1.201912134E0,-1.277498214E0,3.742194629E-1,1.793497887E0
6.042699792E0,1.079388262E0,-5.885380429E-1,4.483019310E-1,1.308598743E0
6.052670792E0,1.125017886E0,8.316252163E-1,1.677624643E-1,1.409045773E0
6.062640792E0,3.745507442E-1,-9.606773588E-1,-8.587279379E-2,1.034680330E0
6.072610792E0,4.522889281E-1,-2.285174907E0,8.003844202E-1,2.463169676E0
6.082580792E0,5.101511104E-1,1.061541536E-1,-1.930902636E-1,5.557037967E-1
6.092550792E0,2.007971862E-1,6.277980030E-2,2.332138574E-1,3.140852060E-1
6.102520792E0,-2.803063821E-1,-3.364420643E-1,2.017593455E-1,4.821532578E-1
6.112490792E0,9.596870597E-2,-7.934124926E-1,-1.790969410E0,1.961194739E0
6.122460792E0,8.541389700E-1,-9.780602539E-1,-2.057193723E0,2.432735344E0
6.132430792E0,3.125957302E-1,-1.122996358E0,-1.594108862E-1,1.176541007E0
6.142400792E0,2.749036645E-1,6.067173287E-1,3.500295317E-1,7.524617032E-1
6.152371792E0,8.186550687E-1,1.107748573E0,5.688107067E-1,1.490251201E0
6.162341792E0,-4.452224218E-1,-2.811028460E-1,-5.837199372E-1,7.861111753E-1
6.172311792E0,1.074551591E-1,-1.232062132E0,-1.456117496E0,1.910445464E0
6.182281792E0,6.219050328E-1,4.763864002E-1,-9.275894272E-1,1.214138385E0
6.192251792E0,3.953122335E-1,4.864193451E-1,1.578619587E0,1.698503854E0
6.202221792E0,4.914730205E-1,5.693001187E-1,1.653466287E0,1.816479869E0
6.212191792E0,9.067974593E-1,1.183596608E0,-2.962333935E-1,1.520176564E0
6.222161792E0,2.507434810E-1,1.627142707E-1,-5.960423595E-1,6.667943622E-1
6.232131792E0,-1.947082247E-1,1.069455743E0,-1.062930250E0,1.520351142E0
6.242101792E0,6.338336451E-1,1.476457620E0,-7.731381494E-1,1.783091358E0
6.252072792E0,1.167533649E-1,-1.221731856E-1,3.387689638E-1,3.785789830E-1
6.262042792E0,-3.037628531E-2,2.351241428E-1,-7.071774638E-1,7.458592672E-1
6.272012792E0,-3.273030125E-2,1.833545911E0,-1.206944248E0,2.195376118E0
6.281982792E0,2.287066409E-1,-4.664616287E-3,2.321420628E-1,3.259116806E-1
6.291952792E0,4.537263930E-2,-1.897096959E0,6.761597389E-1,2.014504291E0
6.301922792E0,4.743169975E-2,8.512256679E-1,-2.404135340E-1,8.857954454E-1
6.311892792E0,-4.231697576E-1,1.039941922E0,-4.408923393E-1,1.206208066E0
6.321862792E0,-2.263165184E-1,-1.266472704E0,2.853587419E0,3.130197028E0
6.331832792E0,6.320938792E-1,-1.113497848E0,3.100913531E0,3.354859886E0
6.341802792E0,1.688953623E-1,-3.122150034E-1,4.460010517E-1,5.700182364E-1
6.351772792E0,2.146473397E-1,-1.551216611E-1,1.235557013E0,1.263620727E0
6.361743792E0,-2.379185637E-1,2.638275397E-1,1.337870423E0,1.384235342E0
6.371713792E0,2.925102886E-1,-3.603323257E-1,7.469929093E-1,8.794316690E-1
6.381683792E0,6.664948031E-1,-1.881403909E0,2.022095811E-1,2.006186608E0
6.391653792E0,-7.677820268E-1,-4.478619280E-1,-9.002414149E-1,1.265110332E0
6.401623792E0,-6.641315778E-1,1.021130844E0,-2.129047233E-1,1.236570813E0
6.411593792E0,-4.465161183E-1,4.548069584E-1,-2.646129962E0,2.721806346E0
6.421563792E0,6.419537466E-2,-1.460269896E0,-1.683234462E0,2.229302014E0
6.431533792E0,-4.868112548E-1,-2.035346187E0,-5.388922584E-1,2.161023869E0
6.441503792E0,-9.181305327E-1,-1.002176218E0,-1.967664081E-1,1.373330938E0
6.451473792E0,-1.738881536E-1,4.430619487E-1,1.309582763E0,1.393394414E0
6.461444792E0,-8.208319871E-1,1.686693674E-1,1.281743000E0,1.531365281E0
6.471414792E0,-3.071021615E-1,-3.003302452E-1,-9.425571299E-1,1.035820417E0
6.481384792E0,6.669429921E-1,7.329870737E-1,-1.246288993E0,1.592268589E0
6.491354792E0,4.933625483E-1,1.236139396E-1,-1.491468008E0,1.575805771E0
6.501324792E0,3.726896851E-1,-2.267493804E0,1.487342212E0,2.737263709E0
6.511294792E0,6.322840599E-1,-2.703670657E-1,-1.491969699E0,1.642819243E0
6.521264792E0,1.267530319E0,6.756811443E-1,-5.567631036E-1,1.540507472E0
6.531234792E0,-1.855994870E-1,-7.688082862E-1,3.075017967E0,3.175098242E0
6.541204792E0,-9.187004535E-2,1.756912595E0,-2.113288987E-1,1.771959896E0
6.551174792E0,9.140161394E-1,6.265151238E-1,8.306279737E-1,1.384878888E0
6.561145792E0,-3.219157534E-1,-1.688722658E0,1.453582728E0,2.251292232E0
6.571115792E0,1.563957877E-1,1.023625559E0,-8.389298505E-1,1.332693596E0
6.581085792E0,1.203482696E-1,7.877135038E-1,-5.641393661E-2,7.988484227E-1
6.591055792E0,-2.223384566E-1,-1.237977760E0,1.843832917E0,2.231981889E0
6.601025792E0,1.511704417E-2,-2.372197849E-1,-2.827894753E-1,3.694206799E-1
6.610995792E0,2.898788771E-1,3.002045301E-1,7.912750429E-1,8.945773956E-1
6.620965792E0,-4.688677214E-1,-4.973501301E-1,6.676625651E-1,9.554932720E-1
6.630935792E0,-2.849532740E-1,1.202760565E-1,-6.027613950E-1,6.774850533E-1
6.640905792E0,-4.844853055E-2,6.919495600E-1,4.492468411E-1,8.264164676E-1
6.650875792E0,-5.966422107E-1,-1.617366747E0,3.710748303E-1,1.763392654E0
6.660846792E0,-3.586228191E-1,1.499603531E0,-1.879472866E0,2.431016111E0
6.670816792E0,-5.533056633E-2,1.664654349E0,-7.856354034E-1,1.841564161E0
6.680786792E0,-7.670085132E-1,-1.985918503E0,3.049094921E-1,2.150614833E0
6.690756792E0,-2.412656561E-1,-3.853320962E-1,-1.884757580E0,1.938814348E0
6.700726792E0,-9.551929263E-2,9.166443166E-1,-1.696984774E0,1.931092453E0
6.710696792E0,-3.165529065E-1,-1.530718320E0,1.603407104E0,2.239245109E0
6.720666792E0,-3.442672834E-1,-1.917062861E0,1.814957027E0,2.662277031E0
6.730636792E0,4.862242583E-2,2.318046784E-1,-1.018766230E-1,2.578301681E-1
6.740606792E0,-9.297077456E-2,-3.326744109E-1,-7.139222270E-1,7.930956909E-1
6.750576792E0,-1.033232151E-1,4.322551247E-1,-2.513124517E0,2.552119710E0
6.760547792E0,-9.059766381E-2,1.095269153E0,-2.939917465E0,3.138620263E0
6.770517792E0,-7.183183099E-1,-2.204920118E0,3.404377592E-1,2.343832714E0
6.780487792E0,-1.343226180E0,-1.479153479E0,7.057484043E-1,2.119016847E0
6.790457792E0,-5.749494061E-1,8.512934956E-1,3.064150332E0,3.231761856E0
6.800427792E0,-1.059768368E0,3.019896850E-1,2.814324535E0,3.022371478E0
6.810397792E0,-1.573343499E0,4.147079229E-1,-7.096666235E-1,1.775111023E0
6.820367792E0,2.406124673E-2,7.706177071E-1,4.434230143E-1,8.894124823E-1
6.830337792E0,-3.881125934E-1,2.450041831E-1,6.982861876E-2,4.642569018E-1
6.840307792E0,-8.331759710E-1,-2.129263580E-2,-1.318915504E-1,8.438192674E-1
6.850277917E0,-6.326415440E-1,2.095862238E0,-1.435822980E0,2.618102647E0
6.860247917E0,-9.013982134E-1,1.177603797E0,-1.323385116E0,1.987616061E0
6.870218917E0,-4.778997692E-1,-8.597962242E-1,8.175167620E-2,9.870770351E-1
6.880188917E0,-1.535568585E0,1.268877956E-1,1.965821038E0,2.497703695E0
6.890158917E0,-1.126883952E0,5.844584405E-2,2.638022797E0,2.869224222E0
6.900128917E0,-1.043750871E0,-1.319100276E0,2.815196355E0,3.279446895E0
6.910098917E0,-1.041476012E0,2.177452238E0,-5.490529650E-1,2.475364557E0
6.920068917E0,-3.937380534E-1,2.263259251E0,5.640165746E-2,2.297945438E0
6.930038917E0,-8.953692956E-1,-1.380579071E0,5.403599095E-1,1.731956575E0
6.940008917E0,-7.005842165E-1,-7.077019590E-1,-1.183498083E0,1.546715235E0
6.949978917E0,-6.358627751E-2,-9.264758250E-1,-1.960077319E0,2.168940701E0
6.959948917E0,3.228899361E-1,1.571532762E-1,-1.641529781E0,1.680349691E0
6.969919917E0,-7.382079063E-1,1.115645823E0,-2.308734509E0,2.668308743E0
6.979889917E0,-5.812518640E-1,-2.678375309E0,-3.791685462E-2,2.740982619E0
6.989859917E0,3.582084708E-2,-2.951007879E0,7.138351035E-1,3.036328571E0
6.999829917E0,-2.880283978E-1,1.265060017E0,-4.405853605E-1,1.370201687E0
7.009799917E0,-5.984240035E-1,1.191111158E0,-7.651298028E-1,1.536971273E0
7.019769917E0,-9.550258056E-1,-8.898655307E-1,1.097259253E0,1.705260338E0
7.029739917E0,2.461085759E-2,2.975493094E-1,-8.639138335E-1,9.140505443E-1
7.039709917E0,1.716977866E-1,-7.543551385E-1,1.393854589E0,1.594165117E0
7.049679917E0,3.013450295E-2,1.475147259E-1,2.007402928E0,2.013041281E0
7.059649917E0,-6.295012969E-1,1.322998907E0,1.361670345E0,2.000186021E0
7.069619917E0,-4.634207476E-1,5.794695961E-1,-1.380862076E0,1.567585365E0
7.079590917E0,-4.921974540E-1,-9.816106832E-1,-1.674658350E0,2.002572959E0
7.089560917E0,-8.264517461E-1,1.514829973E0,-1.832319165E0,2.516967592E0
7.099530917E0,-9.159870896E-1,3.780040732E-1,-1.200390104E0,1.556552546E0
7.109500917E0,-1.219702946E0,-1.811547516E0,8.426112574E-1,2.340806145E0
7.119470917E0,-8.227369369E-1,1.108760142E0,7.777679747E-1,1.584666571E0
7.129440917E0,-1.326289428E0,1.744016268E0,8.646652007E-1,2.355479208E0
7.139410917E0,-9.721343932E-1,-1.224791704E0,4.181753218E-1,1.618650857E0
7.149380917E0,-8.782391464E-1,-7.737485987E-1,-1.056322896E-1,1.175222989E0
7.159350917E0,-1.024880883E0,-7.895436823E-1,1.095135545E0,1.695016788E0
7.169321917E0,-9.943993478E-1,-3.379064995E-1,2.976191837E-1,1.091598847E0
7.179291917E0,-1.379157321E0,1.247322196E-1,-1.905180734E-1,1.397830525E0
7.189261917E0,-1.088246282E0,-1.282372161E0,1.621846883E0,2.336481466E0
7.199231917E0,-6.677241071E-1,-1.187521259E0,4.254586136E-1,1.427262154E0
7.209201917E0,-9.517240291E-1,-1.444373363E-1,-5.223311895E-1,1.095203471E0
7.219171917E0,-3.869992836E-1,-1.669668337E0,-7.681609994E-1,1.878199170E0
7.229141917E0,1.005223713E-1,-3.213088855E0,1.577074168E0,3.580671399E0
7.239111917E0,-2.080955894E-1,-1.475315659E0,1.113729690E0,1.860175769E0
7.249081917E0,-9.880994115E-1,-1.572262202E0,1.324704832E0,2.281050585E0
7.259051917E0,-8.885366779E-1,-1.319506365E0,1.676463971E0,2.311087606E0
7.269021917E0,-3.512566430E-1,8.680665261E-1,-9.734824687E-1,1.350773423E0
7.278992917E0,-6.323290835E-1,-5.659841627E-1,-1.851591003E-1,8.685977404E-1
7.288962917E0,-7.849925020E-1,-1.424352789E0,2.918682132E0,3.341212277E0
7.298932917E0,-3.944593075E-1,1.224872104E0,-1.452600396E-1,1.294994322E0
7.308902917E0,8.430257885E-2,9.467454904E-1,7.002566993E-2,9.530674388E-1
7.318872917E0,-3.348668244E-1,6.132328811E-1,2.490083563E-1,7.417516553E-1
7.328842917E0,9.959134843E-2,1.605035261E0,-3.754345143E-1,1.651365405E0
7.338812917E0,-2.734553274E-1,1.733015317E0,-8.550324976E-1,1.951717315E0
7.348782917E0,-6.056805443E-1,8.471770558E-1,-2.318587652E0,2.541732989E0
7.358752917E0,3.385637448E-2,-7.067202115E-1,-3.720197403E-1,7.993737540E-1
7.368723917E0,8.198265584E-1,7.057846570E-1,-6.421453160E-1,1.258013583E0
7.378693917E0,2.985143741E-1,1.281767851E0,2.396592432E-1,1.337713051E0
7.388663917E0,-2.169315408E-2,-1.151635435E-1,5.936011469E-1,6.050583082E-1
7.398633917E0,7.487781373E-1,2.053600609E-1,-6.348409742E-1,1.002927972E0
7.408603917E0,-1.076549146E-1,-1.046227679E-1,3.091183180E-1,3.436417301E-1
7.418573917E0,1.188859815E-1,-1.458962166E-1,-1.656405097E-1,2.507117091E-1
7.428543917E0,-5.620902825E-1,3.093422663E-1,-4.509717697E-1,7.842280666E-1
7.438513917E0,5.333711347E-2,-3.118878517E-1,-3.380041480E-1,4.629964187E-1
7.448483917E0,-2.167462161E-1,-8.854617003E-1,-1.381534506E0,1.655191510E0
7.458453917E0,1.067977859E-1,-9.227201584E-1,5.211839658E-1,1.065106090E0
7.468423917E0,5.537508374E-1,-9.650648171E-1,1.143297890E0,1.595343273E0
7.478394917E0,7.593917839E-1,-7.513555169E-1,-4.606904268E-2,1.069267670E0
7.488364917E0,8.896757886E-1,-8.992108431E-1,1.847671030E0,2.239194360E0
7.498334917E0,8.460520515E-1,-9.672084063E-2,6.635630822E-1,1.079571655E0
7.508304917E0,6.761127419E-1,-9.022993425E-1,3.757999653E-1,1.188485657E0
7.518274917E0,1.229084730E-3,-1.818755963E0,1.952682930E0,2.668491220E0
7.528244917E0,4.707981431E-1,7.999183971E-1,1.079928106E0,1.423996154E0
7.538214917E0,6.481470443E-1,1.042533700E0,1.730559486E-1,1.239725562E0
7.548184917E0,6.139525272E-1,-4.822640213E-1,-7.818955243E-2,7.846208626E-1
7.558154917E0,6.697886858E-1,6.496031472E-1,-1.064320133E0,1.415407531E0
7.568124917E0,1.021050738E0,2.357963679E0,-1.726402116E0,3.095642354E0
7.578095917E0,9.116858047E-1,-2.336503521E-1,-6.578234553E-2,9.434462414E-1
7.588065917E0,4.254290121E-1,-6.955847740E-1,2.138658301E0,2.288817894E0
7.598035917E0,2.879304204E-1,1.184752018E0,1.415027942E0,1.867845108E0
7.608005917E0,1.557120545E0,1.308622066E0,6.592677176E-1,2.138165107E0
7.617975917E0,2.607198323E0,1.467993483E0,-2.584621346E-1,3.003213385E0
7.627945917E0,2.454255334E0,1.507584396E0,-4.831598148E0,5.624990721E0
7.637915917E0,1.635672625E0,-9.013155484E-1,-2.514586905E0,3.132242321E0
7.647885917E0,8.515993781E-1,-6.708881816E-1,-4.276121432E-1,1.165403191E0
7.657855917E0,8.893714410E-1,1.269670254E0,-2.906224054E0,3.293809704E0
7.667825917E0,9.961624295E-1,-7.142435315E-1,-2.937983206E0,3.183430340E0
7.677796917E0,2.052998785E0,-2.245788648E0,-1.168056756E0,3.259252559E0
7.687766917E0,1.731320209E0,-2.201030551E0,2.562665051E0,3.795952755E0
7.697736917E0,1.271078264E0,-1.321392092E0,3.231114652E0,3.715079933E0
7.707706917E0,4.064648838E-1,-1.569971263E0,4.761463720E0,5.030065628E0
7.717676917E0,2.532251928E0,-5.016723919E-1,4.352677272E0,5.060610087E0
7.727646917E0,2.005592776E0,-2.233352789E-1,2.183201805E0,2.972986908E0
7.737616917E0,2.323748258E0,6.742044300E-2,-1.217363986E0,2.624181122E0
7.747586917E0,2.273553274E0,-2.908504468E-1,-1.493794030E0,2.735883601E0
7.757556917E0,2.703647268E0,1.499834204E-1,-1.288436893E0,2.998711924E0
7.767526917E0,1.566472143E0,-5.719784358E-1,4.093004179E-1,1.717125836E0
7.777497917E0,1.378285793E0,-3.709277728E-1,5.594615936E-1,1.533054603E0
7.787467917E0,1.435631922E0,3.455593354E-1,1.745134841E0,2.286032782E0
7.797437917E0,1.266413355E0,1.003494765E0,1.574245870E0,2.255893302E0
7.807407917E0,2.085302897E0,1.133005914E0,1.341009793E0,2.725893952E0
7.817377917E0,1.624460589E0,1.335777412E0,8.787260002E-1,2.279327287E0
7.827347917E0,9.446318682E-1,7.837900221E-1,-1.159269560E0,1.688360766E0
7.837317917E0,2.093897281E0,4.525686443E-2,1.136295265E-1,2.097466490E0
7.847287917E0,2.414784728E0,-1.041903663E-1,5.994086015E-1,2.490247294E0
7.857257917E0,7.744966038E-1,-1.501170292E-1,6.332745051E-1,1.011640603E0
7.867227917E0,1.061869127E0,-7.128963330E-1,9.705688012E-1,1.605550068E0
7.877198917E0,1.278066125E0,-2.871436045E-1,1.551218365E0,2.030315957E0
7.887168917E0,1.369722546E0,2.644210321E-1,-4.353608733E-1,1.461368340E0
7.897138917E0,2.263436568E0,-1.720614834E0,8.626789016E-1,2.971174076E0
7.907108917E0,8.223307747E-1,-1.573064440E0,4.852615964E-1,1.840173484E0
7.917078917E0,1.722034684E0,-2.617210802E-1,-1.371937471E0,2.217231112E0
7.927048917E0,1.385969619E0,-2.759959755E0,-8.702995777E-1,3.208693035E0
7.937018917E0,6.992791910E-1,-2.852015687E0,-2.061184448E-1,2.943716984E0
7.946988917E0,-7.561369313E-1,-1.841430004E0,8.729928052E-1,2.173643015E0
7.956958917E0,-5.415458710E-1,-1.515419665E0,1.874751239E0,2.470720725E0
7.966928917E0,9.636198239E-1,-2.436979151E-1,2.445850546E0,2.640101652E0
7.976899917E0,8.893286102E-1,6.801805767E-1,-4.363671792E-1,1.201651908E0
7.986869917E0,2.393369008E0,1.428008176E0,-6.248907673E-1,2.856205706E0
7.996839917E0,1.884383650E0,3.595713691E0,-2.054598729E0,4.549882924E0
8.006809917E0,1.793030115E0,-2.768139133E-1,6.814380205E-1,1.938024951E0
8.016779917E0,9.765822239E-1,-2.630011527E0,2.506226556E0,3.761893808E0
8.026749917E0,4.781540865E-1,7.216694954E-1,-1.125184970E0,1.419675811E0
8.036719917E0,3.369409780E-1,3.046241480E-1,4.272034228E-1,6.235606295E-1
8.046689917E0,2.201955434E-1,-2.638139741E0,4.055763263E-1,2.678200801E0
8.056659917E0,9.473555743E-1,4.528425863E-1,-9.723481089E-1,1.431086943E0
8.066629917E0,5.874860557E-1,2.057955323E0,3.650720787E-1,2.171082127E0
8.076600917E0,6.314856957E-1,-8.484651974E-1,-1.040524305E0,1.483697477E0
8.086570917E0,1.325029353E0,1.133283657E0,-1.305272196E0,2.178019774E0
8.096540917E0,7.256409974E-1,5.528627184E-1,-1.208711861E0,1.514330349E0
8.106510917E0,7.294142787E-1,-1.726582502E0,-3.086084408E-1,1.899571398E0
8.116480917E0,8.214715263E-1,-1.945730006E0,9.992751217E-1,2.336499838E0
8.126450917E0,1.308080614E-1,2.285606432E-1,-2.164972526E-1,3.409131516E-1
8.136420917E0,9.676151533E-1,-9.162221476E-1,6.408542508E-1,1.478660299E0
8.146390917E0,3.453131676E-1,-2.297010841E0,1.796642379E0,2.936566673E0
8.156360917E0,2.981356390E-2,-2.560442232E0,-1.929581165E-3,2.560616527E0
8.166330917E0,-3.194803150E-1,-2.835184185E0,4.660820274E0,5.464758244E0
8.176301917E0,-1.547530673E-1,1.470003464E0,1.327359468E0,1.986640847E0
8.186271917E0,1.891907555E-1,-8.016152591E-2,3.282301177E0,3.288726202E0
8.196241917E0,1.103402850E0,5.468608439E-1,1.660273030E0,2.067138400E0
8.206211917E0,-2.556234576E-2,2.247198996E-1,-1.429569383E0,1.447349677E0
8.216181917E0,4.066504598E-1,-5.592127946E-1,6.285604799E-1,9.344366340E-1
8.226151917E0,-2.923869489E-1,1.053937232E-1,-8.477685016E-1,9.029448472E-1
8.236121917E0,1.134266062E0,2.746114718E0,-2.259943587E0,3.732968063E0
8.246091917E0,-1.323033991E0,-1.667815939E-1,-5.961072636E-1,1.460677552E0
8.256061917E0,-4.616123135E-1,-2.358632308E-1,-1.747763164E0,1.823017682E0
8.266031917E0,1.041477547E-1,5.623936799E-1,-1.074328228E0,1.217092662E0
8.276002917E0,-1.131353491E0,9.705267012E-1,5.476548958E-1,1.588020366E0
8.285972917E0,-4.453786521E-1,1.783869136E0,8.046879709E-2,1.840387586E0
8.295942917E0,-5.030988201E-2,3.607805148E-1,-9.144290990E-1,9.843140968E-1
8.305912917E0,2.062622498E-1,-1.674467146E-2,-4.777543563E-1,5.206474091E-1
8.315882917E0,-1.612208370E-1,1.034080380E0,7.393956220E-1,1.281413391E0
8.325852917E0,-1.276176743E0,1.527956387E-1,-9.769557148E-1,1.614439858E0
8.335822917E0,-1.016417660E-1,-4.564854017E-1,-9.628393668E-1,1.070406286E0
8.345792917E0,-1.239033621E0,-9.199187574E-1,-3.531186157E-1,1.583081676E0
8.355762917E0,-9.255317190E-1,-1.704241461E0,-1.491312472E0,2.446438392E0
8.365732917E0,-1.919572194E-1,-1.171484978E0,1.959635854E-2,1.187269407E0
8.375703917E0,-6.970856081E-1,-1.450371145E0,1.188644802E0,2.000595228E0
8.385673917E0,-1.339042936E0,-6.505009872E-1,-1.002229135E0,1.794617162E0
8.395643917E0,-4.408002092E-2,-6.143119848E-1,5.991267657E-1,8.592293898E-1
8.405613917E0,-1.452411823E0,-1.501298931E0,1.224930283E0,2.421539342E0
8.415583917E0,-6.792918000E-1,-1.405831441E-1,-6.857544351E-1,9.754281701E-1
8.425553917E0,-6.246491311E-1,-1.042488384E0,7.876304734E-1,1.448216258E0
8.435523917E0,-1.286099761E0,-4.709525827E-1,-7.438050073E-1,1.558555363E0
8.445493917E0,-2.346679686E-1,9.774445421E-1,-1.129604296E0,1.512108711E0
8.455463917E0,-5.624498132E-1,-1.879468481E0,1.429409169E0,2.427336428E0
8.465433917E0,-5.053898323E-1,-7.829734585E-1,5.194865191E-1,1.066926690E0
8.475403917E0,-8.274510352E-1,1.769854822E0,6.741611606E-1,2.066773954E0
8.485374917E0,-1.672300314E0,-2.427614835E-1,5.299033338E-1,1.770965562E0
8.495344917E0,-1.527534218E0,1.198511686E0,-1.269617629E0,2.319853438E0
8.505314917E0,-1.112772501E0,8.828845400E-1,-1.287965022E0,1.917446648E0
8.515284917E0,-1.527142601E0,-5.236956373E-1,-1.371704167E-1,1.620258426E0
8.525254917E0,-1.185261822E0,4.956711021E-1,-5.226598030E-1,1.386978262E0
8.535224917E0,-1.596533117E0,-2.096839892E0,6.634245032E-1,2.717680555E0
8.545194917E0,-1.599029440E0,-2.234425753E-1,-2.760400343E-1,1.637992623E0
8.555164917E0,-2.346112396E0,1.330439489E0,1.648458731E-1,2.702126343E0
8.565134917E0,-1.892576915E0,-2.916034220E0,1.805381627E0,3.917206373E0
8.575104917E0,-1.671364906E0,-1.807219992E0,2.163891960E0,3.277488850E0
8.585075917E0,-1.533156462E0,5.154191959E-1,2.466386552E0,2.949455596E0
8.595045917E0,-1.967003053E0,-6.449850163E-1,1.793379048E0,2.738852879E0
8.605015917E0,-1.763631046E0,-2.307358074E-1,1.827474162E0,2.550155934E0
8.614985917E0,-1.392947394E0,9.758564383E-2,-2.319391644E-1,1.415493263E0
8.624955917E0,-2.212766789E0,-1.129923262E0,-9.650431824E-1,2.665402744E0
8.634925917E0,-2.182044641E0,-5.160854861E-1,-1.493744913E0,2.694241435E0
8.644895917E0,-3.174614176E0,-1.317712732E0,-1.710869572E0,3.839481307E0
8.654865917E0,-3.008692415E0,-2.326766445E0,2.514828980E-2,3.803512137E0
8.664835917E0,-3.013328965E0,-1.358889994E-1,9.205856323E-2,3.017795893E0
8.674805917E0,-2.678969971E0,-1.590426578E0,1.787093291E0,3.591662461E0
8.684776917E0,-2.052996884E0,-4.673796415E-1,1.904854460E0,2.839315137E0
8.694746917E0,-2.643629985E0,1.384613942E0,-1.485585124E0,3.333601420E0
8.704716917E0,-2.745939009E0,-1.541364345E0,2.114128647E0,3.792825467E0
8.714686917E0,-6.782609358E-2,1.424849510E-2,3.243818312E0,3.244558620E0
8.724656917E0,-9.009907356E-1,1.887406368E0,-9.545333970E-1,2.298960876E0
8.734626917E0,-2.070223951E0,5.650755054E-1,3.793094641E-1,2.179223073E0
8.744596917E0,-2.027044456E0,4.472356912E-1,-9.405772626E-2,2.077925852E0
8.754566917E0,-2.880553023E0,3.866363177E-1,-2.361269403E-1,2.915961127E0
8.764536917E0,-2.626402041E0,1.035300402E0,-1.200411154E0,3.067706234E0
8.774506917E0,-3.687022056E0,6.117865723E-1,-2.596532124E-1,3.746442879E0
8.784476917E0,-1.896975044E0,-7.911393875E-1,3.650060052E-1,2.087497361E0
8.794447917E0,-1.606676867E0,-1.151286356E0,4.327986234E-1,2.023409370E0
8.804417917E0,-2.242397116E0,-7.444353372E-2,8.123560095E-1,2.386170353E0
8.814387917E0,-1.616040891E0,-3.655211449E-2,3.354448217E-1,1.650892924E0
8.824357917E0,-1.744875663E0,-1.477314530E0,1.547720561E0,2.760885407E0
8.834327917E0,-1.153811038E0,-1.275452566E0,1.268252889E0,2.136942804E0
8.844297917E0,-1.326501389E0,-4.994030875E-1,-3.756461835E-1,1.466328556E0
8.854267667E0,-2.104001854E0,-8.845162055E-1,1.671453491E0,2.828948478E0
8.864237667E0,-1.560994325E0,-2.044861946E-1,1.040213817E0,1.886945329E0
8.874207667E0,-1.106586220E0,-2.623578420E-1,-1.138773315E0,1.609400311E0
8.884178667E0,-1.870938855E0,-2.418889912E0,2.217908539E0,3.777639328E0
8.894148667E0,-1.736505374E0,-1.234125322E0,3.425957326E0,4.034315285E0
8.904118667E0,-2.033614241E0,-6.478024971E-1,-3.632226044E-1,2.164986286E0
8.914088667E0,-2.468276665E0,-2.024143214E0,3.132402542E0,4.472302665E0
8.924058667E0,5.031280562E-1,-5.053239781E-1,3.585647124E-1,7.981596437E-1
8.934028667E0,-4.472445352E-1,-1.747905251E0,1.142314389E0,2.135434992E0
8.943998667E0,-1.663478182E0,-1.561768497E0,2.294260311E0,3.235724165E0
8.953968667E0,-1.151087259E-1,9.957688388E-1,-2.177345234E-1,1.025774791E0
8.963938667E0,-2.057184222E-1,-1.146474975E0,-1.630239392E0,2.003598117E0
8.973908667E0,1.148702326E-1,-1.890497206E0,2.006204249E0,2.758990820E0
8.983878667E0,4.032181442E-2,6.295150378E-1,1.572327983E0,1.694145897E0
8.993849667E0,-1.270610925E-1,8.702852520E-1,-1.420358849E-1,8.909069164E-1
9.003819667E0,-1.467491792E0,-4.743904531E-1,8.791247803E-1,1.775229236E0
9.013789667E0,-2.144798901E-1,2.277727601E0,-1.897257172E0,2.972142229E0
9.023759667E0,-9.238086907E-1,5.687978429E-1,1.219390047E-1,1.091706281E0
9.033729667E0,1.509337537E0,-1.030738404E-1,-1.263044189E0,1.970787823E0
9.043699667E0,9.337857217E-1,4.474055529E-2,-2.207210473E0,2.397026400E0
9.053669667E0,1.593972548E-1,-9.881721362E-1,-9.060705042E-1,1.350131628E0
9.063639667E0,1.445704190E0,-1.253343951E0,3.116156638E-1,1.938565445E0
9.073609667E0,4.569564315E-1,-5.912078816E-1,-3.196590936E-1,8.127225084E-1
9.083579667E0,4.104171995E-1,-1.062139414E0,9.058769614E-1,1.455058584E0
9.093550667E0,1.171997121E0,-7.980391020E-1,-4.685525930E-1,1.493313494E0
9.103520667E0,-2.920003566E-1,-2.182853311E-1,-1.384749305E-1,3.899846156E-1
9.113490667E0,5.508235385E-1,-5.004719585E-1,-9.922321504E-1,1.240323906E0
9.123460667E0,4.234174968E-1,-1.009561836E0,-1.992112459E0,2.273105701E0
9.133430667E0,-1.229037952E-1,-8.778687984E-1,9.627955127E-1,1.308714701E0
9.143400667E0,8.760821816E-1,-1.243183829E0,-4.624258804E-1,1.589611184E0
9.153370667E0,3.601271615E-1,-1.623360435E0,-9.510841244E-1,1.915607394E0
9.163340667E0,1.141786458E0,-1.516288561E0,2.378947290E0,3.043385865E0
9.173310667E0,2.113757933E0,-4.976030222E-1,4.820777875E-1,2.224405620E0
9.183280667E0,5.310828634E-1,-1.498098165E0,-1.447162485E-1,1.596023156E0
9.193250667E0,2.159202201E0,-1.561150738E0,5.804992908E-1,2.726962633E0
9.203221667E0,1.174293542E0,1.523712186E0,-1.570377937E0,2.483294387E0
9.213191667E0,9.465626188E-1,1.069738163E0,-1.176650409E0,1.850628735E0
9.223161667E0,1.023850311E0,-2.575255861E0,3.007626468E-1,2.787592219E0
9.233131667E0,3.134622510E-1,-2.551160362E0,-1.275722122E-1,2.573509752E0
9.243101667E0,4.665726161E-1,6.030517092E-1,4.601846427E-1,8.905791798E-1
9.253071667E0,1.546473935E0,1.277563703E0,-1.066368413E0,2.271759723E0
9.263041667E0,1.617786869E0,3.109262770E-1,1.050089765E-1,1.650738135E0
9.273011667E0,1.104433056E0,1.286939128E0,-1.287087355E0,2.128985335E0
9.282981667E0,1.487404924E0,-1.278386114E0,7.221773261E-1,2.090020228E0
9.292951667E0,3.438226758E-1,4.434443566E-1,1.681005503E0,1.772184085E0
9.302922667E0,2.814846984E0,1.882548209E0,1.634532418E0,3.760192485E0
9.312892667E0,2.141477975E0,-5.599311250E-1,2.257642708E0,3.161708617E0
9.322862667E0,3.350086779E0,8.804234469E-1,-2.527730277E0,4.288081998E0
9.332832667E0,3.330386925E0,5.585114211E-2,-9.834373534E-2,3.332306695E0
9.342802667E0,1.291040365E0,-1.375471821E0,8.585928673E-1,2.072652809E0
9.352772667E0,1.833482761E0,-1.025342301E0,3.873441231E-1,2.136122969E0
9.362742667E0,8.614576375E-1,4.923238635E-2,3.422299308E-1,9.282534215E-1
9.372712667E0,1.430560047E0,-1.107310617E-1,-3.040470278E-1,1.466699701E0
9.382682667E0,1.353851741E0,-9.305510420E-1,1.122782350E-1,1.646646950E0
9.392652667E0,1.394515325E0,-9.478699100E-1,-1.034288249E0,1.978100740E0
9.402623667E0,2.166919941E0,-1.533732852E0,-1.928425171E0,3.281265325E0
9.412593667E0,1.406005981E0,-2.316954232E0,6.454495776E-1,2.785989032E0
9.422563667E0,1.202825323E0,5.309037924E-2,-3.459388196E-2,1.204493289E0
9.432533667E0,2.067804812E0,-3.619163364E-2,-1.857727071E0,2.779977778E0
9.442503667E0,1.480614698E0,-2.586614369E0,1.270477170E-1,2.983108262E0
9.452473667E0,1.650092736E0,-1.674070120E0,7.945260948E-1,2.481247372E0
9.462443667E0,2.410275940E0,1.368044980E0,-8.764175195E-1,2.906730955E0
9.472413667E0,1.849407360E0,-2.657153133E-1,-7.089573562E-1,1.998382532E0
9.482383667E0,1.628112467E0,-1.653407522E0,-1.145325120E0,2.587716420E0
9.492353667E0,1.439370486E0,3.828180858E-1,-1.277950496E0,1.962522497E0
9.502323667E0,1.313494112E0,1.070100983E0,-5.514532471E-1,1.781708051E0
9.512294667E0,2.242286750E0,-4.706979364E-2,3.902443421E-1,2.276478878E0
9.522264667E0,1.824623352E0,5.609350920E-1,-5.945144820E-1,1.999336396E0
9.532234667E0,2.107973575E0,3.157519841E-1,-2.218207331E0,3.076312025E0
9.542204667E0,1.594102868E0,2.448240888E-1,-5.732657003E-1,1.711647263E0
9.552174667E0,1.767147853E0,3.541298917E-1,-1.405291743E0,2.285402459E0
9.562144667E0,8.635676052E-1,-5.593966895E-1,9.617441833E-1,1.408412418E0
9.572114667E0,-5.521269925E-2,3.281781945E-1,2.171261791E0,2.196617203E0
9.582084667E0,5.361925989E-1,7.035217845E-1,2.876309699E0,3.009252879E0
9.592054667E0,1.079411870E0,8.528251737E-1,3.242691554E0,3.522426617E0
9.602024667E0,-1.089886645E0,2.304194146E0,-1.185426494E0,2.811120690E0
9.611995667E0,1.224178478E0,9.422554135E-2,-3.716858643E-1,1.282825701E0
9.621965667E0,-1.552500075E0,-5.228983694E-1,-2.909211981E-1,1.663825211E0
9.631935667E0,1.548188484E-1,-3.570979384E-1,-1.516169570E0,1.565329990E0
9.641905667E0,6.283417209E-1,9.047923028E-2,-1.914702925E0,2.017197834E0
9.651875667E0,-7.879737049E-1,-1.499247728E0,-2.415192425E-2,1.693880050E0
9.661845667E0,5.168653585E-2,-7.825720471E-1,-5.838164163E-1,9.777178094E-1
9.671815667E0,1.475537853E0,-1.228386573E0,4.734244931E-1,1.977441852E0
9.681785667E0,-7.869764623E-1,-1.651710368E0,-5.523999113E-1,1.911184123E0
9.691755667E0,-1.364809277E0,-2.270405718E0,-1.160403335E-1,2.651586665E0
9.701725667E0,-1.555143017E-1,-8.936659285E-1,5.240286362E-1,1.047582694E0
9.711696667E0,-3.936414282E-1,-1.143768884E0,1.448861686E0,1.887421791E0
9.721666667E0,8.269266862E-1,-2.573989061E0,8.672946936E-1,2.839265313E0
9.731636667E0,6.653860979E-1,-2.804383099E-1,-1.082537134E0,1.301257450E0
9.741606667E0,6.695345512E-1,4.030479902E-1,4.879624254E-1,9.213205339E-1
9.751576667E0,1.138119523E0,3.379319349E-1,-1.027894319E0,1.570375997E0
9.761546667E0,1.091173252E0,-6.620296499E-1,5.116769779E-1,1.375047509E0
9.771516667E0,7.971379729E-1,9.687272206E-1,9.232005072E-1,1.557613737E0
9.781486667E0,-6.992729053E-1,2.198091740E0,-2.560345461E0,3.446151298E0
9.791456667E0,1.572748691E0,1.801785882E0,-7.574144018E-1,2.508714289E0
9.801426667E0,-7.692406878E-1,1.239538675E0,2.472126764E-1,1.479628828E0
9.811397667E0,5.295611255E-1,4.907655805E-2,-2.829884561E0,2.879425311E0
9.821367667E0,1.452253948E0,1.436318531E0,-3.583629835E-1,2.073759022E0
9.831337667E0,-1.185578888E0,1.139265358E0,-1.142019689E-2,1.644278953E0
9.841307667E0,5.211809691E-1,1.284267243E0,-1.404379578E0,1.973133030E0
9.851277667E0,9.678068689E-1,1.463567433E0,1.105849983E0,2.074026025E0
9.861247667E0,-1.643853756E0,1.365818945E0,-1.685530078E-1,2.143857896E0
9.871217667E0,1.650277508E0,2.536863335E0,-1.848249904E0,3.546141444E0
9.881187667E0,1.034984945E0,1.729123702E0,-1.318722546E-2,2.015250981E0
9.891157667E0,-1.905986773E0,5.714162260E-1,6.110661954E-1,2.081514828E0
9.901127667E0,1.331989878E-1,-3.114168584E-2,-2.969040692E-2,1.399760523E-1
9.911097667E0,-1.027118101E0,-1.015504946E0,1.958679249E0,2.433648761E0
9.921068667E0,-1.124031900E0,3.231340354E0,-2.243722826E-1,3.428607752E0
9.931038667E0,-2.591756045E-1,9.099054006E-1,-2.229315287E-1,9.720073552E-1
9.941008667E0,-4.348454413E-1,-3.878901069E0,1.408641613E0,4.149606638E0
9.950978667E0,3.044426651E-1,-5.905360365E-1,1.419271266E-1,6.793831437E-1
9.960948667E0,1.750199553E-1,1.419363360E0,-6.891282785E-1,1.587489249E0
9.970918667E0,-2.456309680E-1,-9.190466452E-1,-1.285185256E0,1.598962930E0
9.980888667E0,6.157408981E-1,-2.466042151E0,1.608488919E0,3.007945703E0
9.990858667E0,2.625569032E-1,1.285308048E0,-1.019374341E-1,1.315805512E0
1.000082867E1,1.302421240E-1,-2.196732847E0,8.081167781E-1,2.344280474E0
1.001079867E1,6.946429338E-1,-9.166975263E-1,6.328008807E-1,1.312745259E0
1.002076867E1,-3.475689503E-1,2.733607231E0,-1.690997810E0,3.233092369E0
1.003073967E1,7.579229634E-1,4.345659444E-1,-1.091857011E0,1.398372808E0
1.004070967E1,7.987954393E-2,-1.092218369E0,2.559163738E0,2.783638042E0
1.005067967E1,4.913264382E-1,2.693470189E-1,2.658323160E0,2.716731770E0
1.006064967E1,8.531561992E-1,1.416341811E0,1.133629519E0,2.004748242E0
1.007061967E1,3.218360120E-1,3.007277389E0,1.346023196E-1,3.027443393E0
1.008058967E1,3.632911630E-2,6.190575850E-1,2.082971758E0,2.173320833E0
1.009055967E1,-7.914016351E-2,-5.803171501E-1,6.377014321E-1,8.658488763E-1
1.010052967E1,-3.870593637E-2,1.434811704E0,1.251370223E0,1.904234810E0
1.011049967E1,1.031676517E-1,3.001562905E0,1.280802768E0,3.265038923E0
1.012046967E1,1.424932833E-1,2.647971835E0,-2.074083406E0,3.366583007E0
1.013044067E1,-2.084506068E-1,1.112581882E-1,-8.875535417E-1,9.184668362E-1
1.014041067E1,-5.706932909E-1,-5.452727401E-1,-1.946830451E-1,8.129665931E-1
1.015038067E1,4.079463489E-1,1.162272105E0,1.646944302E-1,1.242747330E0
1.016035067E1,-9.547527406E-2,2.101917614E0,1.537207852E0,2.605797606E0
1.017032067E1,-8.636434363E-2,-1.943702191E-2,-1.197232023E0,1.200500360E0
1.018029067E1,3.096690526E-1,-1.212423966E0,-7.242554265E-1,1.445825964E0
1.019026067E1,-1.448383091E-1,-4.089241496E-1,1.920188198E0,1.968583199E0
1.020023067E1,3.467156953E-1,2.232364025E0,7.073511261E-1,2.367278296E0
1.021020067E1,2.883695829E-1,-1.198859303E0,1.113122165E0,1.661162725E0
1.022017067E1,-4.489466596E-2,-2.690055123E0,1.735999736E0,3.201891187E0
1.023014067E1,5.729494025E-1,7.237844333E-1,9.692929387E-2,9.281865178E-1
1.024011167E1,-2.302502144E-1,-5.830445838E-1,1.747560850E0,1.856589635E0
1.025008167E1,4.804914014E-1,-8.173471928E-2,9.501877463E-1,1.067899482E0
1.026005167E1,7.520032422E-1,-6.255234361E-1,9.408988595E-2,9.826705206E-1
1.027002167E1,2.397769550E-1,-7.642369330E-2,-3.359494364E-1,4.197565876E-1
1.027999167E1,8.540373015E-1,4.462747014E-1,-1.437348518E0,1.730465713E0
1.028996167E1,4.466253881E-1,-1.779918757E-1,-4.459074962E-1,6.557353432E-1
1.029993167E1,9.173208760E-2,1.005703551E-1,1.015611658E0,1.024693228E0
1.030990167E1,-2.652547902E-1,-1.383498293E0,4.263947529E-1,1.471815246E0
1.031987167E1,-3.717064027E-1,2.171246881E0,4.331921411E-1,2.245024298E0
1.032984167E1,-3.764425012E-1,2.970669434E0,-2.320266972E0,3.788169038E0
1.033981267E1,-6.968656797E-1,-3.351343346E-1,-2.453126237E0,2.572112970E0
1.034978267E1,-2.923921200E-1,-1.262527588E0,2.157212101E0,2.516551830E0
1.035975267E1,-3.597733684E-1,-1.287337616E-1,2.173113604E0,2.206452355E0
1.036972267E1,-2.106540386E-1,9.611129764E-1,2.349942176E0,2.547614867E0
1.037969267E1,-1.002225188E0,1.329020662E0,-5.594031215E-3,1.664566773E0
1.038966267E1,-8.313824838E-1,-5.167161083E-1,-1.013761014E0,1.409220978E0
1.039963267E1,-2.428913282E-1,-1.324514213E0,2.288071033E0,2.654920555E0
1.040960267E1,-9.426869380E-1,-1.663801533E0,-7.222837454E-1,2.044159488E0
1.041957267E1,1.721715938E-1,-1.683737907E-1,1.089861941E0,1.116150456E0
1.042954267E1,-1.191179698E-1,3.078599972E-1,1.241603619E-1,3.526792651E-1
1.043951367E1,-4.473056020E-2,-2.141030809E0,-6.645758200E-1,2.242247705E0
1.044948367E1,6.037029429E-1,-6.501533702E-1,6.359022439E-1,1.091571487E0
1.045945367E1,-1.086110148E0,-8.133719632E-1,1.374638885E0,1.931538575E0
1.046942367E1,-3.455809335E-1,-1.360060314E0,7.101987201E-1,1.572759505E0
1.047939367E1,-6.220938979E-1,8.195890152E-1,-2.055986273E-1,1.049284407E0
1.048936367E1,-8.649158270E-1,-7.158357283E-1,-1.083781421E0,1.560475039E0
1.049933367E1,-3.501146087E-1,-8.912969291E-1,-4.166211319E-1,1.044300542E0
1.050930367E1,-9.192366797E-1,1.900315851E-2,6.661253321E-1,1.135376656E0
1.051927367E1,-1.101605927E-1,-9.411973599E-1,-7.499989629E-2,9.505855095E-1
1.052924367E1,6.431487713E-1,1.227418274E-2,3.067864484E-1,7.126772920E-1
1.053921367E1,2.886441462E-1,9.363114265E-1,1.089866034E0,1.465538298E0
1.054918467E1,7.387961362E-1,-5.072994599E-1,-7.820650935E-3,8.962330252E-1
1.055915467E1,2.799179443E-1,-3.383090803E-1,9.291845477E-1,1.027711542E0
1.056912467E1,5.033599349E-1,4.181876010E-1,-3.380029786E-1,7.365447082E-1
1.057909467E1,4.282792374E-1,5.077213365E-1,-1.043154967E0,1.236679565E0
1.058906467E1,-4.485307399E-1,-1.917418957E-2,6.198411119E-1,7.653433727E-1
1.059903467E1,-2.789011865E-1,-7.445753780E-1,1.510126473E0,1.706651789E0
1.060900467E1,-1.075914139E0,3.535396153E-1,1.797911809E0,2.124869023E0
1.061897467E1,-9.439633121E-1,8.646932673E-1,2.090580740E0,2.451385121E0
1.062894467E1,-8.413099961E-2,-1.189711334E0,1.909053930E0,2.250994889E0
1.063891467E1,-7.642484447E-3,1.873477423E0,-3.224797904E-2,1.873770529E0
1.064888467E1,4.305483225E-1,1.311761144E0,-1.501449789E0,2.039715820E0
1.065885567E1,2.295549257E-1,-1.919928874E0,2.512349761E-1,1.949856753E0
1.066882567E1,-6.733316600E-1,1.722590024E0,-2.591433352E-1,1.867577892E0
1.067879567E1,-8.616243562E-1,-7.274693486E-1,-1.984680648E0,2.282666305E0
1.068876567E1,-1.292315205E0,-2.048199829E0,1.100199818E0,2.660007663E0
1.069873567E1,-1.556635701E-1,2.364201781E-1,4.364332527E-1,5.201919182E-1
1.070870567E1,-4.627767134E-1,-2.159230852E0,1.471265293E0,2.653499901E0
1.071867567E1,-6.554396186E-2,-4.044706178E-1,8.897901016E-1,9.796014070E-1
1.072864567E1,-6.483409526E-1,1.228695306E0,-1.542042915E0,2.075556430E0
1.073861567E1,-9.885235539E-1,-9.741917360E-1,-1.620596749E0,2.133673400E0
1.074858567E1,-1.215548791E0,-8.670686987E-1,-1.888752397E0,2.407644619E0
1.075855667E1,-1.155838560E0,-7.360334730E-1,-2.563870162E0,2.907084151E0
1.076852667E1,-1.469906692E0,-2.046614648E0,1.157748699E-3,2.519773510E0
1.077849667E1,-1.310045278E0,-1.398602821E0,1.145685309E0,2.232689702E0
1.078846667E1,-1.139336840E0,-5.621036580E-1,1.720757799E0,2.138938138E0
1.079843667E1,-1.590737065E0,3.717036983E-1,-3.560708749E-1,1.671943335E0
1.080840667E1,-1.673489930E0,5.607295623E-1,-1.545712627E0,2.346106075E0
1.081837667E1,-1.204572471E0,-2.348628892E0,1.976891572E0,3.297749656E0
1.082834667E1,-1.710861971E0,4.121462578E-1,-3.801105326E-1,1.800388080E0
1.083831667E1,-7.743206757E-1,1.320394265E0,-9.765481639E-1,1.815670631E0
1.084828642E1,-1.801810294E0,-1.524449227E0,1.094618066E0,2.601663793E0
1.085825642E1,-1.760277667E0,2.446787855E-1,9.725264490E-2,1.779860458E0
1.086822742E1,-9.384653945E-1,-6.995898244E-1,1.621563878E0,1.999903155E0
1.087819742E1,-1.291555505E0,-9.776556265E-1,1.772540156E0,2.401213183E0
1.088816742E1,-2.025029798E0,4.198266340E0,-3.360326423E0,5.746127358E0
1.089813742E1,-1.535265261E0,3.849979278E-1,-3.777886033E-3,1.582806715E0
1.090810742E1,-1.398467750E0,-2.527500189E0,-9.745501703E-1,3.048559871E0
1.091807742E1,-8.368157896E-1,-1.402232480E0,-2.027215633E0,2.603098119E0
1.092804742E1,-1.315169632E0,7.875731707E-2,2.215732205E-1,1.336027158E0
1.093801742E1,-2.069312809E0,-9.895038396E-2,-4.018902415E-1,2.110299136E0
1.094798742E1,-8.722211190E-1,-2.434968001E0,5.667735368E-1,2.647842723E0
1.095795742E1,-4.810207937E-1,-3.189721335E0,2.247158065E0,3.931338521E0
1.096792842E1,-8.912255931E-1,8.676858723E-2,-1.451173675E-1,9.071223158E-1
1.097789842E1,-1.445429955E0,5.326804689E-1,2.899359423E-1,1.567507285E0
1.098786842E1,-5.673386336E-1,-9.594131908E-1,4.608424544E-1,1.206118802E0
1.099783842E1,1.687462583E-1,-2.475424886E0,-5.165021002E-2,2.481707358E0
1.100780842E1,3.116579830E-1,-1.596350977E0,-6.741658384E-1,1.760672234E0
1.101777842E1,-2.119440988E-1,1.415394562E0,-6.420032287E-1,1.568575855E0
1.102774842E1,-2.992182510E-1,-8.360231996E-2,-2.817634644E0,2.834710902E0
1.103771842E1,-3.265910409E-1,-2.897821898E0,-3.055125740E0,4.223485142E0
1.104768842E1,-9.126304223E-1,-1.760990151E0,1.311495388E-1,1.987757732E0
1.105765842E1,-1.412560856E0,-7.571404597E-1,4.244473377E0,4.536975214E0
1.106762842E1,-1.654238558E0,7.236581334E-1,4.768365188E0,5.098773663E0
1.107759942E1,-4.676059288E-1,1.136421857E0,4.229350138E0,4.404260725E0
1.108756942E1,-4.498971976E-2,1.622018499E0,2.401619868E0,2.898404057E0
1.109753942E1,2.782125307E-1,1.933187728E0,-3.405242980E-1,1.982567477E0
1.110750942E1,-4.900965860E-1,1.432082808E0,7.516408610E-1,1.689976277E0
1.111747942E1,-1.469194794E0,9.517395973E-2,9.851763153E-1,1.771486324E0
1.112744942E1,-1.319312530E0,9.590518329E-1,-2.127953804E0,2.681147769E0
1.113741942E1,-2.204202957E-1,4.865476915E-1,2.241761670E0,2.304519288E0
1.114738942E1,-6.402924795E-1,1.393423065E0,1.924678275E0,2.460891863E0
1.115735942E1,-9.058266753E-1,2.851121063E0,-3.084751242E-1,3.007419190E0
1.116732942E1,-1.257124176E0,-9.940544352E-1,1.036324250E0,1.908526490E0
1.117729942E1,-8.349469464E-1,-1.551932603E0,2.636634083E0,3.171351525E0
1.118727042E1,-4.604568306E-1,9.799904197E-1,3.187652882E0,3.366531244E0
1.119724042E1,-1.016554375E0,1.723162758E0,5.827510536E-1,2.083811767E0
1.120721042E1,-2.672305607E0,-1.543747963E0,-1.864143221E0,3.605468760E0
1.121718042E1,-2.961129409E0,-1.045335978E-2,-1.247273079E0,3.213111698E0
1.122715042E1,-2.177429142E0,2.854689619E-1,-4.201134984E0,4.740487881E0
1.123712042E1,-2.880935431E0,-2.828858667E0,-1.567649041E0,4.331253148E0
1.124709042E1,-1.067262306E-1,-9.418937632E-1,-2.178269094E0,2.375586369E0
1.125706042E1,1.042429766E0,-9.943541050E-1,-2.403502087E0,2.802181683E0
1.126703042E1,3.079945197E-1,-2.723602938E0,7.679937690E-1,2.846522091E0
1.127700042E1,3.850540246E-1,-1.506519033E0,3.798854148E-1,1.600680832E0
1.128697142E1,7.062917568E-2,-6.197267988E-1,1.652482785E0,1.766281161E0
1.129694142E1,1.034213112E-1,-1.681349319E0,3.286181974E-1,1.716281277E0
1.130691142E1,1.171780555E-1,-2.220550311E-1,-6.770151865E-1,7.220725007E-1
1.131688142E1,-5.537132690E-1,1.778544077E0,-1.931806031E0,2.683596832E0
1.132685142E1,-1.505943667E0,1.206930215E0,-3.355405991E0,3.870826299E0
1.133682142E1,-7.807580946E-1,-2.833896920E-1,-3.429766202E0,3.528907638E0
1.134679142E1,-6.596284908E-1,-8.341368878E-1,-4.006415686E0,4.145149062E0
1.135676142E1,-1.162820136E0,-9.994365048E-1,5.866447145E-1,1.641699125E0
1.136673142E1,-1.457065037E0,1.711259874E0,-4.902896172E-1,2.300398397E0
1.137670142E1,-7.521220138E-1,7.002517292E-1,-9.983132547E-1,1.432713985E0
1.138667142E1,-3.862967772E-1,-1.005350379E0,3.500011727E0,3.661971692E0
1.139664242E1,-5.496613678E-1,3.548233715E-1,4.108799847E0,4.160560471E0
1.140661242E1,-1.098977750E0,-7.975768796E-1,5.716857242E0,5.875911648E0
1.141658242E1,-4.161504676E-1,7.509655076E-1,3.275737093E0,3.386382127E0
1.142655242E1,1.012348546E0,3.272359449E0,-1.063707930E-1,3.427025049E0
1.143652242E1,4.034809034E-1,3.694346863E-1,5.835515374E-1,7.998820061E-1
1.144649242E1,4.358869035E-1,-1.714671432E0,1.493584700E0,2.315359749E0
1.145646242E1,-1.059670574E0,-2.180049571E-1,-1.920387003E0,2.204158372E0
1.146643242E1,-2.766448703E0,-2.038532919E0,-1.405754843E0,3.712815854E0
1.147640242E1,-3.484390598E0,-3.626168621E0,3.846609528E0,6.331388597E0
1.148637242E1,-2.025140603E0,-3.275608454E0,3.105942721E0,4.947492839E0
1.149634242E1,2.730086732E-1,-3.866064092E0,3.244684870E0,5.054598421E0
1.150631342E1,1.148982261E0,-2.450035399E0,2.824154874E0,3.911353275E0
1.151628342E1,1.537169991E0,1.913115406E-1,1.817684169E0,2.388193339E0
1.152625342E1,1.235817799E0,-1.237240719E0,7.409767091E-1,1.899225293E0
1.153622342E1,1.456891813E0,-2.185326976E0,-1.126556143E0,2.857851726E0
1.154619342E1,4.624807712E-1,-1.484710673E0,-1.317058429E0,2.037865832E0
1.155616342E1,2.383229535E-1,-2.908755898E-2,-3.040726971E0,3.050190884E0
1.156613342E1,3.886412914E-1,7.518148157E-1,-5.330034690E0,5.396808073E0
1.157610342E1,4.728974397E-1,3.657097176E-1,-3.881444315E0,3.927210913E0
1.158607342E1,9.835094203E-1,9.401460305E-1,-2.188177201E0,2.576680966E0
1.159604342E1,7.500542922E-1,1.213077100E0,-1.450612927E0,2.034309553E0
1.160601442E1,6.353396686E-1,1.675043389E0,2.934816939E-1,1.815367279E0
1.161598442E1,1.674699281E0,-2.469934058E-1,9.363140577E-1,1.934504443E0
1.162595442E1,1.397120698E0,1.725267756E-1,4.320016479E-1,1.472527472E0
1.163592442E1,1.428147632E0,-5.724137610E-1,-5.261558533E-1,1.626069849E0
1.164589442E1,1.974334584E0,-1.174354792E-1,-9.983459991E-1,2.215509620E0
1.165586442E1,2.028384492E0,1.810566646E0,-1.863829225E-1,2.725295180E0
1.166583442E1,1.429630486E0,1.972492127E0,-1.260636306E-1,2.439356586E0
1.167580442E1,1.005687690E0,2.634193456E0,1.188839514E0,3.060019981E0
1.168577442E1,6.331675742E-1,2.478727978E0,-7.822258919E-1,2.675232871E0
1.169574442E1,1.342088020E-1,6.913595760E-1,2.725971937E-2,7.047929896E-1
1.170571442E1,1.292810244E-1,2.169685674E0,-8.696505368E-1,2.341055651E0
1.171568542E1,5.165262200E-1,2.986243200E-1,-4.082027786E0,4.125400182E0
1.172565542E1,-8.981476732E-2,-1.014089627E0,1.824559325E0,2.089368612E0
1.173562542E1,-3.667251231E-1,-8.313460118E-1,2.238395428E0,2.415789229E0
1.174559542E1,9.412168019E-2,-8.123197567E-1,3.683702592E0,3.773378733E0
1.175556542E1,-2.151229376E-1,2.649215537E-1,3.297715607E0,3.315326460E0
1.176553542E1,-4.764037956E-1,-5.790947896E-1,-1.043473640E0,1.284970268E0
1.177550542E1,3.515433758E-2,-1.556938112E0,1.247423937E0,1.995334205E0
1.178547542E1,-6.825527921E-2,-2.583051369E-1,8.537502033E-1,8.945779655E-1
1.179544542E1,1.761681291E0,-1.088281731E0,1.120624727E0,2.354501620E0
1.180541542E1,1.211548492E0,-7.387664616E-2,1.332751186E0,1.802646175E0
1.181538642E1,8.747938938E-1,2.702056825E-2,2.046690370E0,2.225968539E0
1.182535642E1,4.849956578E-1,-1.021722290E0,2.689257270E-1,1.162522375E0
1.183532642E1,6.189736775E-1,-2.996077925E0,-1.551656907E0,3.430342621E0
1.184529642E1,1.275826349E0,-1.560356686E0,1.575245744E-1,2.021697270E0
1.185526671E1,1.837509446E0,1.245436176E0,-9.442311877E-1,2.412286212E0
1.186523671E1,8.602062602E-1,-2.237788779E0,7.973742735E-1,2.526550843E0
1.187520671E1,5.442659227E-1,-1.699822428E0,-7.450007629E-1,1.934075442E0
1.188517671E1,1.609913886E0,4.864240229E-1,-3.176767706E0,3.594479671E0
1.189514671E1,6.717274033E-1,-8.060500798E-1,-5.450207251E-1,1.182362900E0
1.190511671E1,1.367581880E0,-6.663504499E-1,2.144070484E0,2.628943012E0
1.191508671E1,1.414960114E0,3.800886056E-1,-2.199851167E-1,1.481544102E0
1.192505771E1,1.033390409E0,5.006745645E-1,4.933716846E-1,1.249794534E0
1.193502771E1,5.878338920E-1,1.320357135E0,1.848388483E0,2.346365622E0
1.194499771E1,1.365692791E0,2.217036134E0,-2.700759913E0,3.751595677E0
1.195496771E1,1.884820437E0,-9.909156498E-1,1.712748867E0,2.732758787E0
1.196493771E1,-1.116955745E0,-1.515906153E0,1.881651539E0,2.661986873E0
1.197490771E1,1.319943591E0,2.735987341E0,-1.541576307E0,3.406513661E0
1.198487771E1,3.026940406E0,1.764111102E0,1.650226344E0,3.872686818E0
1.199484771E1,7.374154624E-1,-8.925306916E-2,2.166534902E0,2.290332106E0
1.200481771E1,1.701273122E0,1.979536560E0,4.842365795E-1,2.654690244E0
1.201478771E1,5.116316620E-1,1.327416479E0,3.513048095E-1,1.465338369E0
1.202475771E1,1.813455462E-2,9.096943161E-1,1.036451134E0,1.379167707E0
1.203472871E1,1.126926929E0,-2.414113614E-1,1.003561715E0,1.528194970E0
1.204469871E1,-5.461927995E-2,3.730383253E-1,2.843676388E-2,3.780866401E-1
1.205466871E1,7.509907968E-1,1.490711378E0,-2.658331347E-1,1.690229228E0
1.206463871E1,1.193280767E-1,-1.077963149E0,-8.988100165E-1,1.408581977E0
1.207460871E1,-3.487701146E-1,-8.113619828E-1,-4.100067616E-1,9.736808535E-1
1.208457871E1,-6.632839508E-1,-1.076540814E0,-8.878166664E-1,1.545025617E0
1.209454871E1,2.140979938E-1,-2.656542683E0,1.603709405E0,3.110456692E0
1.210451871E1,1.107934807E0,2.322201231E-1,1.638092787E0,1.991178973E0
1.211448871E1,1.504655233E0,-2.195204093E0,1.939208021E0,3.292937310E0
1.212445871E1,1.779827541E0,-5.227390328E-1,-3.689008355E-2,1.855371405E0
1.213442871E1,1.603060072E0,-9.628463835E-1,3.489536440E-1,1.902273218E0
1.214439971E1,5.511620557E-1,-3.043620758E0,6.422569978E-1,3.159098128E0
1.215436971E1,9.103437225E-1,-1.543719311E0,1.340005242E0,2.237724079E0
1.216433971E1,8.397555504E-1,-7.006972870E-1,1.533682566E0,1.883705997E0
1.217430971E1,8.511057269E-1,-6.247632980E-1,3.491840243E-1,1.112042994E0
1.218427971E1,1.167384180E0,-8.504345396E-1,-5.834550583E-1,1.557704893E0
1.219424971E1,1.080512828E0,-1.206627621E0,-7.955136895E-3,1.619728827E0
1.220421971E1,1.479471568E0,7.574743357E-1,-1.772571731E-1,1.671533306E0
1.221418971E1,1.323329713E0,6.762696666E-1,1.965880680E-1,1.499062728E0
1.222415971E1,1.029555293E0,-7.468049213E-1,3.014330301E0,3.271679821E0
1.223412971E1,-1.676795069E-1,9.227265903E-1,1.607805964E0,1.861338442E0
1.224409971E1,1.303247159E-1,-5.694609171E-1,7.134854400E-1,9.221343399E-1
1.225407071E1,3.684088654E-1,2.086580075E0,4.607372046E-1,2.168368113E0
1.226404071E1,1.203321679E0,2.933618552E0,-2.903150758E0,4.299114466E0
1.227401071E1,2.288343367E0,-1.387967320E0,-1.210648459E0,2.937454398E0
1.228398071E1,4.894863559E-1,1.625373924E-1,1.978482015E0,2.044604211E0
1.229395071E1,-9.731696427E-2,1.802130868E0,-6.580883342E-1,1.920996229E0
1.230392071E1,3.421242423E-1,2.014541209E-2,1.287238213E0,1.332079972E0
1.231389071E1,-4.218412337E-1,1.623260155E-1,3.802308683E0,3.829079666E0
1.232386071E1,3.866626301E-1,8.382533276E-1,1.325184889E0,1.615020625E0
1.233383071E1,1.075683466E0,-6.827434114E-1,1.261586478E0,1.792995797E0
1.234380071E1,-4.488153896E-1,-6.817303813E-1,3.058221840E0,3.165266559E0
1.235377171E1,-2.631912164E-1,-1.056162098E-1,2.884589356E-1,4.045157076E-1
1.236374171E1,-9.929361552E-2,-5.835734645E-1,2.792631365E0,2.854681620E0
1.237371171E1,-1.161934648E0,-1.343618821E0,3.332826968E0,3.776657154E0
1.238368171E1,-5.671289013E-1,-3.217622201E0,2.497248157E0,4.112295731E0
1.239365171E1,4.809961988E-1,-5.566452822E-1,4.108540816E0,4.173885354E0
1.240362171E1,4.398051958E-1,1.501528727E0,9.497877967E-1,1.830331660E0
1.241359171E1,7.813586768E-1,1.501415876E-1,-3.552744842E-1,8.713689444E-1
1.242356171E1,1.130177981E0,-1.204383168E-1,-3.604726589E-1,1.192370829E0
1.243353171E1,-1.081895840E0,-1.457619938E0,-3.072490801E0,3.568662805E0
1.244350171E1,5.419591230E-1,-1.154649090E0,-1.204138754E0,1.754105000E0
1.245347171E1,-1.119573690E-1,6.912002394E-1,4.182408106E-1,8.156087291E-1
1.246344271E1,2.133732314E-1,-1.164569476E0,-1.337479829E0,1.786225768E0
1.247341271E1,1.074594861E0,-1.908229180E0,-5.051865685E-1,2.247511110E0
1.248338271E1,2.727681517E-1,-2.176523700E-1,-8.454196751E-2,3.590576041E-1
1.249335271E1,1.512567978E0,4.138018969E-1,-4.121293008E-1,1.621402004E0
1.250332271E1,9.209697944E-1,3.613313225E-1,-5.534775531E-1,1.133615053E0
1.251329271E1,-7.474934310E-2,-1.875690010E0,-2.684275442E-1,1.896273668E0
1.252326271E1,7.069934227E-2,-1.176779924E0,-2.406581231E0,2.679821376E0
1.253323271E1,4.030388539E-1,-1.933615744E-2,-2.630065906E-1,4.816499470E-1
1.254320271E1,4.924298443E-1,-1.969100449E0,2.989198968E0,3.613191692E0
1.255317271E1,1.272463761E0,-2.476008146E0,2.556401514E0,3.779546145E0
1.256314371E1,1.110452180E0,4.930825397E-1,6.178653377E-1,1.363081806E0
1.257311371E1,2.633523803E-1,1.765859712E0,-4.331997424E-1,1.837192699E0
1.258308371E1,3.231133728E-1,-1.277590015E0,1.465746106E0,1.971053055E0
1.259305371E1,-4.854773587E-1,-2.334065816E0,1.233990544E0,2.684452302E0
1.260302371E1,-1.338544022E0,-4.860150102E-1,4.764983743E-1,1.501652886E0
1.261299371E1,-1.598019626E0,-3.433642906E-1,3.899344397E-1,1.680361457E0
1.262296371E1,-2.014655960E0,-6.379908693E-1,1.167563835E0,2.414348007E0
1.263293371E1,-9.523928775E-1,-1.207415241E0,-4.184565729E-1,1.593740776E0
1.264290371E1,-1.427742420E0,-1.963504079E0,1.169253096E0,2.694614906E0
1.265287371E1,-1.536038409E0,-1.445572335E0,3.292425631E0,3.910135536E0
1.266284371E1,-7.538728894E-1,-6.290025294E-1,1.232140485E0,1.575480463E0
1.267281471E1,-1.763678481E-1,-1.345194061E0,1.651205168E0,2.137084740E0
1.268278471E1,-2.657027783E-1,-2.543918878E-1,1.350368847E0,1.399574657E0
1.269275471E1,1.449502833E-2,-5.036847112E-1,6.377710140E-1,8.128101010E-1
1.270272471E1,1.792746964E0,-1.572560703E0,3.883317178E-1,2.416131280E0
1.271269471E1,2.671815903E0,2.131950083E0,-2.790542740E-1,3.429530968E0
1.272266471E1,-8.734545891E-1,1.577467686E-1,-6.581824744E-1,1.104993725E0
1.273263471E1,8.207767309E-1,-5.175502136E-1,3.807257182E0,3.928961684E0
1.274260471E1,-1.216951758E-3,-1.263707263E0,4.980859437E0,5.138668919E0
1.275257471E1,-2.794038790E0,-1.251535115E0,-3.161231654E0,4.400724767E0
1.276254471E1,-2.217329372E0,-9.779196283E-1,-5.376646940E0,5.897559551E0
1.277251571E1,-1.660687890E0,-3.028189371E0,-1.395446786E0,3.724927767E0
1.278248571E1,3.198346928E-1,-2.895709299E0,3.514420436E0,4.564929087E0
1.279245571E1,5.081537746E-1,-1.749694499E-1,8.830400174E0,8.846739614E0
1.280242571E1,1.208551794E0,1.463558663E0,4.233918568E0,4.639899550E0
1.281239571E1,8.095317312E-1,9.251426598E-1,-4.604030362E0,4.765325397E0
1.282236571E1,1.662251143E0,-1.809244882E0,-5.503625075E0,6.027133222E0
1.283233571E1,1.564099782E0,1.342144738E0,-4.558784607E0,5.003026856E0
1.284230571E1,2.872094587E-1,-1.046932268E-1,2.478807208E0,2.497585858E0
1.285227596E1,4.722596546E-1,-1.872955559E0,4.123571084E0,4.553551382E0
1.286224596E1,9.370855978E-1,1.864377402E0,4.610114390E-1,2.136952049E0
1.287221596E1,1.302308827E0,2.573707810E0,-1.629464051E0,3.312873868E0
1.288218696E1,1.928177687E0,6.690062553E-1,-3.792129850E0,4.306470407E0
1.289215696E1,1.539684879E0,-9.895383382E-1,-2.948136311E0,3.470061002E0
1.290212696E1,5.283299577E-1,-1.526603926E0,-1.973504280E0,2.550366882E0
1.291209696E1,9.283229604E-1,5.665785322E-1,-1.637212197E0,1.965517369E0
1.292206696E1,1.385722867E0,8.056837517E-1,-6.953374368E-1,1.747240202E0
1.293203696E1,1.529617289E0,-1.416053544E0,-4.715241480E-1,2.137117618E0
1.294200696E1,1.202877217E0,-2.221315419E0,-4.901457757E-1,2.573207856E0
1.295197696E1,7.038600460E-1,-1.554529059E0,-1.548752010E-2,1.706522611E0
1.296194696E1,3.672940572E-1,-2.287620798E0,2.717797530E-1,2.332804765E0
1.297191696E1,1.007899180E0,-1.397200951E-1,-3.798252470E0,3.932188231E0
1.298188796E1,6.785496421E-1,-5.267329735E-1,-4.198107296E0,4.285088343E0
1.299185796E1,1.269224769E-1,-3.687143386E0,1.945536463E0,4.170880937E0
1.300182796E1,1.103037326E0,-4.453358139E0,7.475237195E0,8.770875737E0
1.301179796E1,1.289846803E0,-1.198448244E-1,7.192575774E0,7.308297601E0
1.302176796E1,1.602846064E0,3.097808952E0,1.068459377E0,3.647895455E0
1.303173796E1,1.973891658E0,5.065051156E-1,-5.262778847E0,5.643548254E0
1.304170796E1,1.892257657E-1,-3.168020563E0,-4.538124055E0,5.537755016E0
1.305167796E1,-9.368826263E-1,-2.568236278E0,-7.516560638E-1,2.835237816E0
1.306164796E1,-5.875932059E-1,6.409308493E-2,3.614783215E0,3.662790110E0
1.307161796E1,-1.983331330E-1,1.057177759E0,2.368190752E0,2.601016779E0
1.308158796E1,-3.463455666E-2,-4.843467996E-1,8.907706797E-1,1.014526381E0
1.309155896E1,-1.642245334E-2,-1.478429301E0,-1.976279368E0,2.468137565E0
1.310152896E1,-3.545621471E-1,-1.428309600E0,-5.529840481E-1,1.572124037E0
1.311149896E1,3.381062550E-1,1.621380568E0,1.644155180E0,2.333760280E0
1.312146896E1,3.211082164E-1,2.710060202E0,-6.793113881E-1,2.812294569E0
1.313143896E1,7.019002055E-1,-7.424756429E-1,-4.915339047E-1,1.133816369E0
1.314140896E1,-2.816725475E-1,-8.225105765E-1,-1.382899831E0,1.633485542E0
1.315137896E1,-4.394476385E-1,-6.834892237E-1,-1.129348773E0,1.391294504E0
1.316134896E1,4.680542640E-2,-2.380837110E-1,7.563630724E-1,7.943297166E-1
1.317131896E1,2.023248078E-1,1.562905195E-1,3.486971267E0,3.496331030E0
1.318128896E1,-5.194447115E-2,8.081963003E-1,2.640479797E0,2.761885777E0
1.319125996E1,-2.294182105E-1,7.427270731E-1,-1.104024482E-1,7.851528011E-1
1.320122996E1,1.137226653E0,1.612472920E0,-2.545854891E0,3.220982847E0
1.321119996E1,-9.701957488E-1,-8.276283520E-1,-7.753776330E-1,1.492467405E0
1.322116996E1,-9.393581182E-1,-2.878382537E-1,-1.578590351E-1,9.950698515E-1
1.323113996E1,-1.207988853E0,-6.583175451E-2,-2.883156204E0,3.126685239E0
1.324110996E1,-1.000235965E0,-1.176611817E0,1.004369801E0,1.842185129E0
1.325107996E1,2.659452550E-2,-1.071911573E0,2.149342918E0,2.401952679E0
1.326104996E1,7.879655188E-1,5.147917897E-1,-2.020534605E-1,9.626660098E-1
1.327101996E1,1.298459897E0,-6.971389639E-1,-4.629351729E-1,1.544768531E0
1.328098996E1,7.624500239E-1,-8.520942718E-1,9.206125295E-1,1.467965298E0
1.329095996E1,3.089753535E-1,1.219183055E0,-5.979234087E-1,1.392618215E0
1.330093096E1,-6.589186388E-1,3.105541018E-1,-1.316238649E0,1.504360929E0
1.331090096E1,-4.180992715E-1,-6.498013678E-1,-1.178960643E0,1.409608817E0
1.332087096E1,-7.505206807E-1,-1.636501175E-1,-2.256199615E0,2.383379818E0
1.333084096E1,-1.117993041E0,-6.568826383E-1,-2.255104432E0,2.601326438E0
1.334081096E1,-1.297751800E0,-1.289688489E0,-1.237832749E0,2.209001143E0
1.335078096E1,-1.112344631E0,-4.367492947E-1,-1.535260144E0,1.945529295E0
1.336075096E1,-6.215037677E-1,-3.316941252E-1,-1.552162106E0,1.704551299E0
1.337072096E1,-5.003584494E-1,-1.762648421E0,-2.003337944E-1,1.843209609E0
1.338069096E1,9.711172700E-2,-1.498627923E0,-3.501254261E-2,1.502179156E0
1.339066096E1,1.209650230E-1,-7.503591514E-1,3.862641424E-1,8.525675226E-1
1.340063196E1,1.615025814E-1,-4.002261239E-1,-1.593021280E-1,4.600447826E-1
1.341060196E1,-9.604442742E-2,-1.672321803E0,-7.390880585E-3,1.675093839E0
1.342057196E1,1.406968907E-1,-1.164704255E0,5.678874314E-1,1.303390866E0
1.343054196E1,5.832422197E-2,1.685444124E0,5.045983386E-1,1.760324713E0
1.344051196E1,1.380399854E0,-5.617034161E-1,1.857262802E-1,1.501835123E0
1.345048196E1,2.289537040E-1,-2.480600549E0,8.178886449E-1,2.621972677E0
1.346045196E1,-3.523969962E-1,6.564514062E-1,1.573375220E0,1.740868080E0
1.347042196E1,3.845285426E-1,2.360857174E0,3.642178005E-1,2.419537849E0
1.348039196E1,6.261326429E-3,-2.020060396E0,8.509657592E-1,2.191991316E0
1.349036196E1,-5.223528242E-1,-2.208723732E0,1.589021199E0,2.770613898E0
1.350033296E1,1.023479178E-1,1.873965081E0,-5.727178162E-1,1.962199256E0
1.351030296E1,-5.302868746E-1,1.652070849E0,-2.989073253E-1,1.760649837E0
1.352027296E1,-1.077590316E0,-9.242489129E-2,9.539767420E-1,1.442156328E0
1.353024296E1,-1.185141662E0,2.461157387E-1,-4.996972024E-1,1.309515563E0
1.354021296E1,-8.961088952E-1,4.169757655E-1,-1.906893969E0,2.147818556E0
1.355018296E1,-9.052711167E-1,-5.138372317E-1,5.803004855E-1,1.191760525E0
1.356015296E1,-5.311426877E-1,1.320397773E-1,2.042270460E0,2.114335756E0
1.357012296E1,1.953880549E-1,-3.549128339E-1,1.217224238E0,1.282877413E0
1.358009296E1,2.383311213E-1,9.173433512E-1,-2.390089159E0,2.571156692E0
1.359006296E1,3.926482969E-3,1.525202056E0,-1.907589203E0,2.442366331E0
1.360003396E1,1.448986177E-1,1.866782069E-2,-8.077834868E-1,8.208887005E-1
1.361000396E1,-9.497854578E-1,-2.268267099E0,1.384349356E0,2.821976468E0
1.361997396E1,-8.441034669E-1,-8.343929958E-1,1.264579083E0,1.734324823E0
1.362994396E1,-5.999666452E-1,2.000749381E0,-1.260597129E0,2.439685058E0
1.363991396E1,-1.078608280E-1,5.815102744E-1,-1.043664259E0,1.199592949E0
1.364988396E1,1.549161498E-1,-2.047492023E0,-1.754613762E0,2.700905784E0
1.365985396E1,2.835744640E-1,-1.993324587E0,-1.531924308E0,2.529930724E0
1.366982396E1,1.841993712E-1,2.358351642E-1,-2.111873960E0,2.132969587E0
1.367979396E1,-6.872159466E-1,5.181948692E-2,1.216550639E0,1.398194004E0
1.368976396E1,-7.241509075E-1,-6.844306254E-1,2.590520602E0,2.775542615E0
1.369973396E1,3.815836290E-2,1.226365775E-2,-4.446415740E-1,4.464443832E-1
1.370970496E1,-5.370052523E-1,1.896737355E-1,-1.363870652E0,1.478003357E0
1.371967496E1,-6.990451562E-1,3.822813115E-1,-1.034881157E-1,8.034381878E-1
1.372964496E1,-5.184615387E-1,1.431687244E0,-4.310970837E-1,1.582521857E0
1.373961496E1,-5.436311709E-1,1.032430004E0,-1.014047527E-1,1.171208558E0
1.374958496E1,-2.666638413E-1,2.998408332E-1,-5.919393682E-1,7.151268036E-1
1.375955496E1,-8.216342251E-1,-3.604042464E-1,-7.099806190E-1,1.144135700E0
1.376952496E1,-9.890698300E-1,1.920264504E0,-1.394034099E0,2.570798702E0
1.377949496E1,-2.732127228E-1,9.638828024E-1,-1.229202259E0,1.585765885E0
1.378946496E1,-8.253711806E-1,-1.125739871E0,1.739340250E0,2.230209037E0
1.379943496E1,-7.172455651E-1,1.061742388E0,-6.959297597E-2,1.283191834E0
1.380940596E1,5.539390812E-2,1.060300757E0,7.425437629E-2,1.064340121E0
1.381937596E1,-1.857650363E-2,7.564542890E-3,9.811651254E-1,9.813701198E-1
1.382934596E1,7.918153256E-1,4.279106435E-1,-5.657730782E-1,1.063098398E0
1.383931596E1,7.461414085E-1,7.097467303E-1,2.838144922E-1,1.068184483E0
1.384928596E1,-1.373089318E-2,-1.254666299E-2,1.169970549E0,1.170118388E0
1.385925571E1,-3.507681081E-1,2.452029884E-1,5.932280946E-1,7.314932285E-1
1.386922571E1,-1.648561971E-1,4.117427999E-1,-5.269580913E-1,6.887630426E-1
1.387919571E1,-1.475936268E-1,-3.278451955E-1,-1.315750991E0,1.363989377E0
1.388916571E1,-5.824520781E-1,6.068035752E-1,-4.956257862E-1,9.762714387E-1
1.389913571E1,-3.850611509E-1,9.770235425E-1,3.814179701E-1,1.117285443E0
1.390910671E1,-3.976600368E-1,-9.706790212E-1,5.625033152E-1,1.190277802E0
1.391907671E1,-2.925829768E-1,-3.941561294E-1,5.449663460E-1,7.334522281E-1
1.392904671E1,7.035941438E-1,1.967576373E0,4.826864827E-1,2.144618321E0
1.393901671E1,4.691577067E-1,-2.139730096E-2,4.452362359E-1,6.471492131E-1
1.394898671E1,3.996096447E-1,-9.373504767E-1,2.935132688E-1,1.060407386E0
1.395895671E1,1.159740480E0,2.157622576E-2,2.052822930E0,2.357868846E0
1.396892671E1,7.148830707E-1,-5.447236866E-2,-2.351557177E-1,7.545351253E-1
1.397889671E1,7.370509616E-1,3.592090756E-1,-1.510020053E-1,8.337127117E-1
1.398886671E1,9.864669420E-2,9.035839757E-1,1.402934146E0,1.671651695E0
1.399883671E1,-1.718969757E-1,-9.027630267E-1,-4.141091681E-1,1.007976218E0
1.400880771E1,3.295137168E-2,-2.562048170E-1,-1.355599181E0,1.379991247E0
1.401877771E1,-2.897756007E-1,8.851006347E-1,-3.640353674E-1,9.999473891E-1
1.402874771E1,-4.115729383E-1,1.822103494E-1,-4.706792253E-1,6.512540427E-1
1.403871771E1,-3.607026737E-1,-3.724664676E-1,-2.479176167E0,2.532815066E0
1.404868771E1,4.933799437E-1,6.800981310E-1,2.269678617E-1,8.703284707E-1
1.405865771E1,1.841784126E-1,6.299225888E-1,1.302128148E-1,6.690885836E-1
1.406862771E1,-1.347553887E-1,-8.220919159E-1,-4.890453297E-1,9.660017948E-1
1.407859771E1,2.151837669E-1,7.990918931E-1,3.876972950E-1,9.138714897E-1
1.408856771E1,-1.300494948E-1,4.890929845E-1,-7.382185775E-1,8.950371427E-1
1.409853771E1,-7.552051775E-1,-3.164811319E-1,-6.799247611E-1,1.064327416E0
1.410850771E1,-3.835984699E-1,3.230978411E-1,-1.687653202E0,1.760600276E0
1.411847871E1,-5.249153665E-1,-6.456396121E-1,-7.934782737E-1,1.149780162E0
1.412844871E1,-4.486328834E-1,-5.117871979E-1,2.909328926E-1,7.401618391E-1
1.413841871E1,-3.374836362E-1,-4.444509548E-1,3.119167954E-1,6.393152142E-1
1.414838871E1,-3.791393467E-1,-2.599704239E-1,2.282255977E-1,5.132428167E-1
1.415835871E1,1.726010718E-1,1.145441187E0,-9.290143937E-1,1.484888678E0
1.416832871E1,4.555281394E-1,-1.130971083E0,2.128851936E0,2.453285968E0
1.417829871E1,-1.695507256E-1,-1.788838685E-1,8.167601323E-1,8.531377384E-1
1.418826871E1,3.618401033E-1,6.591370323E-1,6.222484106E-1,9.760035718E-1
1.419823871E1,-8.787239537E-2,-2.470971939E-1,1.144014174E0,1.173689487E0
1.420820871E1,-1.981202030E-1,-1.159623901E0,-1.824576867E-1,1.190491501E0
1.421817971E1,-4.082861087E-1,1.515720796E0,-2.845986038E-1,1.595338034E0
1.422814971E1,-3.798936740E-1,-1.223904974E0,1.188583991E0,1.747854254E0
1.423811971E1,-2.118869240E-1,-1.413013284E0,1.908665675E-1,1.441503609E0
1.424808971E1,-3.948145076E-2,1.841952160E0,8.242469072E-2,1.844218093E0
1.425805971E1,2.643519984E-1,6.622509670E-1,6.391819471E-1,9.576073746E-1
1.426802971E1,1.315647733E-2,-1.304071178E0,1.476688001E0,1.970122377E0
1.427799971E1,-4.893290658E-1,1.032837262E0,-5.937911814E-1,1.287937775E0
1.428796971E1,-9.468774913E-1,9.229631102E-1,8.895643991E-1,1.593663298E0
1.429793971E1,-1.067786070E0,-5.864368460E-1,8.254947031E-1,1.471569492E0
1.430790971E1,-7.577938861E-1,1.187461910E0,-6.097353691E-1,1.534957518E0
1.431787971E1,-7.245501262E-1,5.537365848E-1,-2.041110957E-1,9.344829747E-1
1.432785071E1,-4.756028733E-1,-9.371022624E-1,-1.036600238E-1,1.055984916E0
1.433782071E1,-2.704695381E-1,3.007927600E-1,-5.502229929E-3,4.045495396E-1
1.434779071E1,-2.905293433E-1,3.780216148E-1,1.563984007E-1,5.017649852E-1
1.435776071E1,-8.394955320E-2,-8.713468140E-1,3.200637209E-1,9.320587875E-1
1.436773071E1,2.096016677E-1,1.263416657E0,-3.379877758E-1,1.324533973E0
1.437770071E1,-9.157927427E-3,1.708508174E0,5.337812072E-1,1.789973862E0
1.438767071E1,-2.213376142E-1,-4.873949531E-1,1.490618992E-1,5.556650336E-1
1.439764071E1,-1.684674192E-1,1.455000678E-1,-5.106630707E-1,5.570711919E-1
1.440761071E1,-4.227502564E-1,1.659252691E0,-2.040149674E0,2.663465406E0
1.441758171E1,-6.478041782E-1,5.189020899E-1,-2.593369365E0,2.722953231E0
1.442755171E1,-3.138684863E-1,-1.373981073E0,-2.234485980E0,2.641829860E0
1.443752171E1,5.006541358E-3,-7.232707554E-1,-1.817546759E0,1.956175318E0
1.444749171E1,7.378171113E-2,1.645292464E-1,-1.177559066E-1,2.153603198E-1
1.445746171E1,1.602789419E-1,2.536580622E-1,1.316616964E0,1.350374756E0
1.446743171E1,2.850844709E-1,-3.431055513E-1,3.544593823E-1,5.697683991E-1
1.447740171E1,2.808122028E-1,-1.810496771E-1,1.911402172E-1,3.849273457E-1
1.448737171E1,2.041356540E-1,1.664047700E0,-1.644856846E0,2.348676257E0
1.449734171E1,2.325061616E-1,1.657948762E-2,-3.181493425E-1,3.944020775E-1
1.450731171E1,2.584467308E-1,-1.448038398E0,-7.764061582E-1,1.663254772E0
1.451728171E1,2.366694340E-1,2.010791682E0,-1.795038487E0,2.705819428E0
1.452725271E1,-4.297310645E-2,8.090353757E-2,-1.755041778E-1,1.979742072E-1
1.453722271E1,-4.978998780E-1,-1.445087893E0,1.916426684E0,2.451300582E0
1.454719271E1,7.176708039E-2,-4.099140832E-1,1.766125175E0,1.814491170E0
1.455716271E1,5.287544655E-1,8.605186477E-1,-7.619606119E-1,1.265170977E0
1.456713271E1,6.773850960E-1,1.864388219E0,-5.553545094E-1,2.059905976E0
1.457710271E1,4.353227933E-1,-7.248617828E-2,8.572257882E-1,9.641557097E-1
1.458707271E1,2.179418986E-1,-1.910157300E0,1.812089553E0,2.641944005E0
1.459704271E1,-1.132801371E-1,1.347572416E0,1.009462726E0,1.687542236E0
1.460701271E1,2.932974518E-1,3.001524898E-1,5.638002276E-1,7.028410980E-1
1.461698271E1,5.510735800E-1,-7.595386952E-1,6.754177272E-2,9.408203926E-1
1.462695371E1,-6.095590755E-2,-1.455050379E-2,4.216234249E-1,4.262553838E-1
1.463692371E1,1.178423540E-1,-7.523030582E-1,1.808309328E0,1.962098198E0
1.464689371E1,7.796236617E-1,-1.284966570E0,1.525789994E0,2.141725297E0
1.465686371E1,1.144338914E0,6.712507090E-1,2.344470352E-1,1.347239577E0
1.466683371E1,1.260144555E0,-2.429018167E-1,2.374443179E-1,1.305122751E0
1.467680371E1,6.010103732E-1,-9.629875937E-1,-6.153451878E-1,1.291204195E0
1.468677371E1,-1.848238356E-1,-2.745513332E-1,-1.473556817E-2,3.312935582E-1
1.469674371E1,-1.707563118E-1,-1.067093468E0,1.760021852E0,2.065314287E0
1.470671371E1,-4.454789684E-1,-7.086226031E-1,2.141804103E0,2.299548286E0
1.471668371E1,3.434669092E-2,7.072622484E-1,6.286984742E-2,7.108812847E-1
1.472665371E1,1.777059834E-1,-1.025011057E-1,-1.550662295E0,1.564173727E0
1.473662471E1,4.119092993E-1,7.413015220E-1,-1.240232447E0,1.502455903E0
1.474659471E1,5.383179522E-1,4.498862341E-1,-2.324875748E0,2.428421521E0
1.475656471E1,1.943818770E-1,-1.969371760E0,4.591701508E-2,1.979474126E0
1.476653471E1,2.447571382E-3,4.008146462E-1,-1.538408285E0,1.589766783E0
1.477650471E1,1.484907285E0,1.300268149E0,-2.649313186E0,3.303711135E0
1.478647471E1,6.475528210E-1,-3.658225688E-1,3.743512006E0,3.816678261E0
1.479644471E1,1.098226967E-1,4.808612743E-1,1.721308022E0,1.790583674E0
1.480641471E1,1.059776701E0,6.400496739E-1,3.561872345E-1,1.288277760E0
1.481638471E1,-2.160038207E-1,9.973624974E-1,-1.996268660E-1,1.039827143E0
1.482635471E1,-7.157722861E-3,9.816232547E-1,-1.868370173E0,2.110555034E0
1.483632571E1,2.369503013E-1,1.541089526E0,-3.188665620E0,3.549463454E0
1.484629571E1,8.141508123E-1,4.919204056E-1,-1.690283280E0,1.939557887E0
1.485626508E1,8.781335311E-1,-2.552827988E0,-3.394776464E-1,2.720899540E0
1.486623508E1,-3.649546959E-2,4.983511734E-1,1.534648526E-1,5.227210272E-1
1.487620508E1,-1.397203875E-1,1.372831218E0,-9.665634584E-1,1.684764749E0
1.488617508E1,-9.702276892E-1,-1.742911144E0,2.119444935E0,2.910520204E0
1.489614508E1,-5.597124392E-1,-8.168604121E-1,4.208724670E0,4.323644561E0
1.490611508E1,4.104280169E-1,2.638456661E-1,1.418118780E0,1.499708828E0
1.491608508E1,9.469896848E-1,-5.955418378E-1,8.226704979E-1,1.388613082E0
1.492605508E1,1.177817732E0,-1.344859308E0,2.135481509E0,2.784992360E0
1.493602508E1,5.922529983E-1,-3.299189106E-1,-7.692889273E-1,1.025385564E0
1.494599608E1,7.819376242E-1,-2.505064130E-2,6.678970385E-1,1.028659534E0
1.495596608E1,-3.753369023E-1,-1.123869932E0,8.694184023E-1,1.469642736E0
1.496593608E1,-9.169090493E-1,3.990005475E-1,-1.056063865E0,1.454370836E0
1.497590608E1,-2.953893480E-1,7.340793335E-1,-1.801776234E0,1.967873200E0
1.498587608E1,2.397900747E-1,-4.570522892E-1,-9.651981336E-1,1.094533468E0
1.499584608E1,2.172228555E-1,-9.249368379E-1,4.278045166E-1,1.041974389E0
1.500581608E1,3.210572725E-1,3.012576136E-1,-9.318368447E-1,1.030608474E0
1.501578608E1,4.364708941E-1,-1.397234572E0,4.320741534E-1,1.526256651E0
1.502575608E1,-1.021508282E0,-2.854292008E-1,2.142795206E0,2.390924569E0
1.503572608E1,-7.012630051E-1,2.144856642E0,2.205192014E0,3.155162696E0
1.504569708E1,-3.733346330E-1,-4.109703827E-1,1.298097078E0,1.411853897E0
1.505566708E1,-2.530677127E-1,-3.301364270E-1,5.824750650E-1,7.157587086E-1
1.506563708E1,5.696616959E-1,3.111652527E0,-3.456632988E0,4.685638432E0
1.507560708E1,1.381858588E0,1.623360727E0,-3.063084970E0,3.731932842E0
1.508557708E1,-7.547461711E-1,-2.715417128E0,-1.336568833E0,3.119222372E0
1.509554708E1,-6.342366645E-1,1.606423098E0,-2.301276385E0,2.877277240E0
1.510551708E1,-4.277009477E-1,1.907049505E0,-2.238607682E0,2.971721768E0
1.511548708E1,-1.110719982E0,-1.577289638E0,-2.604852712E-1,1.946636602E0
1.512545708E1,-1.292129409E0,-1.236624715E-1,-6.105563182E-1,1.434458028E0
1.513542708E1,-4.294687072E-1,3.417411035E-1,-2.682307854E0,2.737883448E0
1.514539808E1,-4.987491861E-1,-8.159926853E-1,-7.304528904E-1,1.203393634E0
1.515536808E1,-2.209238141E-1,-1.004480605E0,2.766953318E0,2.951917899E0
1.516533808E1,1.128863600E0,-1.752642666E0,2.867572204E0,3.545286968E0
1.517530808E1,3.772420714E-1,6.528132686E-1,9.048379111E-1,1.177798111E0
1.518527808E1,-5.023791010E-1,3.606751187E0,-1.430155858E0,3.912337494E0
1.519524808E1,-3.178510249E-1,-5.774379811E-1,1.948426741E-1,6.873336626E-1
1.520521808E1,-1.870816502E0,-2.761635275E0,1.496705943E0,3.656051484E0
1.521518808E1,-4.310799806E-1,1.498387018E-1,-6.885704541E-1,8.260816282E-1
1.522515808E1,1.163921166E-2,-7.884903064E-1,2.799753274E0,2.908688850E0
1.523512808E1,-1.203383148E0,1.286904922E-1,7.397751063E-1,1.418435564E0
1.524509808E1,4.597468324E-1,-5.866058305E-1,-2.782432652E-1,7.955456397E-1
1.525506908E1,8.745214501E-3,-2.835683244E0,2.282507408E-1,2.844868071E0
1.526503908E1,-1.224122454E-1,-7.750344014E-1,1.489776993E-1,7.986597749E-1
1.527500908E1,1.080599366E0,1.449058152E0,-6.149598563E-1,1.909355950E0
1.528497908E1,-7.642203415E-1,2.168165106E-1,7.707975090E-2,7.981124092E-1
1.529494908E1,-2.600319658E-1,-1.572588184E0,9.540808225E-1,1.857665319E0
1.530491908E1,-6.456273329E-1,-2.538068739E-1,1.602815366E-1,7.119991244E-1
1.531488908E1,-1.221940748E0,9.590544641E-1,4.189442307E-1,1.608862619E0
1.532485908E1,-1.217855737E0,1.576879164E0,1.516537360E0,2.503918141E0
1.533482908E1,-1.136397007E0,1.540724075E0,1.641432132E0,2.521810516E0
1.534479908E1,-1.598693371E0,7.103028005E-1,1.261653721E-2,1.749431262E0
1.535477008E1,-1.340347304E0,9.143609789E-1,3.950396436E-1,1.669923116E0
1.536474008E1,-1.339924696E0,8.503333828E-1,5.423877239E-3,1.586976519E0
1.537471008E1,-1.014847646E0,-7.729603940E-1,-7.490347570E-1,1.479336534E0
1.538468008E1,-1.051624659E0,-1.235889720E0,-6.623708349E-1,1.752732993E0
1.539465008E1,-9.497774179E-1,-5.151323900E-1,-2.449377587E0,2.677104609E0
1.540462008E1,-9.724429800E-1,-2.524769247E-1,-1.871432945E0,2.124064785E0
1.541459008E1,-1.357919649E0,-6.826773378E-1,-1.490059998E0,2.128443778E0
1.542456008E1,-1.060837824E0,-7.486944491E-1,-2.350874807E0,2.685615875E0
1.543453008E1,-9.196660115E-1,1.386108783E-1,-2.240244318E0,2.425632526E0
1.544450008E1,-2.063718339E0,-1.624871648E0,1.000658573E0,2.810775486E0
1.545447108E1,-1.092754485E0,-5.803361535E-1,-5.997722983E-2,1.238749242E0
1.546444108E1,-1.487876355E0,1.689851463E0,-2.037106199E0,3.036309550E0
1.547441108E1,-2.123503926E0,1.393867161E0,-4.155410342E0,4.870274089E0
1.548438108E1,-1.816995952E0,1.128793287E0,1.168308771E0,2.437333370E0
1.549435108E1,-1.632879556E0,-2.841832761E0,4.897148944E0,5.892739334E0
1.550432108E1,-1.429423495E-1,-2.597436396E0,6.375197006E0,6.885509801E0
1.551429108E1,-5.839946467E-1,1.157028615E0,2.899181083E0,3.175691407E0
1.552426108E1,-2.016957424E0,2.289773450E0,1.392520255E0,3.354145549E0
1.553423108E1,-1.468926114E0,2.166498649E-1,-6.391386777E-1,1.616533124E0
1.554420108E1,-6.999559332E-1,-1.768407928E0,2.532815015E-1,1.918686120E0
1.555417108E1,-4.847935634E-1,-3.539299169E-1,-1.722121369E0,1.823730571E0
1.556414208E1,-1.938731765E0,8.505731186E-1,-2.813173803E0,3.520809898E0
1.557411208E1,-1.905560657E0,-2.660269699E-1,-1.738787103E0,2.593320720E0
1.558408208E1,-1.388788854E0,-2.118213512E0,-3.236461930E0,4.109774786E0
1.559405208E1,-1.069824264E0,-1.447840470E0,-2.764948892E0,3.299349687E0
1.560402208E1,-1.392167375E0,-4.500856242E-1,-3.700907439E-1,1.509196551E0
1.561399208E1,-1.433262776E0,-8.663009593E-1,5.937941051E-1,1.776882376E0
1.562396208E1,-4.512661039E-1,-4.122538465E-1,-2.718583395E0,2.786447561E0
1.563393208E1,1.357483373E-1,-1.040254163E0,-4.591120879E0,4.709452968E0
1.564390208E1,-1.726184307E-1,-2.706543978E0,8.890755719E-1,2.854055501E0
1.565387208E1,-5.996586431E-2,-2.971440682E0,7.463279055E0,8.033280144E0
1.566384308E1,4.555802893E-1,-1.684921091E0,5.800337355E0,6.057262246E0
1.567381308E1,3.183893342E-1,1.398952777E0,-5.941531241E-1,1.552887174E0
1.568378308E1,-2.001360415E0,1.519184979E0,-4.859111052E0,5.470313220E0
1.569375308E1,-1.197376595E0,-2.099632815E-1,-6.179042217E0,6.297488230E0
1.570372308E1,-4.667669264E-1,-2.334725090E0,-5.172542861E0,5.694208659E0
1.571369308E1,-7.615015324E-2,-4.811835144E0,2.391452730E-1,4.818375946E0
1.572366308E1,-2.867842200E-1,-4.027060743E0,7.851420153E0,8.828604750E0
1.573363308E1,-1.709722787E0,2.133979067E0,2.613063957E0,3.782211246E0
1.574360308E1,-1.407008047E0,4.011648067E0,-1.985095215E0,4.691864754E0
1.575357308E1,-7.437311132E-1,1.123138445E0,-5.888672411E-1,1.470149844E0
1.576354408E1,1.562660197E0,-6.294401935E-1,1.789031643E-1,1.694139366E0
1.577351408E1,8.906407253E-1,6.814923996E-1,2.063064328E0,2.348171036E0
1.578348408E1,-1.356405220E0,2.567483157E0,-1.190078539E0,3.138166951E0
1.579345408E1,-5.370842628E-1,1.263694692E0,-6.184711093E-1,1.505951624E0
1.580342408E1,-4.224260649E-1,6.737360680E-1,-1.536845909E0,1.730392851E0
1.581339408E1,7.482496404E-2,-7.246007046E-1,-6.787506402E-2,7.316091721E-1
1.582336408E1,6.629153569E-1,1.786333153E-1,2.083157115E0,2.193378717E0
1.583333408E1,5.809735731E-1,1.974331369E0,-3.139878792E-1,2.081850867E0
1.584330408E1,4.146718895E-1,9.749705851E-1,3.695832056E-1,1.122101673E0
1.585327442E1,5.151922143E-1,7.694935799E-2,1.642315062E0,1.722946019E0
1.586324542E1,6.233643517E-1,-1.565557785E0,2.420598761E0,2.949381741E0
1.587321542E1,1.273312631E0,-7.057355404E-2,-1.317982873E0,1.833953254E0
1.588318542E1,9.629234205E-1,1.381375754E0,-2.476321557E0,2.994593284E0
1.589315542E1,2.108781076E0,-5.928155735E-1,-1.848215405E0,2.866057940E0
1.590312542E1,1.011894217E0,-9.053015953E-1,-3.352007589E0,3.616553022E0
1.591309542E1,-7.942737143E-1,-3.159560519E-1,-4.635389564E0,4.713548066E0
1.592306542E1,1.869853502E-1,-3.482470080E-1,-4.685292626E0,4.701936462E0
1.593303542E1,8.929632394E-1,-1.671125463E-1,-3.158955917E0,3.286991396E0
1.594300542E1,3.030049809E-1,6.332473156E-1,-1.270984708E0,1.451969803E0
1.595297642E1,9.429910664E-1,-8.051589641E-1,1.852783835E-1,1.253730907E0
1.596294642E1,1.438267554E0,-1.398834371E0,1.200592418E0,2.338113194E0
1.597291642E1,1.338997035E0,-1.447890171E0,1.460246800E0,2.453898882E0
1.598288642E1,7.611966732E-1,-3.974741319E-1,6.940802854E-1,1.104152844E0
1.599285642E1,1.666430587E0,6.385419694E-1,-2.673583809E0,3.214463739E0
1.600282642E1,1.984495583E0,9.805985302E-2,-3.778739727E0,4.269275392E0
1.601279642E1,2.401551456E0,8.251061556E-1,-1.662347623E0,3.035069881E0
1.602276642E1,1.804038668E0,2.330399905E0,-5.994775987E-1,3.007439546E0
1.603273642E1,8.697914547E-1,1.091397712E0,5.414108881E0,5.591087650E0
1.604270742E1,-6.500181533E-1,8.628519791E-1,7.117472967E0,7.198990108E0
1.605267742E1,1.636941178E-1,9.173930526E-1,5.239815077E0,5.322036059E0
1.606264742E1,1.301221245E0,1.586293181E0,8.815730095E-1,2.233086150E0
1.607261742E1,2.458440771E0,2.435676683E0,-2.688651499E0,4.382385060E0
1.608258742E1,1.118638866E0,3.875709951E-1,-1.480193406E0,1.895398826E0
1.609255742E1,5.684429900E-1,-2.061853954E-1,-1.272593862E-1,6.179278287E-1
1.610252742E1,1.709378678E-2,1.461477054E0,6.503185540E-1,1.599725476E0
1.611249742E1,-4.776518473E-1,2.167292701E0,1.521934340E0,2.691020824E0
1.612246742E1,4.187146909E-1,2.624546719E0,-5.115980405E-1,2.706529148E0
1.613243842E1,5.275534109E-1,1.577580245E0,-7.815271497E-1,1.837894642E0
1.614240842E1,-3.954970421E-1,-9.274546489E-1,4.655406922E-1,1.110548591E0
1.615237842E1,9.705519904E-1,1.899207804E-1,-2.575295037E-1,1.021940563E0
1.616234842E1,1.006489636E-1,7.352402982E-1,1.464077895E0,1.641411768E0
1.617231842E1,-1.127123322E0,-1.861983259E0,3.813471018E0,4.390893969E0
1.618228842E1,-1.530437800E-1,-1.820783193E0,3.773338069E0,4.192463955E0
1.619225842E1,1.187330494E0,2.242136184E0,-1.185156938E0,2.800272369E0
1.620222842E1,1.762164564E0,-7.276830643E-2,-2.460193766E0,3.027056746E0
1.621219842E1,2.142556932E0,-1.747735097E0,-2.216919190E0,3.543989119E0
1.622216942E1,1.510458595E0,-5.989212361E-1,-3.702689670E0,4.043526012E0
1.623213942E1,7.862590089E-1,-6.596609429E-1,-4.859733780E0,4.966927441E0
1.624210942E1,9.648324633E-1,-2.216085961E0,1.936514794E0,3.097099969E0
1.625207942E1,4.317174367E-1,2.591488901E-1,3.935867275E0,3.967945224E0
