"Time (s)","Linear Acceleration x (m/s^2)","Linear Acceleration y (m/s^2)","Linear Acceleration z (m/s^2)","Absolute acceleration (m/s^2)"
1.141029171E-2,1.344017162E0,1.619582841E0,-1.855388185E0,2.805689938E0
2.137929166E-2,1.394557132E0,1.817574826E0,-2.943549170E0,3.729993239E0
3.134929168E-2,7.011025722E-1,3.851148722E-1,-8.053071910E-1,1.135067378E0
4.131829168E-2,7.794948768E-1,-1.577192867E-1,1.909933936E0,2.068897116E0
5.128829170E-2,-2.440761751E-1,1.440433802E0,-8.156479919E-1,1.673231712E0
6.125729170E-2,-6.034933202E-1,1.302372854E0,8.299906272E-1,1.658090371E0
7.122729172E-2,-1.194924492E0,1.163469615E0,1.026847667E0,1.958551051E0
8.119629166E-2,-1.713576541E0,1.266221566E0,-5.782218003E-1,2.207714217E0
9.116629168E-2,-1.345148891E0,7.253690287E-1,-9.963819194E-1,1.824380085E0
1.011352917E-1,-1.137302302E0,-5.924150392E-1,-1.342994923E0,1.856891884E0
1.111052917E-1,-8.572764397E-1,-7.019108766E-1,-1.378017991E0,1.768201164E0
1.210742917E-1,-5.956327986E-1,1.955417088E-1,-1.366713569E0,1.503635916E0
1.310442917E-1,2.281009972E-1,-1.014089335E0,8.030226839E-1,1.313488742E0
1.410132917E-1,6.610326631E-2,-1.532385946E0,2.961047548E-1,1.562131350E0
1.509832917E-1,9.346483687E-2,-5.899612552E-1,9.682334232E-1,1.137658086E0
1.609522917E-1,3.460684086E-1,-5.103537530E-2,1.849950859E0,1.882733686E0
1.709212917E-1,1.094783871E-1,-7.218817493E-1,1.751974329E0,1.898028668E0
1.808912917E-1,-2.067572348E-1,-1.927363901E0,3.797901052E0,4.263980835E0
1.908602917E-1,-8.181769858E-1,-1.552353310E0,-2.095825692E0,2.733441002E0
2.008302917E-1,4.094485717E-1,-1.228222266E0,-9.571763384E-1,1.610082175E0
2.107992917E-1,-1.378835943E-1,-1.888815547E0,2.058989403E0,2.797512005E0
2.207692917E-1,-2.689014062E-1,1.635929610E0,2.140874396E0,2.707751250E0
2.307382917E-1,2.168890343E-1,2.669054263E0,-6.273571229E-1,2.750357881E0
2.407087917E-1,9.473997208E-1,-9.681208643E-1,2.170182395E-1,1.371831314E0
2.506777917E-1,8.549861585E-1,-3.957166343E0,3.013164951E0,5.046714755E0
2.606477917E-1,9.797243714E-1,-1.770367330E0,4.527849913E-1,2.073420984E0
2.706167917E-1,-3.488445204E-1,1.450484873E0,-2.697250414E0,3.082330070E0
2.805867917E-1,-8.923147832E-1,-1.408500695E-1,2.202733845E0,2.380777353E0
2.905557917E-1,-1.579016029E0,-1.587355328E0,2.454619616E0,3.322370541E0
3.005257917E-1,-6.443885272E-1,-1.200102713E0,-9.644958830E-1,1.669052248E0
3.104947917E-1,-1.842246568E0,-2.127295699E0,1.306470290E0,3.102599560E0
3.204647917E-1,-1.993219191E0,-4.356468022E0,3.538176504E0,5.955705612E0
3.304337917E-1,-1.448400194E0,-1.625989636E0,1.223757332E0,2.497856566E0
3.404027917E-1,-2.329774654E-1,1.113264544E0,1.772663532E0,2.106174837E0
3.503727917E-1,-1.419709259E-1,2.485274228E-1,2.309709824E0,2.327376441E0
3.603417917E-1,-1.296026140E0,-1.285764130E0,1.249048879E0,2.212011812E0
3.703117917E-1,-9.205660442E-1,-7.838253978E-1,2.243800594E0,2.548816432E0
3.802807917E-1,-9.182546033E-2,-7.633086875E-1,1.403682590E-1,7.815211550E-1
3.902507917E-1,-8.869034775E-1,-2.159777859E0,-3.292394056E0,4.036223086E0
4.002197917E-1,4.610721038E-1,-2.307862981E0,-3.129561964E0,3.915734556E0
4.101897917E-1,2.076192058E-1,-9.302627742E-1,-2.131217719E0,2.334648481E0
4.201587917E-1,-6.752950819E-1,2.195793200E0,-1.701004150E0,2.858486722E0
4.301287917E-1,1.679643248E0,2.850485179E0,-7.903465050E-1,3.401634135E0
4.400977917E-1,1.635937357E0,2.293063678E0,3.900794506E-2,2.817082478E0
4.500677917E-1,2.492593773E0,2.467539916E0,-1.400059655E0,3.776498906E0
4.600367917E-1,2.700509652E0,2.835843458E0,-2.378513426E0,4.581712193E0
4.700067917E-1,1.840557453E0,2.003836126E0,-2.273475214E0,3.545659390E0
4.799757917E-1,2.339476976E0,2.722132071E0,-3.372204457E0,4.924928267E0
4.899457917E-1,1.961003079E0,3.076663374E0,-2.335156907E0,4.331783509E0
4.999147917E-1,2.576568853E0,1.925836608E0,-4.031742901E-1,3.241928933E0
5.098847917E-1,3.013442401E0,1.740320828E0,-1.706193554E0,3.875648092E0
5.198537917E-1,3.410753688E0,3.155178616E0,-8.169729710E-1,4.717609316E0
5.298227917E-1,2.958171887E0,1.469327525E0,7.172598177E-1,3.379965375E0
5.397927917E-1,2.958677672E0,2.996852973E-1,1.613428062E-1,2.978190112E0
5.497617917E-1,3.176313669E0,3.388305642E0,-2.244716853E-1,4.649728077E0
5.597317917E-1,1.662445417E0,3.607199376E0,3.519450796E-1,3.987414882E0
5.697007917E-1,1.362286642E0,1.233686781E0,3.240912831E-1,1.866237693E0
5.796707917E-1,5.417752281E-1,8.697774214E-1,-2.307124186E0,2.524451459E0
5.896397917E-1,4.918963955E-1,3.120586196E0,-2.949310432E0,4.321857505E0
5.996097917E-1,-4.346426891E-1,4.304652628E0,-2.289459747E0,4.894953978E0
6.095787917E-1,-5.945420370E-1,2.930169572E0,-1.976241946E0,3.583979099E0
6.195487917E-1,-9.133372776E-2,2.806751806E0,-3.357716811E0,4.377266240E0
6.295177917E-1,-1.150569780E0,3.036015869E0,-2.829779896E0,4.306838450E0
6.394877917E-1,-2.067084289E0,2.348590008E0,-2.059072434E0,3.745462824E0
6.494567917E-1,-1.722364321E0,2.703492024E0,-1.591087021E0,3.578682144E0
6.594267917E-1,-1.602480320E0,4.668295940E0,1.164722673E0,5.071243345E0
6.693957917E-1,-1.812849983E0,4.701988766E-1,4.241155667E0,4.636260717E0
6.793657917E-1,-2.036870994E0,-1.075319331E0,5.384005076E-1,2.365381622E0
6.893347917E-1,-1.365509919E0,2.851915115E0,-1.166504320E0,3.370277361E0
6.993037917E-1,-1.317792108E0,4.618208983E0,-5.699737179E0,7.453283448E0
7.092737917E-1,-1.939560024E0,1.736853429E0,-1.082360080E1,1.113233521E1
7.192427917E-1,-4.420919249E0,2.387561700E0,-1.444677652E1,1.529556569E1
7.292127917E-1,-3.638697158E0,9.261679691E-1,-8.582433792E0,9.367821193E0
7.391817917E-1,-4.627090611E0,-1.083627055E0,7.107457271E0,8.549863389E0
7.491517917E-1,-8.306537014E-1,9.125097504E-1,1.068555506E1,1.075656760E1
7.591207917E-1,1.142449313E0,1.230865207E0,1.182687542E1,1.194550969E1
7.690907917E-1,-9.288807848E-1,2.343850547E0,3.611006498E0,4.404068895E0
7.790597917E-1,-4.043631021E-1,1.027721241E0,-1.835285457E0,2.141960125E0
7.890297917E-1,-2.663092149E0,-3.544278073E-1,-3.644732069E0,4.527885900E0
7.989987917E-1,-2.984894248E0,-2.707143903E-1,-6.184541523E-1,3.060288465E0
8.089687917E-1,8.005861491E-3,-2.035854310E-2,3.424193805E0,3.424263685E0
8.189377917E-1,5.508122461E-1,1.505166864E-1,2.922662916E0,2.977920067E0
8.289077917E-1,4.147699034E-1,-1.111859751E0,-2.830052376E-2,1.187041321E0
8.388767917E-1,-1.077328142E0,-3.235719042E0,2.108740438E0,4.009650842E0
8.488467917E-1,-2.097623565E-1,-2.184565961E0,2.582819234E0,3.389289583E0
8.588157917E-1,4.066075558E-1,-2.015032375E-1,7.117172420E-1,8.440821593E-1
8.687847917E-1,9.457191579E-2,-1.586487016E0,1.263755795E0,2.030508215E0
8.787547917E-1,-8.095010334E-1,-2.755625507E0,5.415504026E-1,2.922676974E0
8.887237917E-1,-3.345409884E-1,-2.194902084E0,7.836034960E-1,2.354473884E0
8.986937917E-1,2.111610836E-1,-1.864494638E0,3.945456124E0,4.368930451E0
9.086627917E-1,1.672137616E0,-2.437365944E0,3.690156164E0,4.728006923E0
9.186327917E-1,1.580273326E0,-1.422675808E0,1.785121610E0,2.776315796E0
9.286017917E-1,1.130389212E-1,-4.754447061E-1,2.848604422E0,2.890220168E0
9.385717917E-1,-7.768726198E-1,-7.901526698E-1,2.401415800E0,2.644743873E0
9.485407917E-1,-2.487591188E0,-2.748726669E0,4.534428030E-1,3.734865271E0
9.585107917E-1,-4.957689699E-2,-6.416177802E0,-2.457183620E0,6.870774832E0
9.684797917E-1,5.365573190E-2,-9.619703536E0,-2.405188424E0,9.915972288E0
9.784497917E-1,-1.576174720E-1,-9.074319699E0,-1.316320510E0,9.170649974E0
9.884187917E-1,1.436486346E0,-7.081649415E0,-1.049216191E0,7.301650915E0
9.983887917E-1,1.675098500E0,4.142991441E0,-3.451231331E0,5.646355529E0
1.008357792E0,3.718323078E0,1.636808037E1,2.232195625E0,1.693288749E1
1.018327792E0,1.225917440E0,1.911579226E1,1.673440960E0,1.922802100E1
1.028296792E0,-2.718757643E0,5.827469605E0,-7.862160319E-1,6.478362507E0
1.038265792E0,-3.565787348E0,-7.932605234E0,-2.072077226E0,8.940613472E0
1.048235792E0,-2.763213438E0,-1.031439719E1,-4.452257109E0,1.156912837E1
1.058204792E0,-3.461708445E-1,-4.663360597E0,-8.992777938E-1,4.761876402E0
1.068174792E0,-1.234878151E0,2.091494660E0,2.176702040E-1,2.438576281E0
1.078143792E0,-1.966842109E0,6.389611562E0,3.947061185E0,7.763690862E0
1.088113792E0,5.649378034E-1,7.660844193E0,-2.283975059E-1,7.685040916E0
1.098082792E0,-5.088536498E-1,6.132860908E0,-5.773614995E0,8.438337814E0
1.108052792E0,1.276202471E0,2.395411587E0,-5.630929484E0,6.250924434E0
1.118021792E0,4.617956602E-1,-2.718842427E0,-8.531924958E0,8.966554682E0
1.127991792E0,6.098132832E-1,-3.736748240E0,-3.836210255E0,5.389959997E0
1.137960792E0,-7.739783212E-1,4.570096046E-2,4.050856279E0,4.124386938E0
1.147930792E0,-2.590788697E0,6.263880638E0,5.933931615E0,9.008880681E0
1.157899792E0,-2.417801599E0,9.539717719E0,4.585592921E0,1.085723911E1
1.167869792E0,-7.165420720E-1,5.395014213E0,2.880943033E0,6.157876554E0
1.177838792E0,-1.352447532E0,3.704001786E0,-6.973721509E0,8.011337918E0
1.187808792E0,2.530211835E0,2.683054544E0,-5.131631647E0,6.319366817E0
1.197777792E0,3.901309061E0,7.091549921E-1,-2.308117628E0,4.588084587E0
1.207747792E0,3.894825961E0,-3.575092900E-1,-4.027173302E0,5.613876286E0
1.217716792E0,5.279002531E0,7.002876896E-1,-2.819414536E0,6.025559634E0
1.227685792E0,3.375932642E0,4.995127813E0,2.290944940E-1,6.033299873E0
1.237654917E0,4.068799630E0,6.263616929E0,-4.334669602E-1,7.481705759E0
1.247623917E0,2.753674875E0,3.917671617E0,-9.248330498E-1,4.877109020E0
1.257593917E0,3.488324897E0,2.373783613E0,-2.580986132E0,4.946185262E0
1.267562917E0,4.469404361E0,1.815416619E0,-8.637869489E-1,4.900759200E0
1.277532917E0,3.557312686E0,1.754059153E0,-1.992887215E0,4.438783225E0
1.287501917E0,4.025326459E0,-1.413200980E0,1.983869054E0,4.704904519E0
1.297471917E0,4.287717337E0,-1.930921640E0,3.747160669E0,6.012835556E0
1.307440917E0,2.939209952E0,1.857673569E0,3.394034452E0,4.858948044E0
1.317410917E0,2.946782681E0,2.382725760E-1,3.394946033E-1,2.975829057E0
1.327379917E0,3.998579832E0,-4.061126329E0,-2.004061829E0,6.041328624E0
1.337349917E0,2.296912462E0,-6.864692572E0,-4.769135267E0,8.668590552E0
1.347318917E0,-1.914573190E-1,-2.857883076E0,-6.177165261E0,6.808929596E0
1.357288917E0,-6.059974634E-1,4.422600031E-2,-3.040825204E0,3.100936437E0
1.367257917E0,-9.366045912E-1,-1.162303680E-1,1.645992376E0,1.897374122E0
1.377227917E0,7.632798169E-1,-2.264575751E0,9.367430679E0,9.667453488E0
1.387196917E0,3.976958291E0,-2.595181710E0,7.269805214E0,8.683388348E0
1.397165917E0,9.405868375E-1,-1.030670284E0,4.494144807E0,4.705775429E0
1.407135917E0,3.312444744E0,-3.820327756E0,4.117269539E0,6.520667358E0
1.417104917E0,-3.752297886E-1,-8.311393712E0,3.009975879E0,8.847599540E0
1.427074917E0,-3.121186705E0,-6.331921763E0,5.124158320E0,8.723075040E0
1.437043917E0,-3.779642537E0,-2.936055379E0,6.294953327E0,7.907752923E0
1.447013917E0,-2.817276210E0,-6.491853637E-1,5.723723043E0,6.412448233E0
1.456982917E0,-2.221110182E0,-5.113194206E-1,4.953173456E0,5.452403623E0
1.466952917E0,3.640858361E-1,-1.668665247E0,7.556760246E-1,1.867631777E0
1.476921917E0,-8.602369581E-1,-3.537505828E0,-6.759673655E-2,3.641225676E0
1.486891917E0,-6.195609572E-1,-2.559086848E0,-5.159188989E0,5.792237245E0
1.496860917E0,-4.014895976E-1,-2.214626204E0,-6.818824089E0,7.180677201E0
1.506830917E0,-1.892168852E-1,-1.483131632E0,-3.062562228E0,3.408044875E0
1.516799917E0,3.734540258E-1,-1.390315855E-1,-9.751728988E-1,1.053451410E0
1.526769917E0,-5.764530907E-1,2.968572915E0,3.249098933E0,4.438622218E0
1.536738917E0,-5.119554150E-1,4.980936620E0,3.291204148E0,5.991982369E0
1.546708917E0,3.445894650E-1,3.662053860E0,-5.088440019E-1,3.713260373E0
1.556677917E0,-8.487313188E-1,1.102966136E0,-3.838436290E0,4.082948971E0
1.566646917E0,8.713216710E-1,-1.514497266E0,-4.938339654E0,5.238330074E0
1.576616917E0,1.270578180E0,-1.483122277E0,-4.533165616E0,4.935950882E0
1.586585917E0,1.980228578E0,1.802965558E-1,-3.989082200E0,4.457195179E0
1.596555917E0,3.682278210E0,2.147478826E0,-4.748851860E0,6.381413019E0
1.606524917E0,2.818475766E0,3.230576708E0,-2.504239088E0,4.965042287E0
1.616494917E0,1.795202648E0,5.072749600E0,9.038555789E-1,5.456417869E0
1.626463917E0,1.293703772E0,5.824674051E0,2.639712642E0,6.524460138E0
1.636433917E0,4.357383842E-1,1.240786763E0,1.135225224E-1,1.319964808E0
1.646402917E0,-4.827771145E-1,3.119676661E-1,-3.522301898E0,3.568894539E0
1.656372917E0,-1.356953104E0,-1.632537055E0,-2.736494002E0,3.463365182E0
1.666341917E0,-1.048117279E0,1.107204198E0,-1.315693688E-1,1.530281499E0
1.676311917E0,-1.154525348E0,7.047682940E0,2.853143030E-1,7.147318927E0
1.686280917E0,-2.734622308E0,6.117193878E0,2.341616911E-1,6.704703708E0
1.696250917E0,-2.435188295E0,2.466050045E0,9.105822158E-1,3.583392921E0
1.706219917E0,-3.097816846E0,-5.616627780E-1,1.473494251E0,3.476078192E0
1.716189917E0,-4.328201412E0,-1.299766750E0,-1.079953249E0,4.646398615E0
1.726158917E0,-2.581889234E0,-5.582541436E-2,-2.992599124E0,3.952836704E0
1.736127917E0,-4.562600500E0,1.921629244E0,-3.630359028E0,6.139176569E0
1.746097917E0,-4.847784995E0,6.160125890E0,-2.914690822E-1,7.844305231E0
1.756066917E0,-5.028197325E0,7.584250930E0,-3.057041287E-2,9.099701372E0
1.766036917E0,-5.632220550E0,5.013348906E0,1.149632764E-1,7.541139975E0
1.776005917E0,-5.366428930E0,1.480237260E-1,-1.037196069E0,5.467745986E0
1.785975917E0,-6.695005789E0,-2.425596961E0,-1.226825366E0,7.225768029E0
1.795944917E0,-4.856459632E0,-2.426940943E0,-1.964787835E0,5.773701909E0
1.805914917E0,-3.573397500E0,-1.730718238E0,-2.572232850E0,4.730849516E0
1.815883917E0,-2.259565126E0,-3.254598239E-1,6.273267174E-1,2.367508705E0
1.825853917E0,-2.495951975E-1,2.470282260E0,2.033835851E0,3.209529634E0
1.835822917E0,2.831304411E-1,4.226019272E0,1.471965204E0,4.483980742E0
1.845792917E0,-7.899372000E-1,2.160648510E0,5.783691502E-1,2.372111641E0
1.855761917E0,-1.044051491E0,-1.584737822E0,-7.723745030E-1,2.048902109E0
1.865731917E0,-8.857850513E-1,-3.677066879E0,-1.811586108E0,4.193719139E0
1.875700917E0,-2.640342388E-1,-4.738068717E0,-2.532826710E-1,4.752174382E0
1.885669917E0,5.750400745E-1,-2.789077720E0,2.587827959E0,3.847918809E0
1.895639917E0,1.742717602E0,-3.095700154E-1,4.382730206E0,4.726650219E0
1.905608917E0,1.177669213E0,-1.167311820E-1,6.217554903E0,6.329180035E0
1.915578917E0,1.581699901E0,-2.068112814E0,5.430972251E0,6.022817013E0
1.925547917E0,1.349176015E0,-2.530165350E0,4.243712654E0,5.121631547E0
1.935517917E0,1.387650255E-1,-1.468771163E0,1.432419316E0,2.056299968E0
1.945486917E0,-1.043698466E0,-2.122354217E0,1.736438277E0,2.934094716E0
1.955456917E0,-9.974472090E-1,-3.661722908E0,2.106764663E0,4.340688072E0
1.965425917E0,-2.604090747E-1,-2.218666922E0,1.393495570E0,2.632893029E0
1.975395917E0,-7.760402687E-1,-1.724823368E-1,5.747479695E-1,9.809810822E-1
1.985364917E0,5.339406900E-2,7.803021580E-1,-1.788176780E0,1.951742447E0
1.995334917E0,1.333176498E-1,-3.728274162E0,-1.538946814E0,4.035611369E0
2.005303917E0,-4.400034529E-1,-6.084308553E0,2.866067131E0,6.739937270E0
2.015273917E0,8.696567494E-2,-5.012941355E0,8.060051731E0,9.492185100E0
2.025242917E0,1.669863926E-1,-2.348960721E0,4.602442258E0,5.169910605E0
2.035211917E0,1.918665875E-1,-4.775228065E-1,-1.089908718E0,1.205297404E0
2.045181917E0,1.162647021E-1,3.994972685E-1,-3.500204685E0,3.524847286E0
2.055150917E0,2.821633116E-1,3.346715274E-1,-5.226682230E0,5.244981249E0
2.065120917E0,-8.004218423E-1,8.555859366E-1,-6.115623316E0,6.226841171E0
2.075089917E0,-3.215614852E-1,2.193656042E-1,-5.465807623E0,5.479651086E0
2.085059917E0,-8.503445656E-1,-6.224919471E-1,-4.208125330E0,4.338075714E0
2.095028917E0,-1.190142822E-1,-2.031846043E-1,-2.627816482E0,2.638345665E0
2.104998917E0,-5.645214086E-1,2.842395848E0,-1.933853726E0,3.483918600E0
2.114967917E0,3.543889599E-2,5.623569009E0,-2.453929060E0,6.135760112E0
2.124937917E0,2.237542685E-1,5.186107231E0,-1.351709613E0,5.364037012E0
2.134906917E0,-1.134447271E-1,5.418098436E0,-9.501053005E-1,5.501941516E0
2.144876917E0,1.972608998E-1,5.687612393E0,-6.985522360E-1,5.733744136E0
2.154845917E0,1.083677121E0,4.835590919E0,-1.442561311E0,5.161228417E0
2.164814917E0,1.491688301E0,1.801939371E0,-5.547715420E-1,2.404140377E0
2.174784917E0,1.631674445E0,6.403040278E-1,-2.417400919E0,2.985996976E0
2.184753917E0,1.868375582E0,3.326312585E0,-1.703666972E0,4.178236934E0
2.194723917E0,3.541768741E0,6.152063164E0,-1.772303343E0,7.316629424E0
2.204692917E0,3.383774927E0,5.992730631E0,-2.313963674E0,7.260659822E0
2.214662917E0,4.037456507E0,2.299844110E0,-3.543102198E0,5.843279145E0
2.224631917E0,4.883121473E0,2.597527320E0,-4.389176177E0,7.060941227E0
2.234601917E0,6.253521127E0,6.732892238E0,-3.587557994E0,9.864529220E0
2.244570958E0,6.874243414E0,8.564954710E0,-2.162772803E0,1.119335776E1
2.254540958E0,6.578023469E0,2.329737123E0,-1.069668581E0,7.059905006E0
2.264509958E0,4.560973805E0,-3.389266047E0,-1.786281112E0,5.956543175E0
2.274479958E0,2.321713135E0,-4.697425599E0,5.916294658E-1,5.273156982E0
2.284448958E0,2.716815197E0,-4.149069037E0,2.803355743E0,5.696899342E0
2.294418958E0,1.883355856E0,-1.134057536E0,2.950112085E0,3.679167989E0
2.304387958E0,9.151414360E-1,1.003105048E0,4.006366569E0,4.230210003E0
2.314357958E0,2.576049328E0,-1.645698845E-2,4.204608815E0,4.931027911E0
2.324326958E0,2.938907651E0,-2.043050770E0,4.478176646E0,5.732826589E0
2.334295958E0,1.556231183E0,-4.435024779E0,4.099901555E0,6.237025978E0
2.344265958E0,1.129832484E0,-6.530539985E0,2.560134376E0,7.104840741E0
2.354234958E0,-1.014401649E0,-6.435216336E0,3.306415679E0,7.305710413E0
2.364204958E0,-8.722060624E-1,-5.553027030E0,3.664379883E0,6.710032231E0
2.374173958E0,-1.774802297E0,-4.537507466E0,3.563671533E0,6.036443655E0
2.384143958E0,-5.069433644E-1,-3.953310981E0,2.484362648E0,4.696564388E0
2.394112958E0,-5.479390705E-1,-2.203397796E0,4.791044784E-1,2.320504293E0
2.404082958E0,6.115639396E-2,-3.005134677E0,2.447738028E-1,3.015707006E0
2.414051958E0,2.314574269E-1,-4.879273421E0,3.787861383E-1,4.899424516E0
2.424021958E0,2.331895184E-1,-5.021313983E0,1.030134972E0,5.131193772E0
2.433990958E0,8.131659950E-1,-3.421111738E0,1.382471230E0,3.778421782E0
2.443960958E0,6.373223133E-1,-1.938164878E0,5.821224779E-1,2.121680797E0
2.453929958E0,7.454968992E-1,-9.805505830E-1,6.335925937E-2,1.233393477E0
2.463898958E0,2.599709721E-1,-6.721500108E-1,-3.493167561E-1,8.008699891E-1
2.473868958E0,9.466911844E-1,-2.893775332E-1,-9.291424477E-1,1.357670521E0
2.483837958E0,1.704118523E0,1.957753343E0,-1.177878324E0,2.850300938E0
2.493807958E0,1.693272084E0,3.455965821E0,-2.303418220E0,4.485153911E0
2.503776958E0,1.808305673E0,2.648490483E0,-3.350307219E0,4.637782844E0
2.513746958E0,1.141501114E0,7.434111974E-1,-2.056234195E0,2.466532803E0
2.523715958E0,1.805267899E0,6.313452163E-1,-4.441825676E-1,1.963386646E0
2.533685958E0,1.043139326E0,1.401146360E0,-1.318837736E0,2.188763064E0
2.543654958E0,8.718889240E-1,1.323787112E0,-2.814194142E0,3.229905770E0
2.553624958E0,7.310722567E-1,2.805950153E0,-3.990255736E0,4.932541307E0
2.563593958E0,1.689808778E-1,3.445393471E0,-2.283572186E0,4.136906167E0
2.573563958E0,3.422471070E-1,4.170856347E0,-1.073850510E0,4.320454915E0
2.583532958E0,4.825755318E-1,4.210195245E0,-8.699510837E-1,4.326134305E0
2.593502958E0,7.881229551E-1,3.987957488E0,-6.417623234E-1,4.115434558E0
2.603471958E0,-5.901731437E-1,4.440198396E0,-1.843868001E0,4.843915290E0
2.613440958E0,-3.154562612E-1,2.434922393E0,-2.095888258E0,3.228173988E0
2.623410958E0,-1.473009371E0,2.267325405E0,-1.524692472E0,3.104063181E0
2.633379958E0,-1.352918525E0,2.591218175E0,-2.328094055E0,3.736953585E0
2.643349958E0,-1.927530839E0,3.094020541E0,-1.975165474E0,4.146036287E0
2.653318958E0,-2.825799988E0,2.901029680E0,-1.889544695E0,4.468948191E0
2.663288958E0,-2.896001952E0,2.159510642E0,-2.537931329E-1,3.621425751E0
2.673257958E0,-3.862122191E0,2.614745032E0,4.267911941E-1,4.683484827E0
2.683227958E0,-4.018213613E0,5.180757029E0,-1.849654990E0,6.812305602E0
2.693196958E0,-6.482512709E0,2.511502791E0,-5.866920769E-2,6.952270088E0
2.703166958E0,-5.248751961E0,-9.102670509E-1,-1.481709005E0,5.529325893E0
2.713135958E0,-1.649201912E0,-2.648136726E-1,-2.137391794E0,2.712643897E0
2.723105958E0,-2.636397564E0,-1.454532608E0,9.940588206E-1,3.170868991E0
2.733074958E0,-4.592895217E0,-1.224074836E0,1.861632426E0,5.104774331E0
2.743043958E0,-2.571687890E0,-9.167668158E-1,2.594411339E0,3.766299270E0
2.753013958E0,-4.601362570E0,-2.258925879E0,4.043389385E0,6.528727391E0
2.762982958E0,-3.912891226E0,-1.873051746E0,3.315954242E0,5.460274089E0
2.772952958E0,-4.105774206E0,-2.959414713E0,2.451436976E0,5.623616320E0
2.782921958E0,-3.034988221E0,-3.354548789E0,1.932345144E0,4.919157330E0
2.792891958E0,-4.198899886E0,-4.102429014E0,4.294623191E0,7.273546069E0
2.802860958E0,-3.814876689E0,-3.605150220E0,1.247906333E0,5.395151756E0
2.812830958E0,2.896951101E-1,-4.077781245E0,-1.558388221E-1,4.091027851E0
2.822799958E0,-4.926370550E-1,-4.662791955E0,3.623063457E-1,4.702721125E0
2.832769958E0,-1.376858488E0,-3.735434955E0,-1.471399194E-1,3.983825267E0
2.842738958E0,6.830833539E-1,-1.931944025E0,-4.232553828E-1,2.092404288E0
2.852708958E0,-9.337729309E-1,-3.291110008E0,-5.408814812E-1,3.463508300E0
2.862677958E0,-3.682072826E-1,-4.363511285E0,-3.588085413E-2,4.379165991E0
2.872647958E0,4.060155252E-1,-3.904696353E0,1.073581538E0,4.069899205E0
2.882616958E0,-1.808939402E-1,-1.492109739E0,2.462605743E0,2.885054789E0
2.892585958E0,6.798472124E-1,-1.418022886E-1,9.643064332E-1,1.188354753E0
2.902555958E0,9.432058784E-1,-3.966952828E-1,-4.486282057E-1,1.117260822E0
2.912524958E0,8.061939944E-1,-1.031212321E0,8.821068603E-1,1.578435973E0
2.922494958E0,1.576424689E-1,2.728021386E-1,-1.432324591E0,1.466569428E0
2.932463958E0,7.010485585E-1,5.792365846E-1,-1.249496191E0,1.545388247E0
2.942433958E0,6.576489159E-1,8.445589650E-1,-5.563298249E-1,1.206351862E0
2.952402958E0,-2.251714508E-1,2.199094537E0,1.021491618E0,2.435192824E0
2.962372958E0,-5.498023588E-2,3.089577827E0,9.870111716E-1,3.243871919E0
2.972341958E0,-1.613046166E-1,2.482267590E0,-4.125731045E-1,2.521485303E0
2.982311958E0,3.470719004E-1,1.551774728E0,-1.927278532E0,2.498572843E0
2.992280958E0,7.013357299E-1,1.861221952E0,-3.301374210E0,3.854230226E0
3.002249958E0,9.111523193E-1,3.570407526E0,-3.280414281E0,4.933470006E0
3.012219958E0,1.330870502E-1,4.096454036E0,-2.505025538E0,4.803519624E0
3.022188958E0,4.650947324E-1,3.984033422E0,-8.090710437E-1,4.091873821E0
3.032158958E0,-9.094161348E-1,3.018406395E0,2.260810145E0,3.879314035E0
3.042127958E0,-6.598691037E-1,2.540014400E0,1.494674621E0,3.020124601E0
3.052097958E0,-8.199716424E-1,3.062205548E0,-1.807972528E0,3.649413785E0
3.062066958E0,-4.371580882E-1,2.557897524E0,-3.500372500E0,4.357356375E0
3.072036958E0,3.515891303E-1,3.452108998E0,-5.710572655E0,6.682163683E0
3.082005958E0,5.738726413E-1,5.273401483E0,-3.396023675E0,6.298497425E0
3.091975958E0,1.832528788E0,6.429345732E0,-2.171609116E0,7.029262724E0
3.101944958E0,1.979366260E0,3.814926098E0,-1.394275004E0,4.518357523E0
3.111914958E0,1.720868603E0,2.236822527E0,-3.418282270E-3,2.822193376E0
3.121883958E0,2.855348015E0,2.002411160E0,-3.193667328E-1,3.502093353E0
3.131853958E0,2.329347113E0,2.436999031E0,-1.943252540E0,3.891150561E0
3.141822958E0,2.779454665E0,3.025931761E0,-2.255832995E0,4.687260795E0
3.151791958E0,3.718135383E0,2.520935520E0,-1.048067213E0,4.612818173E0
3.161761958E0,3.704345017E0,4.781171760E-1,1.486455774E-1,3.738029367E0
3.171730958E0,2.505441275E0,-1.537970329E0,2.364891753E0,3.772969880E0
3.181700958E0,1.181419617E0,-2.287054495E0,4.047316960E0,4.796576398E0
3.191669958E0,9.975007841E-1,-3.133557074E0,3.349237179E0,4.693780718E0
3.201639958E0,-7.897788135E-1,-2.257157097E0,1.167296033E0,2.661031522E0
3.211608958E0,-1.334364579E0,-1.118018331E0,1.545516161E0,2.327899057E0
3.221578958E0,-9.568680440E-1,-4.909298873E-1,3.300890645E0,3.471669290E0
3.231547958E0,-1.140338030E0,-2.624087420E0,3.960992761E0,4.886273556E0
3.241517917E0,-5.788806354E-1,-2.885967545E0,4.944528932E0,5.754326878E0
3.251486917E0,2.952616594E-1,-4.823160616E0,5.224901168E0,7.116856749E0
3.261456917E0,7.827970187E-1,-3.956228157E0,1.933634455E0,4.472522175E0
3.271425917E0,9.760340475E-2,-6.189526275E-1,1.392327297E-1,6.418835819E-1
3.281394917E0,-1.144978819E0,1.395542681E0,-1.592955206E0,2.407492919E0
3.291364917E0,-6.687898352E-1,2.414266519E0,-2.923107889E0,3.849743160E0
3.301333917E0,8.086546489E-1,9.378241012E-1,-3.885364873E0,4.077927977E0
3.311303917E0,-6.628609047E-1,-1.900709076E0,-3.952040089E0,4.435166337E0
3.321272917E0,1.344879773E0,-2.969304694E0,-1.296858053E0,3.508177985E0
3.331242917E0,8.451990889E-1,-1.655301435E0,2.128871232E0,2.826035573E0
3.341211917E0,-3.253208794E-1,-8.521615148E-2,4.248381071E0,4.261670704E0
3.351181917E0,9.480946624E-1,3.252899623E0,2.486884552E0,4.202955415E0
3.361150917E0,1.069931560E-1,4.417588967E0,8.847702670E-1,4.506590534E0
3.371120917E0,8.284383376E-1,5.318993393E0,-2.271429273E0,5.842721261E0
3.381089917E0,-5.018333365E-1,4.102390422E0,-5.169591771E0,6.618619414E0
3.391059917E0,-1.220243959E0,4.914295319E-1,-4.828366392E0,5.004360131E0
3.401028917E0,-1.858066356E0,5.340943256E-1,-5.732076375E0,6.049327806E0
3.410998917E0,-3.491036251E0,1.600540214E0,-6.281555602E0,7.362540585E0
3.420967917E0,-3.539942363E0,2.873772592E0,-4.007554724E0,6.070441146E0
3.430936917E0,-4.436992368E0,4.387542757E0,-1.154929172E0,6.345966759E0
3.440906917E0,-4.346011154E0,6.157685262E0,3.345282122E0,8.245957386E0
3.450875917E0,-4.610711683E0,6.037372953E0,1.944841229E0,7.841616019E0
3.460845917E0,-5.480896947E0,3.552169183E0,8.116660380E-1,6.581560530E0
3.470814917E0,-5.710383205E0,1.761645331E0,-1.969771417E0,6.292207089E0
3.480784917E0,-6.239414134E0,1.161888820E0,-1.439087480E0,6.507783581E0
3.490753917E0,-6.269768200E0,3.030058434E0,-2.272915635E0,7.325120673E0
3.500723917E0,-5.327527404E0,3.250473321E0,-2.730036337E0,6.811844350E0
3.510692917E0,-4.197952929E0,1.989411922E0,-2.593307385E0,5.320320647E0
3.520662917E0,-2.556357660E0,1.620493545E0,1.050328331E0,3.203771749E0
3.530631917E0,-8.559163774E-1,2.234368743E0,4.572231449E0,5.160455110E0
3.540601917E0,3.167791937E-1,1.413603560E0,6.103404390E0,6.272971324E0
3.550570917E0,1.034501453E-1,-1.358258202E0,3.126935980E0,3.410761777E0
3.560539917E0,-1.667363328E-1,-4.506016702E0,7.570787716E-1,4.572215632E0
3.570509917E0,-2.320778165E-1,-5.395444568E0,3.243216634E-2,5.400530904E0
3.580478917E0,-1.002532313E0,-4.332811942E0,-1.291516621E0,4.631019925E0
3.590448917E0,-5.362190576E-1,-3.620735680E0,-1.704179188E0,4.037509684E0
3.600417917E0,4.736399630E-1,-1.670797434E0,-2.297771564E0,2.880217534E0
3.610387917E0,9.336019729E-1,1.156583057E0,-1.350458894E0,2.008242076E0
3.620356917E0,6.852720398E-1,1.488887631E0,1.675554144E0,2.343899707E0
3.630326917E0,4.263484868E-1,-1.563877880E0,3.638251600E0,3.983009133E0
3.640295917E0,8.574775474E-2,-4.696581261E0,3.073302394E0,5.613413918E0
3.650265917E0,4.631201642E-1,-5.227359338E0,1.473773164E0,5.450850692E0
3.660234917E0,1.297841847E0,-3.326052384E0,-3.591722381E-1,3.588317519E0
3.670204917E0,6.500933632E-1,-2.212358361E0,-7.173656523E-2,2.307010411E0
3.680173917E0,2.340843251E-1,-2.943781013E0,1.384779711E0,3.261634095E0
3.690142917E0,-5.185567753E-1,-1.744014806E0,1.595209308E0,2.419748233E0
3.700112917E0,-5.188063052E-1,6.531070912E-1,5.882760876E-1,1.020675076E0
3.710081917E0,-1.954882616E-1,6.892130631E-1,1.771035082E0,1.910443815E0
3.720051917E0,-1.110314332E0,-3.351118228E-1,6.341644514E-1,1.321840535E0
3.730020917E0,-6.673498122E-1,-1.041067803E0,-2.450417807E0,2.744763263E0
3.739990917E0,-6.102603029E-1,-9.176096919E-1,-1.617774298E0,1.957452135E0
3.749959917E0,-3.117803725E-1,2.533639473E-1,2.613845730E-1,4.792934231E-1
3.759929917E0,2.025910571E-1,1.608697080E0,1.644938707E-1,1.629726255E0
3.769898917E0,-1.246007851E-2,8.912624305E-1,-4.433265352E-1,9.955111202E-1
3.779868917E0,5.541259180E-2,-4.079602361E-1,-2.083596826E-2,4.122332436E-1
3.789837917E0,4.642214507E-1,2.836659729E-1,-1.636208814E0,1.724281654E0
3.799807917E0,7.492956159E-1,2.093434181E0,-1.930236053E0,2.944439134E0
3.809776917E0,1.502851952E0,2.178170861E0,-1.709174464E0,3.150280882E0
3.819745917E0,1.534980794E0,1.601781286E0,-1.591900368E0,2.730570656E0
3.829715917E0,2.110950100E0,4.417583120E-1,-3.200506232E0,3.859339435E0
3.839684917E0,3.161441861E0,1.342979720E-1,-1.565575034E0,3.530407310E0
3.849654917E0,3.085402622E0,-2.010552823E0,3.973619823E0,5.417719676E0
3.859623917E0,4.128017306E0,-1.736275432E0,5.528409083E0,7.114666981E0
3.869593917E0,4.046561207E0,-3.132832897E-1,3.424085632E0,5.310100417E0
3.879562917E0,3.421118755E0,-2.553362131E-2,1.408720551E0,3.699891767E0
3.889532917E0,3.126900604E0,-1.659191588E0,5.159197176E-1,3.577233186E0
3.899501917E0,3.174108977E0,-3.142538105E0,4.330909842E-1,4.487547364E0
3.909471917E0,2.487861914E0,-2.445675130E0,1.788733435E-1,3.493247689E0
3.919440917E0,2.438702033E0,-1.067615624E0,-1.000949180E0,2.844111458E0
3.929410917E0,2.190871452E0,-2.459858721E0,-1.854576007E0,3.780247983E0
3.939379917E0,1.952424775E0,-3.076346747E0,-1.379472778E0,3.896000123E0
3.949349917E0,1.303607055E0,-2.199319655E0,9.451544631E-1,2.725750403E0
3.959318917E0,-2.122036421E-1,-1.309155917E0,2.433384867E0,2.771332083E0
3.969287917E0,-5.414107273E-1,-8.297973767E-1,2.408232484E0,2.604087741E0
3.979257917E0,-5.095919704E-1,-5.078230780E-1,1.340188259E0,1.521076206E0
3.989226917E0,-4.530806411E-1,-1.364791589E0,-3.414838260E-1,1.478022108E0
3.999196917E0,3.072850697E-2,-1.122507238E0,-7.609256548E-1,1.356456631E0
4.009165917E0,4.367204972E-2,-1.652923373E0,-9.869293106E-1,1.925640773E0
4.019135917E0,-8.704939976E-1,-2.016068794E0,-8.609264910E-1,2.358704645E0
4.029104917E0,-8.739482403E-1,-5.151028615E-1,8.890387344E-1,1.348890787E0
4.039074917E0,-9.221165065E-1,1.481769816E0,1.590393541E0,2.361205678E0
4.049043917E0,-8.090507247E-1,2.706586371E0,1.169433775E0,3.057408741E0
4.059013917E0,-7.517137320E-1,5.137451380E-2,9.959293449E-1,1.248834711E0
4.068982917E0,-1.260755626E-1,-1.988525777E0,3.155590260E-1,2.017351559E0
4.078952917E0,-5.427274472E-1,-1.000301600E0,-2.072250888E0,2.364186989E0
4.088921917E0,3.102978475E-1,1.090321824E0,-3.619554543E0,3.792922557E0
4.098890917E0,5.209470805E-1,2.855414674E-1,-2.236219679E0,2.313784399E0
4.108860917E0,9.028097313E-1,-2.427334169E0,5.770973808E-1,2.653310755E0
4.118829917E0,9.868115623E-1,-2.667244550E0,1.952632059E0,3.449748180E0
4.128799917E0,1.164240643E0,6.653798121E-1,1.422478464E0,1.954899371E0
4.138768917E0,1.219736494E0,2.003727368E0,-1.210067831E0,2.639497042E0
4.148738917E0,5.063730051E-1,-1.910203493E-1,-8.082904404E-1,9.727465396E-1
4.158707917E0,2.717689356E-1,-1.591737523E0,-1.341450673E-1,1.620333792E0
4.168677917E0,7.691896708E-1,-1.837344262E-1,-1.344008830E0,1.559413616E0
4.178646917E0,3.814830934E-1,8.361556390E-1,-1.040144235E0,1.388014998E0
4.188616917E0,1.178306413E-1,-2.439779967E-2,-4.107955509E-1,4.280564184E-1
4.198585917E0,1.539136264E-1,-4.287675530E-1,-8.311279106E-1,9.477893345E-1
4.208555917E0,1.958296110E-1,9.416721538E-1,-2.759920871E0,2.922714303E0
4.218524917E0,5.741409189E-1,1.371198091E0,-1.853836334E0,2.376243075E0
4.228494917E0,4.735584309E-1,6.344620746E-1,3.972832203E-1,8.857955005E-1
4.238464167E0,5.781695408E-1,-6.788523817E-1,2.038346978E0,2.224854821E0
4.248433167E0,3.081051782E-1,9.053407717E-1,9.974274015E-1,1.381822035E0
4.258403167E0,2.002979802E-1,2.130531256E0,-1.024733899E0,2.372627716E0
4.268372167E0,-8.086929481E-2,8.260051650E-1,-1.386011134E0,1.615503401E0
4.278342167E0,6.524950339E-1,-1.995660257E0,2.791370705E0,3.492872750E0
4.288311167E0,-2.638014830E-1,-2.203593093E0,9.408026728E0,9.666249565E0
4.298281167E0,3.181586981E-2,1.591166835E0,1.122542614E1,1.133768125E1
4.308250167E0,5.358023704E-1,5.725232209E0,3.113562813E0,6.539085671E0
4.318220167E0,1.305364143E0,4.777083972E0,-5.951503667E0,7.742409361E0
4.328189167E0,3.677328542E-2,3.263480160E-1,-1.215044981E1,1.215488732E1
4.338159167E0,-1.173987586E0,-3.044820607E0,-1.227621406E1,1.270254349E1
4.348128167E0,-9.137709948E-1,-5.430618494E0,-9.191597303E0,1.071503876E1
4.358098167E0,-1.708456719E0,-5.784347559E0,3.937871701E0,7.203078132E0
4.368067167E0,-3.320743112E0,-1.115728269E0,3.088838914E1,3.108640809E1
4.378036167E0,-2.316702510E0,9.383791773E0,1.093488501E1,1.459432659E1
4.388006167E0,9.261132246E-1,4.197517312E0,-5.210267342E0,6.754533519E0
4.397975167E0,-6.012274510E-1,-4.857673514E0,-8.877068557E0,1.013710080E1
4.407945167E0,-6.866900627E-1,-3.297900672E0,-7.115925794E0,7.872997649E0
4.417914167E0,2.239126184E-1,2.265050545E-1,-6.583951376E0,6.591650561E0
4.427884167E0,1.584803164E0,-6.666644454E-2,-3.013118758E0,3.405132910E0
4.437853167E0,3.705194910E-1,-2.991226782E0,1.152618352E0,3.226956991E0
4.447823167E0,2.807387106E-1,-2.227873363E0,2.969023150E0,3.722543810E0
4.457792167E0,1.249035868E0,-9.345514145E-1,3.188089085E0,3.549280062E0
4.467762167E0,1.201748193E0,2.600076122E0,2.153768091E0,3.583756625E0
4.477731167E0,2.052126819E0,4.656649455E-1,2.261998299E0,3.089450538E0
4.487701167E0,2.348043439E0,-1.494933360E0,1.269040509E0,3.059182498E0
4.497670167E0,9.043773698E-1,-5.154095480E0,1.051774932E0,5.337492778E0
4.507640167E0,2.131895558E-1,-7.377187575E0,4.129186749E-1,7.391809531E0
4.517609167E0,-5.023543234E-1,-5.476600413E0,-2.419171456E0,6.008153001E0
4.527578167E0,-1.263852567E0,-2.391715562E0,-1.777333703E0,3.236748636E0
4.537548167E0,-6.572083282E-1,3.151261859E0,8.217671031E-1,3.322299695E0
4.547517167E0,-3.598646215E-1,1.042463943E1,2.117884313E0,1.064368563E1
4.557487167E0,3.477464864E-1,9.585594388E0,2.250506766E0,9.852376774E0
4.567456167E0,-8.186175735E-1,8.301964492E-1,1.218855611E0,1.686703850E0
4.577426167E0,-1.438605377E0,-9.709498057E0,-2.581405377E-1,9.818888659E0
4.587395167E0,8.855434151E-1,-6.536328728E0,-2.916742610E0,7.212154175E0
4.597365167E0,3.096061219E-1,1.975001752E0,-2.730298292E0,3.383935081E0
4.607334167E0,-9.639794277E-1,4.118922255E0,-1.526094049E-1,4.232973719E0
4.617304167E0,-6.934930057E-1,2.242434100E0,1.072955301E0,2.580828611E0
4.627273167E0,2.000362003E0,-2.654840559E-1,1.625894326E-1,2.024441960E0
4.637243167E0,2.908063881E0,1.852613096E0,-1.468918805E0,3.747897180E0
4.647212167E0,1.803959877E0,2.894891273E0,-2.037725419E0,3.973284737E0
4.657181167E0,9.267373417E-1,1.663701545E0,-1.002667091E0,2.152228201E0
4.667151167E0,5.373351814E-1,-5.350705183E-1,4.820655084E-1,8.985636934E-1
4.677120167E0,5.077236023E-1,9.983038992E-2,5.608631712E-1,7.630968876E-1
4.687090167E0,4.212299073E-1,2.284712100E0,-6.873828846E-1,2.422775113E0
4.697059167E0,8.216964979E-1,7.411225972E-1,-4.342890787E-1,1.188719834E0
4.707029167E0,1.080619393E0,-1.724063814E0,-4.499911916E-1,2.083896922E0
4.716998167E0,1.563132506E0,-1.546411369E0,-1.539145619E0,2.683978501E0
4.726968167E0,1.993509651E0,-4.295069334E-1,-6.033028471E-1,2.126624382E0
4.736937167E0,2.432543599E0,-1.270714274E0,1.595788767E0,3.174669261E0
4.746907167E0,1.898074321E0,-3.464233492E0,2.788154152E0,4.835018448E0
4.756876167E0,1.330219926E0,-3.519653109E0,2.007790014E0,4.264816972E0
4.766846167E0,3.143127651E-1,-1.637476491E0,4.994656527E-1,1.740571087E0
4.776815167E0,5.205000974E-1,4.374953994E-1,5.352634764E-1,8.653493890E-1
4.786785167E0,-1.524475832E-1,-3.769664848E-1,7.432612163E-1,8.472197070E-1
4.796754167E0,-2.485301272E-1,-1.455910797E0,7.619278675E-1,1.661919838E0
4.806723167E0,-1.318095140E0,-1.402901986E0,1.057352006E0,2.196247264E0
4.816693167E0,-1.018420806E0,-8.413178533E-2,1.636499421E0,1.929349489E0
4.826662167E0,-1.495065799E0,7.158363131E-1,-3.460844153E-1,1.693345149E0
4.836632167E0,-1.184944903E0,3.450620297E-1,-1.367160296E0,1.841816903E0
4.846601167E0,-1.793742013E0,-3.162253162E-1,-1.611828264E0,2.432179930E0
4.856571167E0,-1.029172812E0,4.702862924E-1,-9.738157600E-1,1.492877426E0
4.866540167E0,-1.013009647E0,3.162647849E-1,3.057519005E0,3.236453989E0
4.876510167E0,-3.130849229E-1,3.642888442E-1,3.391925361E0,3.425767970E0
4.886479167E0,-1.861790740E-1,1.250973197E0,2.178859078E0,2.519329965E0
4.896449167E0,9.099646036E-1,1.846751555E0,-2.659635276E-1,2.075876558E0
4.906418167E0,1.577709761E0,2.657234994E-1,2.528127303E0,2.991856401E0
4.916388167E0,1.574271598E0,4.747798777E-1,4.600419121E0,4.885448095E0
4.926357167E0,1.931433856E0,1.091563480E0,3.713390660E0,4.325646514E0
4.936327167E0,2.376048679E0,3.191984207E0,1.352897183E0,4.202939601E0
4.946296167E0,2.940925232E0,1.896425698E0,1.595983479E0,3.846119462E0
4.956266167E0,2.431655553E0,2.553692499E-1,9.126082760E-1,2.609792338E0
4.966235167E0,2.893524486E0,1.149539208E-1,-4.457471656E0,5.315519910E0
4.976204167E0,4.143530262E0,4.044261789E-1,-8.641587734E0,9.592155239E0
4.986174167E0,3.444068491E0,-2.753129330E-1,-5.733358085E0,6.693937549E0
4.996143167E0,2.381125962E0,-2.380174035E0,-4.815854520E-1,3.401016588E0
5.006113167E0,1.927853313E0,-2.271208833E0,3.023975283E-1,2.994403484E0
5.016082167E0,1.121057713E0,-1.809309787E-1,1.468048739E-1,1.145014448E0
5.026052167E0,1.122444234E0,1.340898111E-1,-1.725541990E0,2.062851497E0
5.036021167E0,1.606327496E0,-2.725233141E0,1.325559695E0,3.429911399E0
5.045991167E0,1.366726432E0,2.429000625E-1,2.998801850E0,3.304505124E0
5.055960167E0,2.931060687E0,2.989638678E0,1.871077434E0,4.585846372E0
5.065930167E0,3.363930062E0,3.746025724E0,5.388957667E-1,5.063510920E0
5.075899167E0,2.207043389E0,-1.469765190E0,9.084263474E-1,2.802942857E0
5.085869167E0,1.197883549E0,-1.224933207E0,-2.045100512E0,2.667924748E0
5.095838167E0,3.617542955E-1,1.564069084E0,-8.143302634E0,8.300033497E0
5.105808167E0,7.936270123E-1,-4.215593979E-1,-9.590550488E0,9.632560139E0
5.115777167E0,-2.556461155E-1,-5.516147472E0,-7.587945786E0,9.384570268E0
5.125747167E0,-3.348423831E0,-1.047293626E1,5.114172446E0,1.212638016E1
5.135716167E0,-5.540934988E0,-8.084776683E0,2.443911376E1,2.633127144E1
5.145685167E0,-4.414706582E0,2.955102099E0,1.777681028E1,1.855363162E1
5.155655167E0,-2.578877626E0,3.760366606E0,-5.583582240E-1,4.593770861E0
5.165624167E0,-1.865902063E0,-4.340597217E0,-7.527856289E0,8.887687833E0
5.175594167E0,-1.805802042E0,-4.468238719E0,-3.082453871E0,5.720804151E0
5.185563167E0,-1.015484773E0,7.472408313E-1,-3.402962565E-2,1.261243910E0
5.195533167E0,-5.706362075E-1,2.795197708E0,1.327191069E0,3.146457062E0
5.205502167E0,-1.016050710E0,1.491194943E-1,-3.015128446E-1,1.070282984E0
5.215472167E0,-2.512759066E0,-1.402366381E0,-1.417932839E0,3.207978043E0
5.225441167E0,-1.210540432E0,1.011384121E0,-7.135544372E-1,1.731319125E0
5.235411167E0,4.782503463E-2,1.021084651E0,-4.958912498E-1,1.136137857E0
5.245380417E0,1.152317367E-1,-1.146257459E0,-1.881427006E0,2.206116971E0
5.255350417E0,3.376134809E-1,-1.899001397E0,-1.445467962E0,2.410304296E0
5.265319417E0,1.350523506E0,1.077037827E0,-4.864585215E-1,1.794593579E0
5.275289417E0,8.104854121E-1,2.235107831E0,1.292425278E0,2.706096214E0
5.285258417E0,5.611472363E-1,-1.553430075E0,1.114281083E0,1.992398943E0
5.295227417E0,2.170254754E-1,-6.309212347E0,-1.714072092E0,6.541506221E0
5.305197417E0,-1.072488401E0,-7.524724520E0,-4.263251710E0,8.714759068E0
5.315166417E0,9.486000080E-2,2.958928517E0,-6.854181032E0,7.466194078E0
5.325136417E0,9.264934397E-1,1.449752568E1,-7.415285693E0,1.631021468E1
5.335105417E0,-7.341537394E-1,1.447500103E1,-4.503849431E0,1.517726248E1
5.345075417E0,-4.269953204E0,-6.113380909E-1,3.769580648E0,5.728522749E0
5.355044417E0,-4.463580242E0,-9.373650362E0,9.698723978E0,1.420753731E1
5.365014417E0,-5.242897144E-1,-5.314245454E0,5.672065816E0,7.790276957E0
5.374983417E0,1.662900623E0,1.017628070E0,-2.738996610E0,3.361979744E0
5.384953417E0,2.441292203E-1,1.754533070E0,-7.702382813E0,7.903460404E0
5.394922417E0,-1.308914427E0,-1.198565188E0,-4.887888708E0,5.200122259E0
5.404892417E0,1.849438350E0,-2.514502413E0,1.936406035E0,3.673256448E0
5.414861417E0,5.151948967E0,-6.183182046E-1,6.418741221E0,8.253795153E0
5.424831417E0,5.698834369E0,1.009171827E0,5.876293856E0,8.247785789E0
5.434800417E0,3.829604656E0,9.069455400E-1,5.178288335E-1,3.969454463E0
5.444770417E0,2.250386606E0,3.764744416E-1,-2.171272316E0,3.149666070E0
5.454739417E0,1.533943936E0,-2.304457855E-1,1.940924764E-2,1.551278820E0
5.464709417E0,1.225212704E0,6.462255031E-2,1.771800483E0,2.155133220E0
5.474678417E0,1.304807196E0,-1.875497344E-1,9.065914911E-1,1.599876512E0
5.484648417E0,5.988289232E-1,-4.543304104E-1,4.288347960E-3,7.516851674E-1
5.494617417E0,7.688527250E-1,-1.470100820E0,-7.485950464E-1,1.820089414E0
5.504586417E0,9.056415378E-1,-1.437737943E0,6.365173709E-1,1.814505815E0
5.514556417E0,3.961717377E-1,-1.278191109E0,1.560154080E0,2.055433120E0
5.524525417E0,1.789568125E-1,-8.822398844E-1,7.693117315E-1,1.184150875E0
5.534495417E0,3.040263798E-1,4.040779772E-1,-4.785560095E-1,6.962233159E-1
5.544464417E0,9.362715192E-1,2.114046201E-1,-2.173641608E0,2.376134279E0
5.554434417E0,1.219110842E0,-1.353165570E-1,-2.643459538E0,2.914175723E0
5.564403417E0,1.224182132E0,-1.093186960E0,-1.741738193E0,2.393184396E0
5.574373417E0,1.671047695E0,-7.910765299E-1,-7.874135417E-1,2.009532921E0
5.584342417E0,4.490878334E-1,-4.759762180E-1,-9.946534824E-1,1.190616980E0
5.594312417E0,1.211169227E-1,-4.652454078E-1,-6.986779511E-1,8.480999221E-1
5.604281417E0,-4.731008862E-1,-8.942930424E-1,6.849118513E-1,1.221756415E0
5.614251417E0,-7.843930162E-1,-7.559870964E-1,1.441578394E0,1.806913711E0
5.624220417E0,-4.550744320E-1,-2.961971408E-1,-1.433936083E-1,5.615934578E-1
5.634190417E0,-6.781662109E-1,2.629796934E-1,-1.850304031E0,1.988138007E0
5.644159417E0,-1.221256989E0,-9.940719768E-1,-1.543686567E0,2.205133997E0
5.654129417E0,1.388491158E-1,-1.496872004E0,1.090668857E0,1.857273116E0
5.664098417E0,8.232647212E-1,-1.387041121E0,3.275482154E0,3.651086307E0
5.674067417E0,1.052548226E0,-1.763216186E-1,3.671681886E0,3.823636352E0
5.684037417E0,2.246969639E0,8.681931183E-1,2.650509526E0,3.581596375E0
5.694006417E0,1.641295307E0,8.518481040E-1,2.101002232E0,2.798875821E0
5.703976417E0,1.283471437E0,3.139396396E-1,1.697284736E0,2.150960832E0
5.713945417E0,1.169774229E0,4.123836547E-2,2.702758491E-2,1.170812897E0
5.723915417E0,9.613291772E-1,1.295830697E-1,-1.654992995E0,1.918318892E0
5.733884417E0,1.669580336E0,2.116779774E-2,-2.511974369E0,3.016282779E0
5.743854417E0,2.285398710E0,-8.448560035E-1,6.314332169E-1,2.517049232E0
5.753823417E0,2.621140716E0,-1.042926341E0,5.424476579E0,6.114165533E0
5.763793417E0,2.694310142E0,1.068451776E0,3.216638700E0,4.329856910E0
5.773762417E0,3.328437755E0,3.282935308E0,-3.746986422E0,5.991332855E0
5.783732417E0,1.741585435E0,2.486698025E0,-8.749813848E0,9.261534931E0
5.793701417E0,-5.272793958E-1,-2.734649205E-1,-1.025978888E1,1.027696815E1
5.803671417E0,-1.289732928E0,-1.897131750E0,-5.823656051E0,6.259192416E0
5.813640417E0,-1.062648926E0,-1.606689731E0,3.372430744E0,3.883807894E0
5.823610417E0,2.511754075E-1,1.635521767E-1,7.678628499E0,7.684476171E0
5.833579417E0,2.907317483E0,1.868124298E0,7.537750947E0,8.292169360E0
5.843549417E0,3.191452403E0,2.077847843E0,4.906921395E0,6.211336223E0
5.853518417E0,1.367978321E0,2.585766231E0,3.945414024E0,4.911602947E0
5.863488417E0,1.345963554E0,3.491657225E0,2.746186346E0,4.641640606E0
5.873457417E0,2.161547519E-2,2.258110193E0,1.903644086E0,2.953538501E0
5.883427417E0,-1.015834363E0,1.799368643E0,-1.324949246E0,2.454615544E0
5.893396417E0,-1.166496572E0,1.470486151E0,-4.491535780E0,4.867950024E0
5.903365417E0,-1.688144515E0,1.387700395E0,-5.045043738E0,5.498000601E0
5.913335417E0,-8.188217144E-1,-6.562403217E-1,-5.086859517E0,5.193963814E0
5.923304417E0,-2.677059978E-2,-8.254476330E-1,-3.648796468E0,3.741095578E0
5.933274417E0,3.278588634E-1,-2.328577620E0,-7.361182576E-1,2.464068841E0
5.943243417E0,1.404650011E0,-2.245675796E0,1.101459893E0,2.868678325E0
5.953213417E0,1.494208890E0,-3.539470785E0,1.589349228E0,4.157709058E0
5.963182417E0,2.366799407E-2,-6.440047306E0,1.268879710E0,6.563903198E0
5.973152417E0,-1.168074882E0,-5.884536676E0,2.088268751E-1,6.002980883E0
5.983121417E0,-9.854287688E-1,-1.799687024E0,-7.564045876E-1,2.186799292E0
5.993091417E0,6.093895063E-3,1.812601769E0,-5.263499808E-1,1.887486850E0
6.003060417E0,-3.090522444E-1,1.510812059E0,-1.719999415E-1,1.551660513E0
6.013030417E0,-8.360854724E-1,-2.977408057E-1,2.648239052E-1,9.261858374E-1
6.022999417E0,-7.999594738E-1,-1.714936018E0,3.522142269E0,3.998302999E0
6.032969417E0,-1.626442502E0,-9.897511768E-1,8.720683604E0,8.926099100E0
6.042938417E0,-2.089399018E0,-1.042103930E0,1.015228197E1,1.041731242E1
6.052908417E0,-1.479269108E0,-4.945118916E-1,5.658024897E0,5.869073593E0
6.062877417E0,-9.918450648E-1,-2.380103284E-1,7.857827532E-1,1.287579156E0
6.072847417E0,-1.134065283E0,-1.432021997E0,-3.620373738E-1,1.862219677E0
6.082816417E0,-1.392680176E0,-1.884599705E0,1.669997535E0,2.877527739E0
6.092786417E0,-4.872997896E-1,-1.141993377E0,2.103474435E0,2.442583603E0
6.102755417E0,-7.639074424E-1,1.359644870E0,-2.255312008E-1,1.575770629E0
6.112724417E0,-1.396202393E0,2.853847328E0,-2.799021787E0,4.234188075E0
6.122694417E0,-1.083670397E0,1.701177227E0,-4.528946850E0,4.957792358E0
6.132663417E0,-6.583554058E-1,-7.608923256E-1,-7.051174897E0,7.122601800E0
6.142633417E0,-7.297683276E-1,-1.437168424E0,-7.619726572E0,7.788340512E0
6.152602417E0,-2.336237107E-1,-8.965734565E-1,-4.808548424E0,4.896995195E0
6.162572417E0,7.156822024E-2,8.433737344E-1,-2.567656819E0,2.703564833E0
6.172541417E0,7.009579267E-1,8.140487784E-1,-2.633374845E0,2.844060566E0
6.182511417E0,5.378971719E-1,4.637362415E-1,-2.090293642E0,2.207648563E0
6.192480417E0,2.101434122E-1,-4.213623467E-1,1.531184050E0,1.601946028E0
6.202450417E0,-1.618558811E-1,5.732171685E-1,4.875523016E0,4.911771568E0
6.212419417E0,-5.420659809E-1,4.680070770E0,1.743130415E0,5.023485004E0
6.222389417E0,-1.531326430E0,6.881710893E0,-6.198837966E-1,7.077228368E0
6.232358417E0,-1.735832798E0,4.642168534E0,-3.807823777E-1,4.970698081E0
6.242327542E0,-1.006437961E0,-1.249497945E0,1.705866694E-1,1.613462827E0
6.252296542E0,3.012451152E-1,-3.821155429E0,-4.408648574E-1,3.858281904E0
6.262266542E0,8.139284720E-1,-2.088243023E0,-1.707135540E0,2.817365832E0
6.272235542E0,1.517632397E-1,-1.593691078E0,-5.661566556E-2,1.601901578E0
6.282205542E0,6.387377780E-2,-2.730849977E0,3.098989213E0,4.131023553E0
6.292174542E0,-4.496691562E-3,-3.939454249E0,5.796452465E0,7.008436429E0
6.302144542E0,8.666438254E-1,-3.686561880E0,4.759483268E0,6.082309676E0
6.312113542E0,3.668575991E-2,-1.567965083E0,2.162407352E0,2.671304158E0
6.322083542E0,-9.715202893E-1,-6.820730281E-1,-1.118467104E-1,1.192302384E0
6.332052542E0,-1.141896605E0,-8.688047370E-1,1.212601429E-1,1.439949149E0
6.342022542E0,-1.569493692E0,-1.570715321E0,1.090951862E0,2.473991316E0
6.351991542E0,-7.436949335E-2,-1.238841979E0,1.164319215E0,1.701734264E0
6.361961542E0,1.240644310E-1,-4.929617947E-1,7.275099868E-1,8.875100534E-1
6.371930542E0,6.462741081E-2,6.882833558E-1,-2.678042310E-1,7.413702087E-1
6.381899542E0,-5.096051632E-1,1.846344004E0,-7.955937964E-1,2.074042693E0
6.391869542E0,-5.317004390E-1,2.105775022E0,-1.752506425E0,2.790747673E0
6.401838542E0,-3.968181839E-1,-5.426084563E-1,-5.179574722E-1,8.486274512E-1
6.411808542E0,-9.047164352E-1,-2.336773954E0,-9.310223275E-1,2.673167955E0
6.421777542E0,-1.482367109E0,-1.419503401E0,-1.397803214E0,2.483194712E0
6.431747542E0,-1.073254533E0,5.727938300E-1,-9.603098613E-1,1.549891317E0
6.441716542E0,-1.453107788E0,1.929373589E-1,8.047072667E-1,1.672214356E0
6.451686542E0,-1.984406121E0,1.425828919E-1,1.827868849E0,2.701722055E0
6.461655542E0,-1.419369646E0,1.031684484E0,5.137749588E-1,1.828372986E0
6.471625542E0,-6.813030960E-1,2.662086136E0,-4.577253038E-1,2.785747468E0
6.481594542E0,-1.330844555E-3,2.665113240E0,-3.170260924E-1,2.683903108E0
6.491564542E0,1.012586893E0,9.634787598E-1,-8.076542634E-1,1.614288991E0
6.501533542E0,1.438369004E0,2.227569893E-1,-9.123235166E-1,1.717806819E0
6.511503542E0,1.666075222E0,3.175295377E-1,-5.564181179E-1,1.785002178E0
6.521472542E0,2.193707498E0,5.779311937E-1,-3.669373405E-1,2.298042659E0
6.531442542E0,2.171891975E0,-4.127876973E-1,-2.771521747E-1,2.228075798E0
6.541411542E0,1.363753854E0,-8.333176929E-1,-8.567124027E-1,1.813339211E0
6.551381542E0,6.734608834E-1,-2.743630528E-1,-1.533046389E-1,7.431870280E-1
6.561350542E0,7.856684402E-1,5.522978774E-1,2.330127132E-1,9.882321426E-1
6.571320542E0,7.073414051E-1,3.809344053E-2,-3.988385797E-3,7.083776399E-1
6.581289542E0,6.459688834E-1,-1.059417243E0,-3.534174085E-2,1.241325796E0
6.591259542E0,1.041476633E-1,-8.825474480E-1,-8.916360676E-2,8.931331829E-1
6.601228542E0,-1.479490370E-1,5.742258132E-3,1.728787780E-2,1.490663000E-1
6.611198542E0,7.147165713E-1,-4.593613547E-1,7.668067843E-1,1.144475983E0
6.621167542E0,8.415314960E-1,-5.676032567E-1,1.200270821E0,1.571941080E0
6.631137542E0,5.651152664E-1,-7.312250152E-1,1.177590056E0,1.496918043E0
6.641106542E0,4.836731638E-1,2.474190831E-1,1.145933815E0,1.268195664E0
6.651076542E0,2.906530667E-1,-1.325976309E0,3.221815825E-2,1.357840340E0
6.661045542E0,6.673104165E-1,-1.406645666E0,-2.764505088E-1,1.581259025E0
6.671014542E0,6.243479995E-1,-1.712992696E0,1.644751596E-1,1.830630077E0
6.680984542E0,6.191828616E-1,-1.053515356E0,2.261198984E0,2.570272917E0
6.690953542E0,7.165836603E-1,-5.551519033E-1,2.095753187E0,2.283389410E0
6.700923542E0,8.035612855E-1,1.932501850E-1,1.010207076E0,1.305210600E0
6.710892542E0,1.014251376E0,2.044706994E-1,-4.275033849E-1,1.119496880E0
6.720862542E0,1.151176429E0,3.484004974E-2,-1.120734070E0,1.607005244E0
6.730831542E0,8.587361240E-1,4.077009121E-1,-1.167666746E0,1.505687018E0
6.740801542E0,9.433507432E-1,2.630299795E-1,-1.068968670E0,1.449754949E0
6.750770542E0,3.968339714E-1,3.889249179E-1,-1.017564043E0,1.159386206E0
6.760740542E0,-2.330170986E-1,2.344748095E-1,-6.960841262E-1,7.705897192E-1
6.770709542E0,-5.504261836E-1,-2.889702746E-1,8.528047085E-2,6.274914836E-1
6.780679542E0,-1.081408621E0,-7.709317026E-1,2.127719915E-1,1.345010117E0
6.790648542E0,-1.267944887E0,-5.163392553E-1,-3.454277730E-1,1.411952835E0
6.800618542E0,-1.309163226E0,-6.831155866E-1,-1.977750528E-1,1.489855774E0
6.810587542E0,-1.131214912E0,-3.984462315E-1,3.504025841E-1,1.249475309E0
6.820557542E0,-7.405769788E-1,-5.490149581E-1,7.291852140E-1,1.175407488E0
6.830526542E0,-8.442479662E-1,-8.489566559E-1,3.311395168E-1,1.242230016E0
6.840496542E0,-5.992758697E-1,-5.534325296E-1,-8.570907176E-2,8.202226392E-1
6.850465542E0,-4.343047931E-1,-6.588356084E-1,3.994542915E-1,8.844482705E-1
6.860435542E0,-8.362453938E-1,-1.215152569E0,8.818753105E-1,1.718605885E0
6.870404542E0,-8.913511620E-1,-9.502465108E-1,9.718943650E-1,1.625439627E0
6.880374542E0,-5.073419618E-1,-1.180963899E0,9.133777696E-1,1.576810245E0
6.890343542E0,-5.693488698E-1,-1.397934777E0,-6.762608957E-1,1.653997755E0
6.900313542E0,-1.344351258E-1,-1.726265876E0,-2.526900557E0,3.063216137E0
6.910282542E0,-4.635989050E-1,-2.376291192E0,-3.153942515E0,3.976057992E0
6.920252542E0,8.979386352E-2,-2.690897999E0,-1.240116672E0,2.964267926E0
6.930221542E0,5.056628242E-2,-2.168536111E0,1.916582805E0,2.894545813E0
6.940191542E0,5.048792973E-2,-1.202058899E0,4.824827072E0,4.972569849E0
6.950160542E0,9.665934985E-1,1.073371331E0,4.501805245E0,4.727862040E0
6.960130542E0,8.760687330E-1,2.237732354E0,3.217280139E0,4.015698446E0
6.970099542E0,6.324883470E-1,3.216346924E0,2.849658090E-1,3.290309188E0
6.980069542E0,2.610510624E-1,2.571328871E0,-1.119262326E0,2.816492140E0
6.990038542E0,8.155346290E-1,3.291397398E0,-3.817438354E0,5.105999329E0
7.000008542E0,9.653929920E-1,2.891734654E0,-2.456818753E0,3.915363498E0
7.009977542E0,6.922470371E-1,2.320516941E0,5.609730989E-1,2.485698222E0
7.019947542E0,1.222941353E0,2.480856657E0,-9.170714557E-1,2.913975868E0
7.029916542E0,3.033510630E-1,2.519919274E0,-1.758186995E0,3.087593970E0
7.039885542E0,-1.394734614E-1,8.739380077E-1,-1.453932391E0,1.702098671E0
7.049855542E0,1.703447044E-1,-1.114232258E0,1.025588762E0,1.523930166E0
7.059824542E0,2.362346752E-1,-1.646803969E0,2.844200884E0,3.295033960E0
7.069794542E0,-2.708728498E-1,-1.144604158E-1,7.475770462E-1,8.033335095E-1
7.079763542E0,1.702380292E-1,-9.838767716E-1,-4.419910312E-2,9.994738861E-1
7.089733542E0,4.152996612E-1,-2.115353346E0,-3.439525205E-1,2.183001815E0
7.099702542E0,5.159342990E-1,-2.019152323E0,-1.437563696E0,2.531749135E0
7.109672542E0,5.180045057E-1,-1.295896478E0,-1.215347282E0,1.850606756E0
7.119641542E0,-4.931401896E-2,-7.004224679E-1,-2.360468334E-1,7.407709589E-1
7.129611542E0,-8.077500846E-2,-8.760400817E-1,1.172114139E0,1.465545080E0
7.139580542E0,3.129385598E-1,-1.827468899E0,1.394729333E0,2.320095479E0
7.149550542E0,3.980084578E-1,-3.303164335E0,1.576069617E0,3.681480788E0
7.159519542E0,-1.096522870E-2,-1.471784233E0,1.951545061E0,2.444339827E0
7.169489542E0,-2.512454828E-1,-1.562473086E0,1.384247614E0,2.102519416E0
7.179458542E0,7.158368978E-1,-1.020886723E0,9.533446580E-1,1.569553504E0
7.189428542E0,-2.880604844E-1,-5.495874006E-1,7.609560603E-1,9.818753888E-1
7.199397542E0,4.409610076E-2,-8.574181616E-1,1.817113481E0,2.009729278E0
7.209367542E0,-1.296033065E-1,-1.702212477E0,5.600223416E-1,1.796649481E0
7.219336542E0,-5.099326438E-1,-9.847406977E-1,2.982448357E-1,1.148344689E0
7.229306542E0,-3.671654550E-1,8.226187500E-1,-1.035411499E0,1.372439089E0
7.239275917E0,-1.540102882E-1,5.100046742E-1,-5.724792498E-1,7.820207338E-1
7.249245917E0,-2.425425053E-1,-3.478327328E-1,-3.605539352E-1,5.566090343E-1
7.259214917E0,3.838273518E-1,-1.061285428E0,1.766549098E-1,1.142303442E0
7.269184917E0,5.968771957E-1,-8.715684235E-1,-7.375654435E-1,1.288369779E0
7.279153917E0,8.181805672E-1,-9.528330266E-2,-4.291996622E-1,9.288222103E-1
7.289123917E0,8.906519812E-1,-1.381001240E-1,1.153808261E0,1.464105904E0
7.299092917E0,6.993199754E-1,4.507200471E-1,-6.354736429E-1,1.046911524E0
7.309062917E0,1.526981072E0,1.344549698E0,-1.367402955E0,2.451382452E0
7.319031917E0,6.950910497E-1,1.427434857E0,-1.595049094E0,2.250534036E0
7.329001917E0,6.026435370E-1,1.504397956E0,-3.133032871E0,3.527362671E0
7.338970917E0,1.004821644E0,1.415648332E0,-5.275036950E0,5.553354081E0
7.348940917E0,1.778768500E-1,9.787329760E-1,-7.250364391E0,7.318288203E0
7.358909917E0,-6.712245427E-1,3.401161623E-1,-7.452444164E0,7.490336802E0
7.368879917E0,-1.402229556E0,-1.856293918E0,-2.472325569E-1,2.339486862E0
7.378848917E0,-1.847820280E0,-2.393943936E0,7.506613355E0,8.092876584E0
7.388818917E0,-1.309757303E0,1.499780117E0,4.935586785E0,5.322106867E0
7.398787917E0,-8.404335351E-1,4.665193407E0,-1.484704533E0,4.967364050E0
7.408757917E0,2.680275947E-2,-2.807373950E-1,1.509793181E0,1.535906027E0
7.418726917E0,-7.745458665E-1,-1.583509029E0,3.563558682E0,3.975722906E0
7.428696917E0,5.844848992E-1,2.069820786E-1,3.962099639E0,4.010323893E0
7.438665917E0,1.809994057E0,2.712848154E0,3.215162863E0,4.579617432E0
7.448635917E0,4.626115661E-1,3.565298814E-1,3.360155100E-1,6.738170674E-1
7.458604917E0,-1.665117449E-1,-2.623459137E0,-1.684185804E0,3.121977871E0
7.468574917E0,-1.204766599E0,-2.188135394E0,8.857333034E-1,2.650268391E0
7.478543917E0,-1.472690405E0,-1.666508209E0,6.708787091E0,7.067806653E0
7.488513917E0,-6.656829172E-1,-9.160487777E-1,1.240625146E1,1.245782302E1
7.498482917E0,-9.757174207E-1,9.069531414E-1,1.016455177E1,1.025147312E1
7.508452917E0,-1.329442393E0,1.280561570E0,5.329675087E0,5.640274066E0
7.518421917E0,-2.358778196E0,1.141197571E0,-5.008671718E0,5.652694831E0
7.528391917E0,-8.938033381E-1,-2.581041973E0,-1.044647176E1,1.079765874E1
7.538360917E0,-2.051960465E0,-3.324500533E0,-7.388234135E0,8.357562394E0
7.548330917E0,-1.457310620E0,2.570830688E-1,-7.492790537E0,7.637522895E0
7.558299917E0,-3.507474967E-1,1.602247309E0,-4.960266128E0,5.224410044E0
7.568269917E0,9.458512684E-2,1.791285744E0,7.682241493E-1,1.951363448E0
7.578238917E0,-9.635987008E-1,-1.264264211E0,3.103161201E0,3.486616682E0
7.588208917E0,-2.991837524E-2,-3.595932376E-1,-2.112376821E-1,4.181193180E-1
7.598177917E0,3.711200731E-1,-2.365073016E-1,-1.285120937E0,1.358381991E0
7.608147917E0,7.065892339E-2,-4.957330826E-1,-2.135292059E-1,5.443699977E-1
7.618116917E0,5.319614075E-1,-1.857648134E0,4.811223525E-1,1.991310685E0
7.628086917E0,6.704673283E-1,-3.348109543E0,-5.308073133E-1,3.455592620E0
7.638055917E0,5.138716937E-1,-3.152659636E0,-9.896003187E-2,3.195797237E0
7.648025917E0,1.312590279E-3,2.525362739E-1,4.761492956E-1,5.389753651E-1
7.657994917E0,-4.684394494E-2,3.243861289E0,1.205065538E0,3.460782190E0
7.667963917E0,3.913594061E-1,4.492242416E0,2.337657761E0,5.079177878E0
7.677933917E0,4.454718056E-1,-4.349718873E0,5.089817623E0,6.710047901E0
7.687902917E0,-2.025905821E-2,-9.306340724E0,6.456055813E0,1.132647539E1
7.697872917E0,9.945894554E-1,-4.343227879E0,3.579223373E0,5.715214480E0
7.707841917E0,5.812881533E-1,-4.835209680E0,1.022349404E0,4.976177938E0
7.717811917E0,-3.659054531E-1,-4.334964886E-1,8.661088783E-1,1.035350470E0
7.727780917E0,-9.812294813E-2,2.822658572E0,1.597016682E0,3.244609654E0
7.737750917E0,5.214537052E-1,2.192597989E0,1.452424979E0,2.681219541E0
7.747719917E0,9.713267876E-3,1.577088494E0,-4.787179774E-1,1.648172736E0
7.757689917E0,-8.017696255E-1,2.886376558E0,-3.253712386E0,4.422742187E0
7.767658917E0,-7.984974506E-1,2.443125744E0,-4.294638394E0,5.005035516E0
7.777628917E0,-9.518906017E-1,1.558337350E0,-3.501393424E0,3.948957701E0
7.787597917E0,-9.296398996E-1,-2.684389463E-1,-1.934840736E0,2.163307302E0
7.797567917E0,-4.162934685E-1,-2.269082201E-1,-1.274655005E0,1.359975358E0
7.807536917E0,7.300349241E-2,1.245533825E0,-5.663624775E-1,1.370200888E0
7.817506917E0,3.285945893E-1,1.226454945E0,-6.745640337E-2,1.271501672E0
7.827475917E0,1.080620563E0,3.653957221E-1,-4.860421997E-1,1.239956392E0
7.837445917E0,1.301048021E0,1.070633957E-1,-1.266318630E0,1.818722463E0
7.847414917E0,1.590195466E0,-1.066622767E-1,-1.071137987E0,1.920269525E0
7.857384917E0,1.244563772E0,-8.318374702E-1,-1.602780282E0,2.193124983E0
7.867353917E0,1.238137536E0,-9.039602441E-1,-3.412599362E0,3.741117892E0
7.877323917E0,5.518601402E-1,-1.153420005E0,-9.978858232E-3,1.278681704E0
7.887292917E0,-2.412910184E-1,-8.877751511E-1,5.742892554E0,5.816113906E0
7.897262917E0,-2.630735778E-1,3.375612214E-1,5.345767209E0,5.362870718E0
7.907231917E0,1.770032029E-1,2.625175295E0,1.453033090E-2,2.631175896E0
7.917201917E0,-5.894883616E-1,1.946395419E0,-2.857967568E0,3.507695864E0
7.927170917E0,-1.618045170E0,-3.968630978E-1,-2.499057285E0,3.003474289E0
7.937140917E0,-2.085802103E0,-2.810887542E0,-1.057305229E0,3.656440008E0
7.947109917E0,-9.695271928E-1,-2.996013021E0,8.877500081E-1,3.271723869E0
7.957079917E0,-2.281460025E-1,-1.260491880E0,1.282567458E0,1.812696792E0
7.967048917E0,1.774679469E-1,1.753872335E-2,8.743680704E-1,8.923687587E-1
7.977018917E0,-6.217410184E-1,-1.083316275E0,2.102613725E0,2.445632949E0
7.986987917E0,-7.324394819E-1,-1.883070073E0,4.482125271E0,4.916489341E0
7.996957917E0,-5.433310260E-1,-1.502496733E0,6.038325464E0,6.246125155E0
8.006926917E0,1.625558111E-1,-2.264796191E-1,5.882785435E0,5.889387225E0
8.016896917E0,-1.021251662E-1,5.677953377E-1,1.889245902E0,1.975366086E0
8.026865917E0,-1.174006736E0,1.982139156E0,-3.597470194E0,4.271880060E0
8.036835917E0,-1.869527922E0,1.414943742E0,-8.087533645E0,8.420534478E0
8.046804917E0,-1.447942065E0,-1.543517582E0,-7.382839494E0,7.680188913E0
8.056774917E0,-6.005170874E-1,-2.744956677E0,-1.856826600E0,3.367968669E0
8.066743917E0,5.345033018E-2,-5.723587972E-1,4.207943482E0,4.247027181E0
8.076713917E0,6.861786506E-1,2.505196277E0,3.493783858E0,4.353547424E0
8.086682917E0,1.062883619E0,1.079827826E0,-2.738983746E0,3.130140841E0
8.096652917E0,4.897271516E-3,-3.771908132E0,-4.124869165E0,5.589441884E0
8.106621917E0,-8.091273963E-1,-5.521658472E0,-2.382687753E-1,5.585711364E0
8.116591917E0,-4.267398117E-1,-1.942083974E0,4.252600422E0,4.694508215E0
8.126560917E0,-2.149223050E-1,3.156038449E0,3.968030469E0,5.074646401E0
8.136530917E0,-6.762432810E-1,4.526032598E0,-2.835962741E0,5.383768264E0
8.146499917E0,-2.925170677E-1,1.688056076E0,-6.849527233E0,7.060532761E0
8.156469917E0,-4.024007400E-1,-6.563815320E-1,-3.106883538E0,3.200857446E0
8.166438917E0,-3.332816534E-2,1.462106214E0,1.689156522E0,2.234304165E0
8.176408917E0,2.483654915E-1,3.815329848E0,4.655842540E0,6.024557828E0
8.186377917E0,7.578838875E-2,3.480305149E0,2.854347557E0,4.501729421E0
8.196347917E0,6.523308733E-1,1.252185617E0,-4.359638382E0,4.582570372E0
8.206316917E0,1.245008453E0,-2.390911278E0,-7.955770149E0,8.400046514E0
8.216286917E0,6.101004546E-1,-6.515421424E0,-2.682053500E0,7.072223828E0
8.226255917E0,3.939259318E-1,-5.942352190E0,4.529070227E0,7.481925174E0
8.236225917E0,3.923879679E-1,-2.199298605E-1,3.684006647E0,3.711366653E0
8.246195417E0,1.976378040E0,4.964210660E0,-3.306083558E0,6.283283069E0
8.256165417E0,-4.098206739E-1,-3.979822549E-1,1.018560408E0,1.167821975E0
8.266134417E0,-2.247883997E0,-5.437363257E0,4.040227795E0,7.137320386E0
8.276104417E0,-1.216680520E0,-2.578861546E0,2.132096556E0,3.560431727E0
8.286073417E0,-2.282847094E-1,2.907640834E0,1.103265513E0,3.118282207E0
8.296043417E0,-7.420347628E-1,4.507616208E0,3.015704981E0,5.473910485E0
8.306012417E0,-9.615565608E-1,-4.878141984E-1,2.578214552E0,2.794591918E0
8.315982417E0,-1.010803127E0,-3.234212506E0,2.886442924E-1,3.400760066E0
8.325951417E0,-1.357231724E0,-5.522013983E-1,-2.962015262E0,3.304623844E0
8.335921417E0,-5.646709146E-1,4.377801588E-1,-6.785342932E-1,9.853494285E-1
8.345890417E0,-6.389482047E-1,-8.023502541E-1,1.908287360E0,2.166467490E0
8.355860417E0,6.980841663E-1,-9.420569006E-1,-3.955957139E-1,1.237452494E0
8.365829417E0,1.412089058E-1,6.466611207E-2,-1.031009130E0,1.042641591E0
8.375799417E0,3.136514450E-1,-1.025677347E0,4.083704767E0,4.222207465E0
8.385768417E0,8.301493791E-1,-3.171547019E0,3.586201440E0,4.858878395E0
8.395738417E0,6.121810036E-2,-1.927392552E0,-9.424740994E-1,2.146356712E0
8.405707417E0,1.078815673E0,2.901130837E0,-3.657705871E0,4.791577572E0
8.415677417E0,2.776060648E0,5.465439248E0,-7.037838567E0,9.333204734E0
8.425646417E0,9.123097757E-1,-2.982343400E0,-3.442951089E0,4.645491737E0
8.435616417E0,-1.309982274E0,-8.726020943E0,5.393352435E0,1.034155431E1
8.445585417E0,3.860143932E-1,5.774154693E-2,-8.981896269E-1,9.793292623E-1
8.455555417E0,2.019879132E0,7.836501567E0,-5.142445487E0,9.588295683E0
8.465524417E0,-6.313644391E-2,1.634517507E0,1.891857269E0,2.500951343E0
8.475494417E0,-7.096637730E-1,-6.432106202E0,6.652959046E0,9.281027795E0
8.485463417E0,1.318435448E0,-2.116597926E0,2.179921517E0,3.312146831E0
8.495433417E0,9.127259512E-1,5.773550676E0,-9.656834525E-1,5.924483150E0
8.505402417E0,3.019102360E-1,5.185003277E0,-3.668917322E-1,5.206728178E0
8.515372417E0,6.622276513E-1,-2.627666501E0,-5.981701612E-1,2.775064728E0
8.525341417E0,4.758181239E-1,-3.567482164E0,2.024610114E-1,3.604763839E0
8.535311417E0,7.356540618E-1,3.725062872E0,2.643656589E0,4.626683527E0
8.545280417E0,-2.741202838E-1,5.421027306E0,3.776732377E0,6.612593019E0
8.555250417E0,-6.345132378E-1,3.062884702E0,-8.863525236E-1,3.251075291E0
8.565219417E0,-4.129870874E-1,-1.428307261E0,-3.583309992E0,3.879527093E0
8.575189417E0,-6.493216769E-1,4.088899434E-2,-2.397905132E0,2.484600486E0
8.585158417E0,-1.691201439E0,-1.990524355E0,6.128876030E-2,2.612681731E0
8.595128417E0,-3.896950693E-1,-3.450652164E0,-1.140564317E0,3.655099118E0
8.605097417E0,2.918404901E-1,-2.693798802E0,-7.303675210E-1,2.806271472E0
8.615067417E0,6.340575935E-1,-1.394559764E0,2.316902484E0,2.777564237E0
8.625036417E0,2.537298368E-1,-5.471359554E-1,3.013457311E0,3.073216808E0
8.635006417E0,-3.272853977E-1,-7.305543396E-1,-1.517546005E0,1.715742187E0
8.644975417E0,1.819028590E-1,-4.830920455E0,-2.819638485E-1,4.842559727E0
8.654945417E0,-1.768455199E-2,-1.733949409E0,2.975500696E0,3.443907329E0
8.664914417E0,-4.767163293E-1,1.644399594E0,4.531041908E0,4.843722665E0
8.674884417E0,-7.145064370E-1,1.159695530E0,3.890710983E0,4.122262136E0
8.684853417E0,-9.455613562E-1,-3.872295177E-1,-1.520952592E0,1.832301767E0
8.694823417E0,-3.052335649E-2,-6.908160773E-1,-5.381924636E0,5.426165434E0
8.704792417E0,3.449907484E-3,8.377665469E-1,-3.707668574E0,3.801140743E0
8.714762417E0,-1.008828960E0,6.016729358E-1,3.844491667E-1,1.235939867E0
8.724731417E0,-6.870807298E-1,-1.650984728E0,4.197213256E-1,1.836844167E0
8.734701417E0,1.668521624E-1,-2.507540718E0,-2.012231559E-1,2.521128885E0
8.744670417E0,1.884104080E-1,-5.501323611E-1,1.407432409E0,1.522829630E0
8.754640417E0,-1.744483534E-1,-9.086029333E-1,3.027363744E0,3.165584110E0
8.764609417E0,-5.515064933E-1,-2.118071132E0,1.614491086E0,2.719736421E0
8.774579417E0,-1.596777385E-1,-1.853583442E0,4.368320328E-1,1.911044421E0
8.784548417E0,-4.437340496E-1,9.062465054E-1,-5.898372942E-1,1.168798815E0
8.794518417E0,-1.472279291E-1,1.401032339E0,-6.713971817E-1,1.560558187E0
8.804487417E0,4.083904084E-1,-1.060331455E0,-4.988066715E-1,1.240924501E0
8.814457417E0,5.134483553E-1,-3.029359399E0,2.775088549E-2,3.072689001E0
8.824426417E0,6.843962000E-1,-2.748141655E-1,-2.478371590E-1,7.780387146E-1
8.834396417E0,8.822734328E-1,2.296117972E0,-3.196789742E-1,2.480475518E0
8.844365417E0,4.668208670E-1,3.896204149E0,-1.402671021E-1,3.926576544E0
8.854335417E0,2.944939565E-1,-8.647277659E-1,-3.114121807E-1,9.651208970E-1
8.864304417E0,9.304650513E-2,-2.487698192E0,-8.124752927E-1,2.618666845E0
8.874274417E0,-3.936794351E-1,-7.750642222E-1,2.571810097E-1,9.065594950E-1
8.884243417E0,-2.917342535E-1,3.979995042E-1,-4.510314113E-1,6.685370700E-1
8.894213417E0,-2.913925203E-1,1.631851469E0,-1.041432962E0,1.957659683E0
8.904182417E0,-6.766100110E-2,1.850074528E0,-8.023063999E-1,2.017684150E0
8.914152417E0,1.129989043E-2,1.391937580E0,-4.015633821E-1,1.448748102E0
8.924121417E0,-1.027319245E-3,4.218017650E-1,-7.372695744E-1,8.494022661E-1
8.934091417E0,3.814779771E-1,8.997373849E-2,-7.680405468E-1,8.622685209E-1
8.944060417E0,-8.538729217E-2,-1.031870133E0,-8.359062552E-2,1.038765784E0
8.954030417E0,7.467359973E-1,-7.851606095E-1,9.804798317E-1,1.461311922E0
8.963999417E0,4.817549116E-1,-1.679307472E0,1.742766718E0,2.467670402E0
8.973969417E0,5.835881921E-1,-1.510987183E0,1.622746770E0,2.292807127E0
8.983938417E0,8.882516992E-1,-1.215970303E0,4.780437934E-1,1.579905290E0
8.993908417E0,9.893901113E-1,-8.400531006E-1,-1.637740785E-1,1.308206388E0
9.003877417E0,1.344664011E0,-5.939820930E-1,-3.657573724E-1,1.514831503E0
9.013847417E0,1.299469419E0,-1.441638328E0,2.001056360E0,2.787681545E0
9.023816417E0,1.008217561E0,-8.394666249E-1,1.522868725E0,2.010058710E0
9.033786417E0,1.013930729E0,3.625478357E-1,-1.749481076E-1,1.090918557E0
9.043755417E0,6.242298858E-1,1.567115191E0,-1.730675261E0,2.416764331E0
9.053725417E0,4.373056207E-1,7.566770679E-1,7.303172350E-3,8.739849697E-1
9.063694417E0,3.031953809E-1,-1.687050354E-1,1.416341811E-1,3.747653522E-1
9.073664417E0,4.914867980E-1,-3.111332685E-2,-5.020290720E-1,7.032499562E-1
9.083633417E0,6.984026203E-1,4.249624774E-1,-7.158219874E-2,8.206603064E-1
9.093603417E0,7.944180675E-2,-5.843660545E-1,1.000866149E0,1.161691755E0
9.103572417E0,-3.258564844E-1,-1.454658616E0,1.246892425E0,1.943438925E0
9.113542417E0,-5.561681494E-2,-7.294916081E-1,8.398911327E-1,1.113852931E0
9.123511417E0,-6.392710441E-1,5.583959386E-1,6.101891130E-1,1.045372778E0
9.133481417E0,-1.824820988E-1,7.705218127E-1,4.595455420E-1,9.155248142E-1
9.143450417E0,-4.671048224E-1,-7.701943687E-1,1.985299283E-1,9.223884285E-1
9.153420417E0,-5.386689679E-1,-1.678296780E0,-8.478942168E-1,1.955957296E0
9.163389417E0,-2.032028769E-1,-1.245549320E0,-2.154359829E-1,1.280272307E0
9.173359417E0,-3.094843537E-1,-9.813145217E-1,1.074935753E0,1.488034149E0
9.183328417E0,-5.961367555E-1,-1.006710149E0,1.225927234E-1,1.176381456E0
9.193298417E0,-6.004557648E-1,-5.773175284E-1,-7.810079169E-1,1.141847634E0
9.203267417E0,1.720333437E-1,-3.341584343E-1,4.387896806E-1,5.777488333E-1
9.213237417E0,3.226103661E-1,-1.011173328E0,8.332791013E-1,1.349408392E0
9.223206417E0,-1.105087213E-3,-2.409933732E0,-3.389028651E-1,2.433646845E0
9.233176417E0,6.439908434E-1,-2.709546524E0,-7.684644699E-1,2.889100935E0
9.243145542E0,8.884477271E-1,-7.956177700E-1,-1.096297971E0,1.619943283E0
9.253114542E0,2.010586298E0,1.651879352E-1,5.343331844E-1,2.086925075E0
9.263083542E0,2.330868120E0,5.035739064E-1,7.950318789E-1,2.513684261E0
9.273053542E0,2.462922662E0,2.478090924E-1,-1.558844304E-1,2.480261547E0
9.283023542E0,2.634411557E0,1.406893003E0,-9.133029252E-1,3.123074512E0
9.292992542E0,2.688536308E0,2.117697495E0,5.559409851E-1,3.467267013E0
9.302961542E0,1.869691205E0,2.036466221E0,1.200413493E0,3.013956275E0
9.312931542E0,1.717079023E0,1.658340818E0,3.977971905E-1,2.420061413E0
9.322901542E0,6.648657688E-1,1.639716851E0,-1.415564716E0,2.265952627E0
9.332870542E0,4.133499436E-1,1.052459933E0,-5.103590155E-1,1.240562942E0
9.342840542E0,9.962174664E-1,1.557298885E0,-1.371280244E0,2.301746851E0
9.352809542E0,8.843173271E-1,6.692606091E-1,-4.990252989E0,5.112000762E0
9.362779542E0,1.389992796E-2,-2.223292362E0,-9.730059206E-1,2.426924527E0
9.372748542E0,-1.041770492E0,-4.338366212E0,5.234733846E0,6.878164405E0
9.382718542E0,-1.440747359E-1,-2.171963165E0,7.500063304E0,7.809553833E0
9.392687542E0,-1.329928150E0,9.447559753E-1,6.336939844E0,6.543552500E0
9.402657542E0,-1.986742668E0,1.641615150E0,1.246342787E0,2.862763887E0
9.412626542E0,-4.723912170E-1,2.510113201E-1,-3.526200237E0,3.566545703E0
9.422596542E0,2.728054460E-1,-1.674589938E0,-4.708935843E0,5.005272324E0
9.432565542E0,1.744127402E-1,-2.621216730E0,-5.923130053E-1,2.692959644E0
9.442535542E0,-4.189722973E-1,-1.681229451E0,2.633526288E0,3.152384965E0
9.452504542E0,-2.070962016E0,-3.984634808E-1,3.588653178E0,4.162461825E0
9.462474542E0,-1.930627232E0,1.216039300E0,5.093579721E-1,2.337844869E0
9.472443542E0,-1.104208011E0,6.506723106E-1,-4.910041469E-1,1.372492208E0
9.482413542E0,1.997043050E-1,2.546325007E-1,-3.669490349E-1,4.892556736E-1
9.492382542E0,7.395384403E-1,4.237284225E-1,-8.287866855E-1,1.188844082E0
9.502352542E0,2.591855265E-1,-7.885236356E-1,4.378816080E-1,9.384492334E-1
9.512321542E0,1.926061507E-1,1.228850842E-2,-2.221028028E0,2.229397595E0
9.522291542E0,8.110257679E-1,-7.439222440E-1,-3.169882609E0,3.355493832E0
9.532260542E0,-5.570529062E-2,-1.906781994E0,-7.665635401E-1,2.055855130E0
9.542230542E0,-3.780887847E-1,-1.704533529E0,7.823966306E-1,1.913251204E0
9.552199542E0,1.146039504E0,1.672265085E0,1.378253049E-1,2.031962813E0
9.562169542E0,8.359398036E-1,3.868237794E0,2.258202871E0,4.556483205E0
9.572138542E0,5.377415264E-1,1.766311994E0,3.609864537E0,4.054644989E0
9.582108542E0,6.977809882E-1,-2.423743686E0,2.023354132E0,3.233480123E0
9.592077542E0,3.589937519E-1,-3.428681251E0,-1.466847721E0,3.746514897E0
9.602047542E0,4.041743101E-1,-2.655045211E0,-3.135080566E0,4.128117259E0
9.612016542E0,-6.558162524E-1,1.241568536E-2,-1.515556782E0,1.651411961E0
9.621986542E0,9.067635454E-2,6.589414430E-1,4.552314663E-1,8.060159517E-1
9.631955542E0,8.046033324E-1,4.885377914E-1,1.665313915E0,1.912936521E0
9.641925542E0,1.578470630E0,6.841827035E-2,1.788045217E0,2.386075499E0
9.651894542E0,6.644794871E-1,-4.180089685E-1,1.249197983E0,1.475384725E0
9.661864542E0,3.027481054E-1,-9.336547440E-1,6.523317504E-1,1.178517844E0
9.671833542E0,-4.834045938E-1,1.159999877E-1,-4.567879951E-1,6.751231524E-1
9.681803542E0,-1.373338464E-1,-2.276584178E-2,2.266123509E-1,2.659549332E-1
9.691772542E0,-2.405138869E-2,3.713414633E-1,4.201826710E-1,5.612721520E-1
9.701742542E0,1.032299246E-1,-2.091341463E-1,-5.107034165E-1,5.614369849E-1
9.711711542E0,-1.237820836E-1,-6.642349273E-2,-4.765966076E-1,4.968686053E-1
9.721681542E0,3.931901693E-1,5.127967197E-1,8.014491981E-1,1.029504639E0
9.731650542E0,1.491554839E0,-1.115207282E-1,1.993905215E0,2.492555058E0
9.741620542E0,2.304285655E0,2.098127156E-1,6.721046948E-1,2.409456054E0
9.751589542E0,1.406125410E0,-5.173385444E-1,4.455496466E-1,1.563119422E0
9.761559542E0,5.274814536E-1,-7.239110255E-1,2.563705856E-1,9.316703998E-1
9.771528542E0,9.512813218E-1,-5.468117273E-1,-7.447697979E-1,1.326130186E0
9.781498542E0,6.473736039E-1,-1.832213330E-1,-8.283633471E-1,1.067168438E0
9.791467542E0,1.667212944E-2,-5.395927548E-1,-1.186602370E0,1.303634720E0
9.801437542E0,-3.446479006E-1,-1.936603671E-1,-5.190497321E-1,6.524562342E-1
9.811406542E0,-5.841231758E-1,-8.572301736E-1,1.636512870E-1,1.050154845E0
9.821376542E0,-7.468470944E-1,1.224196458E-1,4.100359976E-1,8.607535486E-1
9.831345542E0,-6.989837605E-1,7.657104313E-2,9.268000531E-1,1.163357108E0
9.841315542E0,-4.577681346E-1,-1.484292305E-1,-7.458164495E-1,8.875951092E-1
9.851284542E0,8.707761258E-2,-7.673584691E-1,-2.137252046E0,2.272502550E0
9.861254542E0,3.624492736E-1,-1.352602191E0,-1.591203965E0,2.119630208E0
9.871223542E0,8.119217806E-1,-2.511627922E0,1.035071776E0,2.835289293E0
9.881193542E0,2.451514598E-1,-2.275284635E0,1.530285918E0,2.752961024E0
9.891162542E0,-1.649617211E-1,-2.022865013E0,6.574778849E-1,2.133418008E0
9.901132542E0,9.587237310E-2,-1.020847254E0,5.312189573E-1,1.154778857E0
9.911101542E0,5.830931157E-1,-1.872008311E0,1.186881282E0,2.291964195E0
9.921071542E0,1.084321192E-1,-1.559286938E0,1.588309008E0,2.228420693E0
9.931040542E0,-7.370484766E-2,-1.015544707E0,1.812019386E0,2.078503720E0
9.941010542E0,-2.028671005E-1,-6.721108344E-1,1.069350493E0,1.279217929E0
9.950979542E0,4.210794877E-1,-1.409920984E0,3.734546471E-1,1.518108524E0
9.960949542E0,5.474889079E-1,-1.591755065E0,2.008050799E-2,1.683398799E0
9.970918542E0,2.556653017E-1,-1.135846491E0,-6.691729009E-2,1.166186058E0
9.980888542E0,5.856549636E-1,2.475278413E-1,-5.967311615E-1,8.719804170E-1
9.990857542E0,6.633570410E-1,7.622173047E-1,-7.115441644E-1,1.235845007E0
1.000082754E1,-3.304244024E-1,3.614096752E-1,6.050733840E-1,7.784028771E-1
1.001079654E1,-2.211903740E-1,6.228500891E-1,1.879085780E0,1.991941461E0
1.002076654E1,2.330561288E-2,6.184889433E-1,1.168109965E-1,6.298543748E-1
1.003073554E1,6.448407362E-1,2.385727136E0,-5.209482645E0,5.765953779E0
1.004070554E1,9.681191833E-1,1.446136299E0,-8.063736062E0,8.249388112E0
1.005067554E1,2.293117546E-1,6.575764105E-1,-8.821217707E0,8.848665009E0
1.006064454E1,6.043317378E-1,-8.478494856E-1,-2.285613449E0,2.511592012E0
1.007061454E1,8.118331953E-1,-1.899644883E0,6.340399057E0,6.668461893E0
1.008058354E1,6.963858426E-1,3.036190116E-1,7.303671702E0,7.343075519E0
1.009055354E1,-2.003280202E-1,1.497465204E0,3.357915031E0,3.682136161E0
1.010052254E1,3.152081200E-1,1.331149049E0,-3.180259663E0,3.461988659E0
1.011049254E1,5.191162442E-1,-2.505341873E-1,-2.113736299E0,2.190919942E0
1.012046154E1,5.732611687E-1,-7.315638614E-1,1.883095216E0,2.099967058E0
1.013043154E1,-6.460718310E-2,6.695646644E-3,2.328111597E0,2.329017502E0
1.014040054E1,-1.499497696E0,-1.460106759E0,2.665094821E0,3.388677543E0
1.015037054E1,-1.983154671E0,-1.178488481E0,1.171660395E0,2.587378138E0
1.016033954E1,-2.348724786E0,-3.930685472E-1,5.693591756E-1,2.448505845E0
1.017030954E1,-1.953542470E0,3.330711445E-1,2.123964248E0,2.904907692E0
1.018027854E1,-7.722571202E-1,7.274585313E-1,1.301125935E0,1.678840574E0
1.019024854E1,-6.356130990E-1,-4.429803801E-1,2.187080848E-1,8.050272388E-1
1.020021754E1,7.152832396E-1,1.025155483E0,-1.327208025E0,1.823199117E0
1.021018754E1,1.506972046E0,-8.158473819E-1,-9.526886004E-1,1.960659906E0
1.022015654E1,1.080461957E0,-1.703765790E0,-2.742836477E0,3.404903500E0
1.023012654E1,1.510603313E0,-2.733030988E0,-4.619527822E0,5.575967903E0
1.024009554E1,9.911515850E-1,-1.257647794E0,-2.074891491E0,2.620922383E0
1.025006617E1,-6.932493961E-1,1.137044001E0,2.100899321E0,2.487416681E0
1.026003517E1,2.982230183E-1,2.153245350E0,2.658116169E0,3.433800238E0
1.027000517E1,7.655766032E-1,7.343047437E-1,-5.900016010E-2,1.062446239E0
1.027997417E1,-6.068228344E-1,-1.351070220E0,5.821370959E-1,1.591385651E0
1.028994417E1,8.422459526E-1,-1.679404828E0,1.243792816E0,2.253175402E0
1.029991317E1,-4.294537968E-1,-7.353610432E-1,9.532242054E-1,1.278210786E0
1.030988317E1,-4.045908146E-1,1.113438499E-1,9.089221913E-1,1.001114744E0
1.031985217E1,1.380263321E0,3.094910780E-1,8.037009609E-1,1.626913273E0
1.032982217E1,1.530499835E-1,9.292517906E-1,-1.149290117E0,1.485867074E0
1.033979117E1,-3.608130399E-2,-8.100118607E-1,-2.585789035E0,2.709930997E0
1.034976117E1,6.195709705E-2,-9.047215515E-1,-1.960655608E0,2.160215309E0
1.035973017E1,1.353609227E0,-2.039173774E0,-1.567319843E0,2.906368716E0
1.036970017E1,4.415986099E-1,-2.458715590E0,1.024868385E0,2.700119792E0
1.037966917E1,1.739943354E-1,-5.097418419E-1,1.032663893E0,1.164691156E0
1.038963917E1,-1.930408181E-1,6.780255854E-2,9.911890072E-1,1.012085763E0
1.039960817E1,-1.150758499E0,-1.013365450E0,6.216394231E0,6.402711292E0
1.040957817E1,-2.074492894E-1,-9.537343749E-1,5.270243402E0,5.359861004E0
1.041954717E1,-9.853054657E-1,3.876061953E0,-2.818540962E0,4.892735051E0
1.042951717E1,5.532473190E-1,5.908752335E0,-5.591143860E0,8.153546861E0
1.043948617E1,2.791155235E0,6.342708707E-1,-1.728258607E0,3.343609561E0
1.044945617E1,2.160252215E0,-2.030080769E0,-9.771059883E-1,3.121322424E0
1.045942517E1,5.734741170E-1,2.446910062E0,-1.469830386E0,2.911467461E0
1.046939517E1,-7.599314819E-1,4.427190388E0,-1.988384859E0,4.912350245E0
1.047936417E1,-1.096786652E0,1.124343556E0,-8.685284561E-1,1.794834553E0
1.048933417E1,-6.881966709E-1,-4.266654205E0,1.279820436E0,4.507315510E0
1.049930317E1,8.388573450E-1,-2.621672813E0,1.535378843E0,3.151862651E0
1.050927317E1,1.652548859E0,-7.638013154E-2,1.614964126E0,2.311895495E0
1.051924217E1,1.788128540E0,5.427350485E-1,2.142542607E-1,1.880922619E0
1.052921217E1,1.914886820E0,-2.461633643E0,-6.039144659E-1,3.176656168E0
1.053918117E1,9.122673833E-1,-3.037983750E0,7.123604357E-2,3.172798704E0
1.054915117E1,-1.779816065E-1,-5.340472555E-1,4.827116257E-1,7.415486747E-1
1.055912017E1,5.531024542E-1,-3.078035715E-1,2.465596594E0,2.545551399E0
1.056909017E1,3.344245557E-1,4.197198638E-1,-1.086185212E0,1.211529142E0
1.057906017E1,1.093319253E0,-7.752840775E-1,2.962620449E-1,1.372655670E0
1.058902917E1,1.479349580E-1,-1.643335986E0,3.351777209E0,3.735886558E0
1.059899917E1,5.901411302E-1,-2.256615937E-2,1.303722684E0,1.431247226E0
1.060896817E1,7.099595690E-1,-1.122332991E0,-2.155390109E0,2.531675424E0
1.061893817E1,7.647165509E-1,-1.736301744E0,-2.514803252E0,3.150201668E0
1.062890717E1,5.488587644E-1,-1.855870288E0,9.202757299E-1,2.142990408E0
1.063887717E1,7.713124294E-2,-3.831665799E-1,1.387234372E0,1.441244275E0
1.064884617E1,1.189363790E0,-2.378445598E-1,1.663091973E0,2.058405007E0
1.065881617E1,2.951763997E-1,-1.929712728E-1,2.430472369E0,2.455924053E0
1.066878517E1,9.878892772E-2,-8.883230352E-1,2.571973819E0,2.722852620E0
1.067875517E1,-3.693815497E-1,1.655903991E0,1.993423989E0,2.617670712E0
1.068872417E1,-1.352053685E-1,2.253561059E0,1.701828023E0,2.827195882E0
1.069869417E1,-6.544993132E-1,1.484372704E0,5.759758848E-1,1.721476080E0
1.070866317E1,-6.649883410E-1,-1.400504628E-1,-1.596953532E0,1.735535713E0
1.071863317E1,-9.241883212E-1,-3.272005400E-1,-3.127722430E0,3.277778493E0
1.072860217E1,-1.018193203E0,3.740481395E-1,-2.629994570E0,2.844907880E0
1.073857217E1,-1.393127342E0,-8.676253536E-1,-3.229131861E0,3.622274164E0
1.074854117E1,-2.123784154E0,-2.187251587E0,-3.579681795E0,4.701983665E0
1.075851117E1,-1.920996283E0,-1.025454860E0,-2.421534315E0,3.256625989E0
1.076848017E1,-1.259369360E0,-8.145835063E-1,-1.936130047E-1,1.512297415E0
1.077845017E1,-1.579859563E-1,-6.223074675E-2,2.658632478E0,2.664049339E0
1.078841917E1,2.532961744E-1,-1.768825712E0,2.215012997E0,2.845906873E0
1.079838917E1,4.345338578E-1,-1.642403939E0,2.591252089E-2,1.699112072E0
1.080835817E1,6.223556339E-1,1.019897667E0,-1.608279589E0,2.003517163E0
1.081832817E1,-1.004519343E0,2.636944278E0,-1.449804257E0,3.172454353E0
1.082829717E1,-1.385528593E0,1.767257196E0,-1.261112854E0,2.575518027E0
1.083826717E1,-1.585868088E0,1.217512506E0,-5.254734832E-1,2.067229227E0
1.084823617E1,-1.454679812E0,1.606240957E0,-2.170381200E-1,2.177890932E0
1.085820617E1,-3.948241737E-1,3.119603279E0,-2.593216753E-1,3.155163780E0
1.086817517E1,-7.285551766E-1,5.729692465E-1,9.960024351E-1,1.360554024E0
1.087814517E1,1.153607409E-1,-1.897904167E0,2.130529502E0,2.855609267E0
1.088811417E1,1.700119174E0,-1.757400545E0,3.754315907E-1,2.473825127E0
1.089808417E1,9.487396102E-1,-5.344062746E-3,7.923070765E-1,1.236076822E0
1.090805317E1,3.391418334E-1,-1.569031616E0,1.835916957E0,2.438743214E0
1.091802317E1,-1.188560968E-1,-2.419537491E0,3.665385604E-1,2.450028359E0
1.092799217E1,-5.613818558E-1,-1.799064588E0,5.898162442E-1,1.974757246E0
1.093796217E1,-1.541416093E0,-9.535721147E-1,1.216606187E0,2.182978233E0
1.094793117E1,-2.653470264E0,6.251424900E-1,2.043788981E0,3.407166121E0
1.095790117E1,-2.745205184E0,3.419159353E-3,3.047501555E0,4.101637346E0
1.096787017E1,-1.892586417E0,-2.866448370E-1,1.861845265E0,2.670302679E0
1.097784017E1,-2.510604951E0,1.000502160E0,3.109900117E-1,2.720451540E0
1.098780917E1,-2.703432967E0,1.018293483E0,-5.801677537E-1,2.946534583E0
1.099777917E1,-2.665029917E0,3.329904529E-1,-1.124147090E0,2.911524305E0
1.100774817E1,-1.966492006E0,-9.563436949E-1,-1.806987857E0,2.836703931E0
1.101771817E1,-8.102806865E-1,-1.911565894E-1,-2.299258511E0,2.445339513E0
1.102768817E1,-1.406495393E0,-7.758161741E-1,-6.821350086E-1,1.745115525E0
1.103765717E1,-7.709177423E-1,-1.787917748E-1,4.942663085E-1,9.330486847E-1
1.104762717E1,-2.403556466E-1,-5.456332210E-1,1.866478014E0,1.959394454E0
1.105759617E1,3.170037999E-1,4.149307019E-1,2.247466214E0,2.307328169E0
1.106756617E1,-2.145572195E-1,1.473427885E0,8.192966545E-1,1.699491554E0
1.107753517E1,-1.003396312E0,1.041460444E0,-3.317441189E0,3.618958422E0
1.108750517E1,-3.377499038E-1,-2.656193604E0,-4.324261558E-1,2.712274293E0
1.109747417E1,-8.414106048E-1,-4.422391578E0,4.980111578E0,6.713198225E0
1.110744417E1,-9.424013016E-1,-6.227226198E-1,5.602786835E0,5.715516074E0
1.111741317E1,-1.329699524E0,2.708684644E0,3.162999852E0,4.371457582E0
1.112738317E1,-2.116782552E0,1.318607064E0,1.744271207E0,3.043349307E0
1.113735217E1,-1.892381179E0,-8.567542103E-1,-5.856986350E-1,2.158281074E0
1.114732217E1,-1.366840161E0,-9.769057211E-1,-3.783265471E0,4.139528287E0
1.115729117E1,-1.202256243E0,4.143673226E-1,-4.877556093E0,5.040602523E0
1.116726117E1,-1.075182213E0,-1.423323387E-1,-4.558935465E0,4.686167716E0
1.117723017E1,-6.252835540E-1,-1.829127462E0,-4.179837670E0,4.605185094E0
1.118720017E1,-2.852100033E-2,-8.107345766E-1,-3.024917854E0,3.131809704E0
1.119716917E1,3.087894486E-1,-1.564483359E0,-1.442566574E-2,1.594731076E0
1.120713917E1,3.895323339E-1,-8.162245274E-1,2.793464593E0,2.936222463E0
1.121710817E1,7.985285870E-1,-2.413175136E-1,3.460591553E0,3.559715711E0
1.122707817E1,7.347357566E-1,7.506439108E-1,3.610410667E0,3.760102139E0
1.123704717E1,6.906206341E-1,4.803148520E-1,3.516310256E0,3.615535511E0
1.124701704E1,4.357751120E-1,8.135815859E-3,1.287666230E0,1.359430196E0
1.125698604E1,-2.381859276E-1,-6.895969328E-1,-8.696885437E-1,1.135180439E0
1.126695604E1,-4.775398731E-1,5.434644887E-1,-2.236704413E0,2.350796591E0
1.127692504E1,-1.203482112E0,2.373919269E0,-4.633251822E-1,2.701579559E0
1.128689504E1,-4.234263407E-1,1.223104490E0,1.612412986E0,2.067643610E0
1.129686404E1,-5.087230376E-1,-7.767833036E-1,8.990368885E-1,1.292462284E0
1.130683404E1,-1.349343409E-1,-2.160883276E0,-7.982782531E-1,2.307568412E0
1.131680304E1,-4.595512430E-1,-1.564977449E0,-9.835841185E-1,1.904673063E0
1.132677304E1,-7.640494566E-1,-6.563341695E-1,-6.811824971E-1,1.215958761E0
1.133674204E1,-4.289535675E-1,-2.428220022E-1,-4.784302944E-1,6.869201077E-1
1.134671204E1,-1.625250584E-1,-4.280781662E-1,-1.577496922E-1,4.843039091E-1
1.135668104E1,3.155038064E-1,-1.900073192E-1,-5.504399246E-1,6.622911322E-1
1.136665104E1,2.314723921E-1,1.125623219E0,-1.331962981E0,1.759185176E0
1.137662004E1,4.294785744E-1,1.423573355E0,-1.077595067E0,1.836361640E0
1.138659004E1,2.065826224E-1,6.925775510E-1,-3.764612854E-2,7.237107675E-1
1.139655904E1,2.987498707E-1,1.379682693E-1,5.347155923E-1,6.278594534E-1
1.140652904E1,3.779093483E-1,2.419826344E-1,2.469326532E0,2.509769829E0
1.141649804E1,3.491178777E-1,9.467975307E-1,2.766669728E0,2.944956746E0
1.142646804E1,3.515577015E-1,1.221795299E0,9.228601992E-2,1.274713018E0
1.143643704E1,1.036221412E0,-7.285955223E-1,-1.138938206E0,1.703463087E0
1.144640704E1,6.240789545E-1,-2.338184303E0,-8.331042695E-1,2.559422415E0
1.145637704E1,4.794819161E-1,-2.067781277E0,-1.944527233E0,2.878681726E0
1.146634604E1,7.682745816E-1,-1.377780009E0,-5.808840376E-1,1.681056171E0
1.147631604E1,5.965849445E-1,-2.164894466E0,2.739943859E0,3.542594246E0
1.148628504E1,2.612351218E-1,-2.686692389E0,3.091321174E0,4.104001265E0
1.149625504E1,5.139016607E-1,-2.050126486E0,2.683360353E0,3.415777556E0
1.150622404E1,4.862977961E-1,-8.128328499E-1,4.192480520E0,4.298147938E0
1.151619404E1,1.401566921E0,6.551571250E-1,3.856294271E0,4.155072346E0
1.152616304E1,9.409838634E-1,-6.124005300E-1,4.549954727E0,4.686424336E0
1.153613304E1,1.128997647E0,-4.899709439E-1,3.179378487E0,3.409274817E0
1.154610204E1,1.516603726E0,1.177850550E0,-3.937544256E-1,1.960219714E0
1.155607204E1,1.468777010E0,1.451312546E0,-1.802352769E0,2.740819133E0
1.156604104E1,2.241403821E0,1.329341967E0,-2.161554244E0,3.385758098E0
1.157601104E1,1.360529553E0,1.043575382E0,-2.797441285E0,3.281122976E0
1.158598004E1,1.751583333E-1,3.434375562E0,-3.771886790E0,5.104189054E0
1.159595004E1,7.909019905E-1,2.162409984E0,-1.618166646E0,2.814250556E0
1.160591904E1,-1.135024592E-1,3.299928778E-1,-5.795678294E-1,6.765182751E-1
1.161588904E1,1.182963172E-1,-7.986334714E-1,-5.760559916E-1,9.917912814E-1
1.162585804E1,2.652614962E-1,5.897621575E-1,-5.057397151E-1,8.209480637E-1
1.163582804E1,-5.101036383E-1,2.374393478E0,5.038218284E-1,2.480279530E0
1.164579704E1,-3.346183543E-1,2.276906360E0,1.184653493E0,2.588373217E0
1.165576704E1,2.613342504E-1,2.617263427E-1,-7.987331665E-1,8.802107362E-1
1.166573604E1,9.056880963E-1,-5.465781310E-1,-9.804517651E-1,1.442325984E0
1.167570604E1,-4.233311042E-3,-8.909379101E-1,-1.528426504E0,1.769145516E0
1.168567504E1,-3.698479017E-1,-3.599224359E-2,-8.224325162E-1,9.024844352E-1
1.169564504E1,3.491688947E-1,-2.566053220E0,2.290613987E0,3.457377689E0
1.170561404E1,6.722163767E-1,-3.366361042E0,1.770816981E0,3.862648612E0
1.171558404E1,1.072350663E-1,-1.920843379E0,1.554537245E0,2.473403463E0
1.172555304E1,-1.311827071E0,-7.976327205E-1,9.424010092E-1,1.801451604E0
1.173552304E1,-1.292635193E0,-3.200285499E0,1.587921338E0,3.799240345E0
1.174549204E1,-5.583122503E-1,-2.375353591E0,7.118148905E-1,2.541790253E0
1.175546204E1,-6.611258166E-1,-1.645680719E0,2.907204047E0,3.405464395E0
1.176543104E1,-2.041884616E-1,2.193688202E-1,2.452880069E0,2.471120442E0
1.177540104E1,7.268741751E-1,5.057052165E-2,1.822823871E0,1.963056370E0
1.178537004E1,4.490275705E-1,-3.556922677E-1,-1.117792920E0,1.256026975E0
1.179534004E1,7.835336217E-1,-9.831382683E-1,-3.539038968E-1,1.306037426E0
1.180531004E1,-9.163171649E-3,-4.894198439E-1,-1.238218666E0,1.331465813E0
1.181527904E1,-3.252879158E-1,-8.554356632E-1,-4.340419754E0,4.435856855E0
1.182524904E1,1.601849844E-1,-2.796077714E0,-9.637708282E-1,2.961851452E0
1.183521804E1,-8.172469678E-2,-2.101371192E0,2.144676840E0,3.003677506E0
1.184518804E1,2.500959567E-1,-8.531672359E-2,3.386447105E0,3.396741221E0
1.185515704E1,8.507700967E-1,7.829971397E-1,9.892717052E-1,1.521694051E0
1.186512704E1,-5.244834034E-1,3.721542263E-1,-2.037230744E0,2.136326453E0
1.187509604E1,-7.450959995E-1,-4.173008707E-1,-1.927790748E0,2.108479365E0
1.188506604E1,-3.349057084E-1,-1.298910718E0,-8.023806596E-1,1.563056496E0
1.189503504E1,-2.788672362E-1,-9.688076198E-2,-1.097739894E0,1.136743460E0
1.190500504E1,2.180624974E-1,4.401865804E-1,-3.010603870E0,3.050418191E0
1.191497404E1,-2.137436891E-1,-3.520424357E-1,-2.219874372E0,2.257756070E0
1.192494404E1,-1.273384990E0,-8.961691216E-1,-2.187279654E-1,1.572409091E0
1.193491304E1,-1.296465266E0,5.369971758E-1,1.131904006E-1,1.407835296E0
1.194488304E1,-1.155010229E0,2.038214831E0,1.527448849E0,2.796688812E0
1.195485204E1,-1.087422848E0,1.418628950E0,1.848748087E0,2.571549345E0
1.196482204E1,-1.220888469E0,1.801761031E-2,2.096957129E0,2.426545381E0
1.197479104E1,-1.367163073E0,3.925528228E-1,9.311649996E-1,1.700088481E0
1.198476104E1,-1.412694611E0,2.382685415E0,-4.518166924E-1,2.806605453E0
1.199473004E1,-1.629356609E0,1.870241282E0,-1.095565900E0,2.711617608E0
1.200470004E1,-8.082773573E-1,8.791677573E-1,-2.843318539E0,3.083943667E0
1.201466904E1,4.226069631E-1,2.239546745E0,-1.299211557E0,2.623378916E0
1.202463904E1,1.070615246E0,9.981699979E-1,3.165226471E-1,1.497580360E0
1.203460804E1,1.263220044E0,-1.639961557E0,4.698272860E-1,2.122719121E0
1.204457804E1,1.120316140E0,-1.104971731E0,7.400984573E-1,1.738912449E0
1.205454704E1,-4.155053735E-1,-3.182416993E0,5.235439020E-1,3.251848836E0
1.206451704E1,-8.754394265E-1,-2.276700538E0,1.997059203E0,3.152460149E0
1.207448604E1,-7.628085313E-1,-5.323527324E-1,1.621360395E0,1.869247393E0
1.208445604E1,-6.137942138E-1,-1.368466564E0,1.641085392E-1,1.508766279E0
1.209442504E1,-1.259215286E0,-3.014895726E0,-1.108901060E-1,3.269176654E0
1.210439504E1,-8.296691034E-1,-2.283395015E0,3.294558696E0,4.093453385E0
1.211436404E1,-1.819885061E0,-7.188023132E-1,3.186604477E0,3.739399215E0
1.212433404E1,-8.763168012E-1,1.567386209E0,5.079903084E-1,1.866195279E0
1.213430304E1,-4.232412764E-1,5.897525096E-1,-2.587784690E-1,7.706539409E-1
1.214427304E1,-5.908920588E-1,-3.227594335E0,3.453833342E-1,3.299364828E0
1.215424204E1,-7.770155843E-1,-2.201250406E0,-1.869710940E0,2.990831919E0
1.216421204E1,-2.291259228E-1,2.627165687E-1,-9.535329384E-1,1.015255509E0
1.217418204E1,-1.317146173E-1,3.432309741E-1,3.840211505E-1,5.316281464E-1
1.218415104E1,4.766663356E-1,-7.569659203E-1,5.792251825E-2,8.964168774E-1
1.219412104E1,3.412010766E-1,-1.604646129E0,-4.406543577E-1,1.698671139E0
1.220409004E1,1.883040252E-1,6.200539505E-1,-5.117389584E-1,8.257130670E-1
1.221406004E1,8.707675742E-1,1.030847455E0,-1.886767852E-1,1.362527641E0
1.222402904E1,2.942985864E-1,-1.571753787E0,8.443379402E-2,1.601296565E0
1.223399904E1,3.929237556E-3,-2.145365935E0,-1.383716687E0,2.552896845E0
1.224396767E1,1.427574678E-1,-8.351063561E-1,-1.130042253E0,1.412366034E0
1.225393767E1,-4.270700332E-1,7.371356732E-1,1.016765898E0,1.326488110E0
1.226390667E1,-1.438283050E0,-4.176423481E-1,8.895994824E-1,1.741973163E0
1.227387667E1,-1.143797681E0,-1.502297636E0,-4.134075022E-1,1.932893449E0
1.228384567E1,-4.900029574E-1,-6.635481718E-1,-5.351944792E-1,9.832762609E-1
1.229381567E1,2.550162060E-1,1.429952083E0,3.173055893E-1,1.486767992E0
1.230378467E1,-5.269788489E-1,-3.038534850E-2,2.342339627E0,2.401079945E0
1.231375467E1,-8.047167684E-1,-1.912824507E0,1.103857251E0,2.350524942E0
1.232372367E1,4.519877600E-2,-1.989929986E0,3.567918366E-1,2.022168314E0
1.233369367E1,3.940232514E-1,1.257184987E0,8.031676948E-2,1.319931512E0
1.234366267E1,1.235328533E0,3.053741119E0,1.356669222E0,3.562572495E0
1.235363267E1,1.456996186E0,1.694688572E0,-4.530603951E-1,2.280366410E0
1.236360167E1,1.547750674E0,2.423898929E-1,-1.593299607E0,2.234477265E0
1.237357167E1,9.190769776E-1,-1.155795729E-1,-1.821167940E0,2.043211637E0
1.238354067E1,4.703071231E-1,1.577008095E0,3.333754921E-1,1.679071928E0
1.239351067E1,3.862044277E-1,7.534315708E-1,2.000578058E-1,8.699632852E-1
1.240347967E1,4.555646845E-1,-3.541369084E-1,-4.454894203E-1,7.289807646E-1
1.241344967E1,1.205514056E-1,6.738120818E-1,-4.918350363E-1,8.428861524E-1
1.242341867E1,1.651968888E-1,4.869125578E-1,9.294295460E-1,1.062173777E0
1.243338867E1,8.889048697E-2,1.129654290E0,9.355995280E-1,1.469478414E0
1.244335767E1,7.692092590E-1,-9.904505038E-1,3.833001888E-1,1.311332955E0
1.245332767E1,4.874017505E-1,-1.600717385E0,-3.499967873E-2,1.673643209E0
1.246329667E1,8.174797784E-1,-3.992797521E-1,2.110815614E-1,9.339448239E-1
1.247326667E1,6.651941630E-1,-1.051235234E0,7.125329286E-1,1.433625462E0
1.248323567E1,2.146990328E-1,-9.306861126E-1,-2.058366090E-1,9.770573292E-1
1.249320567E1,4.650256256E-1,-7.561417553E-1,5.443173051E-3,8.877098708E-1
1.250317567E1,3.401307803E-1,7.885876626E-2,1.063493337E0,1.119341651E0
1.251314467E1,-5.241368463E-1,-1.487654454E-1,4.325898778E-1,6.956900127E-1
1.252311467E1,-4.480610623E-1,-8.276178271E-2,-1.408541626E-1,4.769152161E-1
1.253308367E1,4.334657177E-1,-4.773339415E-1,-1.253958786E0,1.410018743E0
1.254305367E1,5.184185617E-1,-1.420436617E0,4.147009063E-1,1.567920543E0
1.255302267E1,1.434564951E0,-1.522348031E0,1.423269008E0,2.530062212E0
1.256299267E1,1.197605148E0,-3.119387224E-1,7.663103557E-1,1.455608264E0
1.257296167E1,5.025121251E-1,-7.778922281E-1,-7.640796429E-1,1.200605037E0
1.258293167E1,7.782695197E-1,-8.672759825E-1,4.161673880E-1,1.237362667E0
1.259290067E1,3.101929631E-1,-1.377674174E0,1.168367828E0,1.832836377E0
1.260287067E1,-1.228380872E-1,-8.882601777E-1,6.638168514E-2,8.991673187E-1
1.261283967E1,4.907408760E-1,-1.129496123E0,2.178345108E-1,1.250615837E0
1.262280967E1,9.752530787E-1,-1.657319309E0,4.478897023E-1,1.974444491E0
1.263277867E1,5.042166616E-1,-1.333252877E0,2.221240282E-2,1.425584465E0
1.264274867E1,9.594631114E-1,-1.097306323E0,1.430151765E0,2.042054040E0
1.265271767E1,4.990723178E-1,-5.386124691E-1,6.580415565E-1,9.859996249E-1
1.266268767E1,6.178877033E-1,-4.131227428E-1,2.599829954E-1,7.874304874E-1
1.267265667E1,9.063043928E-1,-4.672097799E-1,4.833466333E-1,1.128404448E0
1.268262667E1,1.086461858E0,5.762387171E-1,8.206859529E-1,1.478504603E0
1.269259567E1,2.046136054E0,1.431273846E0,-1.144703561E0,2.746918968E0
1.270256567E1,2.697338122E0,7.428340772E-1,-9.903166026E-1,2.967854846E0
1.271253467E1,1.518794678E0,-3.563532954E-1,2.199833626E-1,1.575473777E0
1.272250467E1,1.278896429E0,5.821920598E-1,-1.897276468E0,2.360970493E0
1.273247367E1,1.346729540E0,2.675084204E0,-5.144402550E0,5.952699686E0
1.274244367E1,6.943925267E-1,2.106898272E0,-6.497334816E0,6.865607113E0
1.275241267E1,-6.142314394E-1,-1.391339410E0,3.859530705E-1,1.569096997E0
1.276238267E1,-3.487875100E-2,-3.903742087E0,1.289989328E1,1.347767285E1
1.277235167E1,1.173903533E0,1.202841842E0,1.054606856E1,1.067915914E1
1.278232167E1,3.226245675E0,7.757466508E0,-2.712616312E0,8.828659866E0
1.279229067E1,6.683698589E-1,2.581015368E0,-4.155878704E0,4.937579002E0
1.280226067E1,-2.410430453E0,-3.482272444E0,-2.249723824E0,4.795586891E0
1.281222967E1,-1.603275834E-1,-2.340278775E0,-1.503812649E0,2.786406676E0
1.282219967E1,1.705664381E0,8.484157884E-1,-1.418628073E-1,1.910294581E0
1.283216967E1,1.607833300E0,8.526012254E-1,-1.074301915E0,2.113334184E0
1.284213867E1,1.245856006E0,-2.274347034E0,-2.162175218E0,3.376360954E0
1.285210867E1,3.178779586E-1,-5.248548478E0,7.281724763E-1,5.308346511E0
1.286207767E1,5.348866233E-1,-1.941069482E0,2.381576198E0,3.118615016E0
1.287204767E1,5.207235707E-1,5.475803438E-1,5.192721017E0,5.247413537E0
1.288201667E1,1.840910333E-1,-1.571754956E-1,2.204741194E0,2.217989490E0
1.289198667E1,-5.401282136E-1,-1.658753924E0,2.853648230E0,3.344624237E0
1.290195567E1,-1.040871410E0,-1.497761366E0,1.189421312E0,2.177481449E0
1.291192567E1,9.138889624E-1,6.095675540E-1,-7.525740767E-1,1.331590545E0
1.292189467E1,-3.078377777E-1,-1.114193667E0,-2.918500283E0,3.139081956E0
1.293186467E1,-1.733839043E-1,-9.368672043E-2,-3.105459157E0,3.111706245E0
1.294183367E1,-2.032635418E-1,2.059614178E0,-8.331744361E-1,2.231032557E0
1.295180367E1,-8.747909702E-2,2.839709930E0,7.566875929E-1,2.940098840E0
1.296177267E1,1.213555914E0,-1.600845146E0,1.609617432E0,2.574158390E0
1.297174267E1,-5.826567672E-3,-5.412273440E0,2.888645570E0,6.134901056E0
1.298171167E1,-9.730664393E-1,-3.811180664E0,1.861451747E0,4.351661631E0
1.299168167E1,-1.636291406E-1,1.001560798E-1,4.524294806E-1,4.914246340E-1
1.300165067E1,-2.263225849E-1,2.304595850E0,1.027899581E0,2.533566950E0
1.301162067E1,3.433543869E-1,5.814325064E-2,-9.508566678E-2,3.609905215E-1
1.302158967E1,-6.545213865E-1,-2.996122071E0,-1.798163824E0,3.555072271E0
1.303155967E1,-7.747836290E-1,-6.266861549E-1,-3.920700767E0,4.045357798E0
1.304152867E1,-1.012724595E-1,1.390636282E0,-1.004209587E0,1.718302149E0
1.305149867E1,-7.994191910E-1,-8.817083725E-1,9.710418409E-1,1.536034815E0
1.306146767E1,-1.124505524E0,-2.004364130E0,3.991724557E-1,2.332665190E0
1.307143767E1,-9.514185852E-1,-2.017075977E-1,5.856670600E-1,1.135292555E0
1.308140667E1,-9.233008600E-1,8.093359226E-1,8.740137291E-1,1.507119475E0
1.309137667E1,-2.061409200E-1,2.160926253E-2,4.844084877E-1,5.268895729E-1
1.310134567E1,-8.606732335E-2,-2.076376391E0,-3.779669434E-1,2.112251290E0
1.311131567E1,1.282249661E0,-2.215441598E0,-1.635759748E0,3.037771490E0
1.312128567E1,1.473526265E0,1.670464727E0,-7.210055441E-1,2.341277654E0
1.313125467E1,6.821267494E-1,1.961711615E0,-3.139633209E-1,2.100519538E0
1.314122467E1,1.536205201E0,3.930846271E-1,-4.094278872E-1,1.637703617E0
1.315119367E1,1.064315748E0,-5.615198135E-2,-6.406963760E-1,1.243548512E0
1.316116367E1,1.191716637E0,1.135122021E0,-4.088525212E-1,1.695833403E0
1.317113267E1,6.817133512E-1,1.739292303E0,1.205657861E0,2.223394181E0
1.318110267E1,-3.579117246E-3,-2.743387869E-1,2.044843819E0,2.063167668E0
1.319107167E1,9.412566360E-2,-7.554693255E-1,4.972296774E-1,9.093024219E-1
1.320104167E1,4.150757128E-1,7.658504722E-1,-2.063815110E0,2.240122229E0
1.321101067E1,5.634469096E-1,5.153966841E-1,-1.649581397E0,1.817752719E0
1.322098067E1,-4.390659615E-1,-1.106046157E0,-5.614285970E-1,1.315795990E0
1.323094967E1,-6.057250928E-1,-2.644659095E0,7.944249380E-1,2.827054226E0
1.324091967E1,-7.517616060E-1,-1.364185817E0,1.555765160E0,2.201488971E0
1.325088929E1,-9.170465320E-1,7.413921538E-1,1.486379761E0,1.897356440E0
1.326085929E1,-8.568221842E-1,3.009021029E-1,7.379297251E-1,1.170139569E0
1.327082829E1,-1.983401131E-1,-3.513387233E-1,-2.034345728E0,2.073967271E0
1.328079829E1,8.205582278E-2,-8.286843592E-1,-1.373367115E0,1.606109635E0
1.329076729E1,-4.191631358E-4,-7.170595506E-1,-1.620320760E0,1.771895578E0
1.330073729E1,3.202751709E-1,-7.862850291E-1,-5.824271178E-1,1.029583255E0
1.331070629E1,-2.017484551E-1,-7.671903616E-1,1.082889136E0,1.342360746E0
1.332067629E1,-2.898108119E-1,-4.935152337E-1,1.828658808E0,1.916126465E0
1.333064529E1,-4.390864633E-1,-2.773325613E-1,2.229348031E0,2.289039737E0
1.334061529E1,-4.584254348E-1,6.525679779E-1,9.842735052E-1,1.266804317E0
1.335058529E1,3.402759740E-1,7.616548026E-1,4.750728232E-1,9.599999813E-1
1.336055429E1,-2.246279156E-2,4.785691658E-1,-1.135476655E-1,4.923678460E-1
1.337052429E1,4.587385897E-1,-2.243600035E-1,-1.081096380E0,1.195637021E0
1.338049329E1,1.078727527E0,-1.529084315E0,-9.303516519E-1,2.089810067E0
1.339046329E1,3.545908487E-2,-1.881431099E0,-1.902274668E-2,1.881861363E0
1.340043229E1,1.221858622E-2,-2.061369512E0,-2.537691593E-2,2.061561920E0
1.341040229E1,1.749392271E-1,-1.293961050E0,1.859088888E0,2.271816547E0
1.342037129E1,-3.035236107E-1,6.675099528E-1,2.145328220E0,2.267185324E0
1.343034129E1,-4.045862465E-1,4.855723760E-1,1.034625633E0,1.212402889E0
1.344031029E1,-4.434701026E-2,-5.419275481E-1,1.446887666E-1,5.626606116E-1
1.345028029E1,6.855926134E-1,-5.282310301E-1,-2.002828651E0,2.181831308E0
1.346024929E1,6.887905287E-1,-1.733856439E0,-1.258459972E0,2.250424859E0
1.347021929E1,4.935982276E-1,-1.379544114E0,3.867237335E-1,1.515366760E0
1.348018829E1,5.874849594E-1,6.896858105E-1,-1.047987106E0,1.385309377E0
1.349015829E1,-8.372840054E-1,1.464141630E0,-2.114228050E0,2.704573065E0
1.350012729E1,-6.585517991E-1,5.124587506E-2,8.038214135E-1,1.040406400E0
1.351009729E1,3.422942684E-2,-5.060121953E-2,3.587519403E0,3.588039520E0
1.352006629E1,3.349648384E-1,1.110733869E0,1.402212015E0,1.819925742E0
1.353003629E1,8.037384561E-1,3.096330191E0,-5.171971588E0,6.081327673E0
1.354000529E1,1.656083500E-1,1.209294829E0,-3.761650069E0,3.954722664E0
1.354997529E1,-1.934068355E-1,-3.986103628E0,1.210714533E0,4.170402621E0
1.355994529E1,-2.737185800E-1,-1.215731736E0,5.159923400E0,5.308270435E0
1.356991429E1,3.406071822E-1,4.068734141E0,3.597357343E0,5.441653298E0
1.357988429E1,1.321969213E0,5.044993452E0,5.160401702E-2,5.215575185E0
1.358985329E1,1.806912245E-1,8.398554647E-1,-2.090159156E0,2.259816766E0
1.359982329E1,-1.190028034E0,-2.066419168E0,-9.936758280E-1,2.583340192E0
1.360979229E1,-3.861635337E-1,5.035549030E-1,5.643165368E-1,8.492013712E-1
1.361976229E1,5.970238146E-1,1.109820242E0,6.959841388E-1,1.439629232E0
1.362973129E1,-6.850449851E-2,-1.772226160E0,-6.520668715E-1,1.889621558E0
1.363970129E1,3.089366523E-1,-2.033869765E0,-1.385563238E0,2.480293039E0
1.364967029E1,-5.363706467E-1,-7.295410171E-1,-1.086994466E0,1.414736914E0
1.365964029E1,-7.229721820E-1,-4.502470073E-1,2.607835377E0,2.743395067E0
1.366960929E1,2.756631447E-2,4.970209318E-1,6.681455451E-1,8.331915613E-1
1.367957929E1,-9.158636402E-1,-1.133576310E0,-1.632704578E0,2.188498503E0
1.368954829E1,3.260090236E-1,-1.144967855E0,-2.114370137E0,2.426477766E0
1.369951829E1,8.718487244E-1,-1.895926931E0,1.045472218E0,2.334024697E0
1.370948729E1,2.531302048E-1,-1.656618813E0,2.201125860E0,2.766480769E0
1.371945729E1,-2.946104988E-2,-2.171418789E0,3.010820802E0,3.712272809E0
1.372942729E1,-1.199972759E0,-7.214075401E-1,2.594014898E0,2.947757920E0
1.373939629E1,-1.796785416E-2,2.165697288E0,2.334770406E0,3.184606795E0
1.374936629E1,-4.239149487E-1,3.819477570E0,1.543245102E0,4.141221829E0
1.375933529E1,-9.875909961E-1,-1.317947498E0,6.446192729E-1,1.768574451E0
1.376930529E1,-3.396852225E-2,-3.865514453E0,-1.956520457E0,4.332589082E0
1.377927429E1,-5.446046226E-1,-1.514918851E0,-3.657157987E0,3.995795022E0
1.378924429E1,-8.823280312E-2,-1.059602015E0,-2.331097770E0,2.562139393E0
1.379921329E1,-2.561680344E-1,-1.969331122E0,1.625525367E0,2.566363156E0
1.380918329E1,-1.006973273E0,-1.696035478E0,1.838844073E0,2.696642179E0
1.381915229E1,-1.499357656E0,-1.978977858E0,1.188936578E0,2.752816182E0
1.382912229E1,-4.198172200E-1,3.416802925E-1,8.450629950E-1,1.003555373E0
1.383909129E1,-7.991589168E-1,4.570043421E-1,9.700326115E-1,1.337337358E0
1.384906129E1,-1.168957373E0,-8.618807566E-1,-2.048811740E-1,1.466722903E0
1.385903029E1,-5.468643157E-1,-1.059498519E0,8.600002921E-1,1.470101423E0
1.386900029E1,-7.552306860E-1,-4.749590948E-1,2.459993792E0,2.616778360E0
1.387897029E1,-3.151322524E-1,2.039924264E0,-5.337484628E-1,2.132014719E0
1.388893929E1,4.286307829E-2,2.199472560E0,-2.580430062E0,3.390890162E0
1.389890929E1,1.120534022E0,6.436170602E-1,-2.869232229E0,3.146797261E0
1.390887829E1,1.345395936E0,-4.198297915E-1,-1.672259822E0,2.186961406E0
1.391884829E1,1.270918342E0,1.476231918E-1,-1.388765173E0,1.888304728E0
1.392881729E1,1.574161524E0,5.004020843E-1,-4.619785684E-1,1.715170822E0
1.393878729E1,7.973189443E-1,-1.449694037E0,1.434216165E0,2.189590443E0
1.394875629E1,1.448326812E0,-8.934311628E-2,1.191433924E0,1.877537627E0
1.395872629E1,9.743825745E-1,2.032012981E0,1.285305709E-1,2.257214714E0
1.396869529E1,6.229869139E-1,2.039800888E0,-5.877814132E-1,2.212326230E0
1.397866529E1,5.876681965E-1,1.067465935E0,-2.742291516E-1,1.249015236E0
1.398863429E1,-5.493227775E-1,-2.545427459E-1,5.725324595E-1,8.332712287E-1
1.399860429E1,-6.564818117E-1,9.043607783E-1,1.219926236E0,1.654405273E0
1.400857429E1,-4.305099867E-1,1.979579829E0,-8.276318604E-1,2.188389738E0
1.401854329E1,-1.075180076E-1,-1.562278081E0,-8.761082017E-1,1.794390846E0
1.402851329E1,4.918012321E-1,-1.060591364E0,-1.165628407E0,1.650882212E0
1.403848229E1,5.772315744E-1,-2.103624416E0,1.229988710E0,2.504257215E0
1.404845229E1,3.647327940E-1,-8.589799529E-1,3.521282728E0,3.642843480E0
1.405842129E1,-1.285054004E-1,6.469669300E-1,2.541481174E0,2.625682083E0
1.406839129E1,-8.095584092E-1,-2.797188977E0,1.608991780E0,3.326936359E0
1.407836029E1,-1.081643679E0,-9.088108018E-1,-1.573717282E0,2.114822973E0
1.408833029E1,-6.846086732E-1,-6.694035736E-1,-9.049057388E-1,1.317438642E0
1.409829929E1,-1.277404110E-1,3.845950547E-1,-1.191209975E0,1.258257595E0
1.410826929E1,-3.163348784E-1,-7.493183470E-1,-7.152676713E-1,1.083122146E0
1.411823829E1,2.549483052E-1,-1.955168581E0,-1.693625548E0,2.599240335E0
1.412820829E1,-2.861515695E-1,-9.007688338E-1,-5.150701171E-1,1.076366312E0
1.413817829E1,9.872219637E-2,-6.136942264E-1,2.059102255E0,2.150876280E0
1.414814729E1,-1.212136868E0,-1.879314991E0,2.246669238E0,3.169956354E0
1.415811729E1,-1.322359514E0,-1.450798284E0,1.758382877E0,2.635405223E0
1.416808629E1,-8.813043299E-1,3.466027710E-1,4.113639003E-1,1.032497487E0
1.417805629E1,-1.316450172E-1,2.264126101E0,1.060910622E0,2.503822829E0
1.418802529E1,2.632794729E-1,-2.944219261E-2,2.957176691E-1,3.970287941E-1
1.419799529E1,1.140350967E0,-2.831650712E0,-2.013184655E0,3.656714172E0
1.420796429E1,1.456630151E0,-2.807609593E0,-3.476934521E0,4.700374101E0
1.421793429E1,9.670331360E-1,-9.678548160E-1,2.924521161E0,3.228733506E0
1.422790329E1,3.839542729E-1,5.700465158E-1,3.620589500E0,3.685246565E0
1.423787329E1,3.877349729E-1,3.201483302E0,-2.198500460E0,3.902978095E0
1.424784192E1,8.334624115E-1,5.373249123E-1,-3.615128201E0,3.748670372E0
1.425781192E1,-1.114783541E-2,-1.910792015E0,-1.198790306E0,2.255736819E0
1.426778192E1,5.683208562E-1,-4.006813297E0,7.891001126E0,8.868226438E0
1.427775092E1,-3.061081165E-1,-2.832209998E-1,8.225524426E0,8.236089387E0
1.428772092E1,-7.459560518E-1,5.739109991E0,-1.240866870E-1,5.788715870E0
1.429768992E1,-3.004745618E-1,4.736306367E0,-2.113450370E0,5.195147296E0
1.430765992E1,-2.777606506E-2,1.038343585E0,-3.815504680E0,3.954365293E0
1.431762892E1,-2.302274651E-1,-8.503748980E-1,-6.733597412E0,6.790984926E0
1.432759892E1,4.388665167E-2,4.838445237E-1,-4.819440032E0,4.843865583E0
1.433756792E1,-7.567877630E-2,1.944561439E0,3.702819479E-1,1.980948053E0
1.434753792E1,1.080204570E-1,1.107100117E-1,2.102849953E0,2.108531017E0
1.435750692E1,-6.449209893E-1,-1.538884249E0,-6.487269419E-1,1.790233074E0
1.436747692E1,-1.115959599E0,8.198284587E-1,-2.348221341E0,2.726101244E0
1.437744592E1,2.521540030E-2,-2.132239813E-1,1.426528831E0,1.442596543E0
1.438741592E1,8.755188755E-1,-8.165879318E-1,1.831363730E0,2.187976751E0
1.439738592E1,1.073959415E0,1.672856531E0,-1.301990154E0,2.376345126E0
1.440735492E1,2.199458856E-1,-4.506881797E-1,-1.395232193E0,1.482622306E0
1.441732492E1,-3.870012570E-2,-1.887020160E0,9.966076219E-1,2.134378021E0
1.442729392E1,-2.612566651E-1,-2.601734684E0,8.192650795E-1,2.740159427E0
1.443726392E1,-6.133497524E-1,-2.458257461E0,-1.764247634E0,3.087360908E0
1.444723292E1,-5.912676328E-1,2.518082371E0,-2.274130687E0,3.444126394E0
1.445720292E1,-6.992584334E-1,1.744782838E0,2.211654357E0,2.902523816E0
1.446717192E1,-2.518923127E-1,-1.262943325E0,5.172086193E0,5.330004800E0
1.447714192E1,-2.258510252E-1,-5.307462684E0,3.510053735E0,6.367153685E0
1.448711092E1,-4.008525069E-1,-3.762885878E0,7.195893484E-1,3.851986721E0
1.449708092E1,-5.033793403E-1,-7.241025218E-1,1.713055261E0,1.926726122E0
1.450704992E1,-2.178418381E-1,2.411754262E-1,2.693359092E0,2.712895842E0
1.451701992E1,1.766347004E-1,6.684361517E-1,6.383171439E-2,6.943206709E-1
1.452698892E1,2.861459050E-1,4.363426208E-2,-1.862193174E0,1.884554814E0
1.453695892E1,1.075987083E-1,-1.101264596E-2,-2.715550445E0,2.717703622E0
1.454692892E1,-3.470947776E-1,-5.586994091E-1,-2.727477010E0,2.805664031E0
1.455689792E1,-1.012240080E0,-1.631328436E0,-3.173268732E0,3.708840370E0
1.456686792E1,-1.214481601E0,-2.281748439E0,-3.012526435E0,3.969465584E0
1.457683692E1,-1.407081868E0,-1.635763257E0,-1.171335874E0,2.455122919E0
1.458680692E1,-1.079450389E0,-1.017624561E0,-1.095233193E0,1.843992580E0
1.459677592E1,-1.089843230E0,-1.640224682E0,-2.084613072E0,2.867700635E0
1.460674592E1,-1.253417333E0,-3.125289696E0,6.373464476E0,7.208296618E0
1.461671492E1,-1.012085348E0,-3.554326513E-1,8.114805059E0,8.185396158E0
1.462668492E1,-1.144251864E0,4.967575732E0,1.287482042E0,5.257730594E0
1.463665392E1,-1.318657350E0,3.537623357E0,-1.398981428E-1,3.777989904E0
1.464662392E1,-1.491245667E0,7.745631158E-2,-8.968044215E-1,1.741858574E0
1.465659292E1,-1.184645672E0,-2.409704813E-1,-4.254479132E0,4.422900047E0
1.466656292E1,-6.360503246E-1,1.429250417E0,-3.350100812E0,3.697362874E0
1.467653292E1,-6.761160310E-1,1.053613004E0,-4.634321862E-1,1.334916717E0
1.468650192E1,4.145190579E-1,-1.880567465E0,7.924824929E-1,2.082399707E0
1.469647192E1,1.249463154E0,-2.635883593E0,1.155102834E0,3.137403871E0
1.470644092E1,1.454951853E0,8.223971406E-1,4.550659901E-1,1.732139431E0
1.471641092E1,9.967968524E-1,2.382065902E0,3.008487178E0,3.964698857E0
1.472637992E1,7.346337958E-1,1.202843011E0,1.839322960E0,2.317245579E0
1.473634992E1,5.994215019E-1,7.234873948E-1,-1.728917003E0,1.967712924E0
1.474631892E1,1.721062512E-1,1.292790729E0,-3.141389127E0,3.401360622E0
1.475628892E1,-3.167065786E-1,2.190924223E0,-1.849520504E0,2.884645230E0
1.476625792E1,-5.209183560E-1,4.931445202E-1,-4.471950531E-1,8.452992766E-1
1.477622792E1,-9.035010915E-1,-7.453910646E-1,4.835021693E-1,1.267160767E0
1.478619692E1,-8.294272479E-1,2.343911066E0,-7.529342651E-1,2.597841152E0
1.479616692E1,-4.816706020E-2,3.976047587E0,-7.675347626E-1,4.049738768E0
1.480613592E1,-4.365168953E-2,1.615962245E0,1.722722463E0,2.362416588E0
1.481610592E1,2.401362847E-1,-4.534815993E0,2.543982028E0,5.205196066E0
1.482607592E1,6.619787791E-1,-4.445355348E0,7.886303473E-1,4.563040422E0
1.483604492E1,1.134418601E0,1.989632070E-2,-7.299079299E-2,1.136938469E0
1.484601492E1,6.972421673E-1,1.182590887E0,1.882511079E0,2.329917554E0
1.485598392E1,1.120304957E-1,-2.070955145E-1,1.468773794E0,1.487526754E0
1.486595392E1,5.925763858E-2,-1.792682936E0,-5.449803793E-1,1.874627214E0
1.487592292E1,5.784095325E-1,-9.368356293E-1,-9.091531563E-1,1.427857852E0
1.488589292E1,1.172978869E-3,-3.206303161E-1,3.937661201E-1,5.077961528E-1
1.489586192E1,4.239021945E-1,-9.055205736E-1,3.118437052E-1,1.047333317E0
1.490583192E1,9.449101956E-1,-1.447194645E0,-1.070922225E0,2.033249131E0
1.491580092E1,7.028630226E-1,-2.754929980E0,1.182811620E0,3.079399122E0
1.492577092E1,1.881314776E-1,-1.409456423E0,2.576120079E0,2.942508373E0
1.493573992E1,2.918576114E-1,-9.317757413E-1,1.479659556E0,1.772788565E0
1.494570992E1,-1.563680500E-1,-6.625509292E-1,1.490031931E0,1.638175771E0
1.495567892E1,1.973483522E-1,2.023613164E-1,8.171624207E-1,8.646680845E-1
1.496564892E1,7.233015264E-1,7.637709099E-1,6.038910770E-1,1.212928495E0
1.497561792E1,-2.852396734E-2,-2.756216660E-1,1.581209904E-1,3.190347428E-1
1.498558792E1,1.121335712E-1,-5.308038050E-1,-1.508147775E0,1.602758974E0
1.499555692E1,9.590384756E-2,-1.130634868E0,-2.183581874E0,2.460805265E0
1.500552692E1,1.283065787E0,-6.448730421E-1,-1.932833971E0,2.407896637E0
1.501549592E1,1.163842010E0,-1.032838432E0,3.191369373E-1,1.588436915E0
1.502546592E1,7.843086702E-1,-1.900345087E-1,-6.738512582E-1,1.051346148E0
1.503543492E1,7.547176659E-1,-1.250444609E-1,-2.795401776E-1,8.144799465E-1
1.504540492E1,4.290043652E-2,-8.255537599E-2,4.254083276E-2,1.023013197E-1
1.505537392E1,8.235937550E-2,3.608270001E-1,-1.326525655E0,1.377188987E0
1.506534392E1,1.039382343E0,7.178407386E-1,-1.157408976E0,1.713244442E0
1.507531292E1,1.193740943E0,1.113667125E0,-1.748568910E0,2.392230160E0
1.508528292E1,3.355171810E-1,-3.524251360E-1,9.777170223E-1,1.092110723E0
1.509525292E1,-7.014306010E-1,-6.444432718E-1,2.462613344E0,2.640412184E0
1.510522192E1,-8.527570537E-1,2.067020846E0,1.449207841E0,2.664577478E0
1.511519192E1,-6.258855980E-1,3.071895262E0,-1.450506508E0,3.454307805E0
1.512516092E1,-4.721361687E-1,1.746645761E0,-7.800045347E-1,1.970302274E0
1.513513092E1,-6.994228864E-1,-1.624260029E0,8.925291129E0,9.098804029E0
1.514509992E1,-6.729045209E-1,1.469852605E-1,8.351274646E0,8.379629668E0
1.515506992E1,7.912599863E-1,5.598161688E0,-2.238285500E0,6.080742441E0
1.516503892E1,8.928439562E-1,5.704620774E0,-9.309843206E0,1.095504674E1
1.517500892E1,-3.568902891E-1,-1.652733923E0,-8.248874112E0,8.420381477E0
1.518497792E1,-1.279067607E0,-6.333801059E0,-5.390886079E0,8.415147207E0
1.519494792E1,-8.556181694E-1,-4.229990408E0,8.383211553E-2,4.316471838E0
1.520491692E1,3.404443373E-1,1.998142692E-1,4.990131952E0,5.005721225E0
1.521488692E1,7.068651494E-2,-2.147190558E0,6.759978880E0,7.093147280E0
1.522485592E1,-1.078789799E0,-2.834549762E0,2.117498397E0,3.698953804E0
1.523482592E1,-1.401973595E0,-5.679011723E-1,-1.563723221E0,2.175608424E0
1.524479492E1,-1.354674005E0,4.323934114E-1,1.110128390E0,1.804020722E0
1.525476508E1,-1.470693727E0,-1.173808077E-1,2.153328381E0,2.610276117E0
1.526473408E1,-2.167556118E0,-1.064651378E0,-1.210470704E0,2.701299948E0
1.527470408E1,-1.705555476E0,5.411206323E-1,-3.986108306E0,4.369300911E0
1.528467308E1,-6.044361106E-1,8.635094985E-1,-1.269839239E0,1.650297960E0
1.529464308E1,-2.097712370E-1,5.828451937E-1,5.545066631E-1,8.313784524E-1
1.530461208E1,-1.149810592E0,-2.014999338E0,2.080573815E-1,2.329286287E0
1.531458208E1,-1.214698387E0,8.241963288E-1,-3.467433965E-1,1.508317852E0
1.532455108E1,-3.638657981E-1,2.877961830E0,1.410879343E0,3.225777911E0
1.533452108E1,-4.127392751E-1,2.440183425E-1,5.299565434E0,5.321211559E0
1.534449008E1,-8.156851948E-1,-4.624372240E0,3.940149191E0,6.129839851E0
1.535446008E1,-1.738711601E-2,-5.925491159E0,-4.532527685E-2,5.925690016E0
1.536442908E1,-6.562928735E-1,-5.287938246E-1,-2.186037120E0,2.342883167E0
1.537439908E1,-2.156411106E-2,1.700810899E0,7.565525222E-1,1.861610713E0
1.538436808E1,8.035359963E-1,2.109296508E0,-6.138161409E-1,2.339139181E0
1.539433808E1,9.649431219E-1,-2.453620327E-1,-1.623339677E0,1.904350142E0
1.540430708E1,7.767015522E-2,-1.306277625E0,-2.074928913E0,2.453104947E0
1.541427708E1,5.911110371E-1,-4.533439851E-1,-6.881646574E-2,7.481101075E-1
1.542424608E1,5.925845354E-1,-1.209589821E0,1.410954772E0,1.950655616E0
1.543421608E1,6.814452929E-2,-2.174833270E0,-2.522272485E-1,2.190470729E0
1.544418508E1,3.602507936E-1,-1.312957191E0,-1.328920675E0,1.902542347E0
1.545415508E1,8.618710356E-1,6.044167417E-1,-1.128982152E0,1.543613287E0
1.546412408E1,1.136258281E0,9.406983000E-1,-9.186426026E-1,1.737786064E0
1.547409308E1,1.280316864E0,-6.360095403E-1,-1.273516552E0,1.914566222E0
1.548406308E1,9.070532019E-1,-6.264470038E-1,-1.017465810E0,1.500139338E0
1.549403208E1,1.228243023E0,1.762557204E0,3.330959952E-1,2.173969127E0
1.550400208E1,8.435324863E-1,2.328589607E0,1.338834629E0,2.815378265E0
1.551397108E1,2.212712483E-1,1.285495451E0,-6.414337099E-1,1.453580656E0
1.552394108E1,8.835141389E-1,-6.350655073E-1,-4.187781698E-1,1.165881893E0
1.553391008E1,6.935609796E-1,8.016643757E-1,8.702533847E-1,1.371507768E0
1.554388008E1,1.440897194E0,1.683561613E0,1.973825877E0,2.967583701E0
1.555384908E1,1.054484897E0,4.434718385E-1,3.456365186E-1,1.195018943E0
1.556381908E1,2.484815405E-2,1.428587635E0,-1.328383316E0,1.950918321E0
1.557378808E1,-1.495569756E-1,-3.254393587E-1,5.885357040E-1,6.889501724E-1
1.558375808E1,3.615907561E-1,1.307989982E-1,2.108258627E0,2.143037725E0
1.559372708E1,-5.783928679E-1,2.771369720E-1,1.724943236E0,1.840318553E0
1.560369708E1,-1.330218026E0,-1.547798914E-1,1.046410112E0,1.699532563E0
1.561366608E1,-9.821719428E-1,-4.181256205E-1,-5.816927075E-2,1.069053050E0
1.562363608E1,-5.053824502E-1,-7.372789299E-1,-9.458836108E-1,1.301417476E0
1.563360508E1,-4.854806112E-1,-9.499067876E-1,-1.332282824E0,1.706748913E0
1.564357508E1,2.800015229E-1,-1.587268204E0,-1.048503415E0,1.922805402E0
1.565354408E1,-1.769553471E-1,-4.892406267E-1,-1.885820019E0,1.956268573E0
1.566351408E1,3.224447072E-1,-1.143304030E0,-1.075860198E0,1.602682083E0
1.567348308E1,4.274400523E-1,-2.790437490E-1,2.970537579E-1,5.906025290E-1
1.568345308E1,5.379907639E-1,-6.751396921E-1,1.372337421E0,1.621282721E0
1.569342208E1,1.193386675E0,-1.453870996E0,4.345241368E-1,1.930472443E0
1.570339208E1,1.088154481E0,-8.168238670E-2,-4.276641834E-1,1.172027662E0
1.571336108E1,7.321078717E-1,-4.047366661E-1,-5.259903771E-1,9.881596943E-1
1.572333108E1,5.680884294E-1,-6.951351231E-1,1.949837090E0,2.146579134E0
1.573330008E1,1.729095307E-1,-9.295312876E-1,2.485856611E0,2.659588166E0
1.574327008E1,-3.507081376E-1,-1.637437314E0,7.759904212E-1,1.845632220E0
1.575323908E1,-8.177497370E-2,-1.396986943E0,-4.696594709E-1,1.476089321E0
1.576320808E1,4.867576431E-1,-2.482461718E-1,9.691409111E-2,5.549337852E-1
1.577317808E1,4.199855467E-1,-4.431262681E-1,9.467121613E-1,1.126504623E0
1.578314708E1,-2.078807956E-1,-1.120951294E0,-3.359482670E-1,1.188531643E0
1.579311708E1,-5.272178538E-1,-1.343933693E0,-5.313353169E-1,1.538321701E0
1.580308608E1,-6.698348788E-1,-1.906891045E0,9.181298018E-3,2.021137432E0
1.581305608E1,2.508167357E-1,-1.487622294E0,6.873366916E-1,1.657818100E0
1.582302508E1,-1.156186122E-1,1.335780044E0,1.074135854E0,1.717976665E0
1.583299508E1,-1.507763576E-1,1.475413015E0,7.127720797E-1,1.645485069E0
1.584296408E1,-7.190956059E-2,-2.213653520E-1,4.722521263E-1,5.264937557E-1
1.585293408E1,3.896903184E-1,1.628532590E0,-1.208706599E0,2.065175194E0
1.586290308E1,3.909429199E-2,1.952613055E0,4.986125439E-1,2.015648922E0
1.587287308E1,6.813603256E-1,2.294043087E0,4.695700085E-1,2.438725399E0
1.588284208E1,4.859493752E-1,1.840872472E0,-1.354589367E0,2.336636601E0
1.589281208E1,-2.269906841E-1,8.668935746E-1,-2.680622102E0,2.826440181E0
1.590278108E1,-5.725600876E-1,7.106381384E-1,-1.811634640E0,2.028509720E0
1.591275108E1,-3.255416484E-1,9.020037657E-1,-1.869419163E0,2.101027407E0
1.592272008E1,-4.480084008E-1,1.448784503E0,-1.395419889E0,2.060797110E0
1.593269008E1,-5.303316789E-2,2.906677213E-1,2.235858321E-1,3.705278201E-1
1.594265908E1,-1.045073877E0,-1.056646248E0,3.216218285E0,3.542984724E0
1.595262808E1,-1.607218173E0,-5.190070474E-1,2.179020461E0,2.756927410E0
1.596259808E1,-1.379243859E0,-3.622721395E-1,1.870785073E0,2.352316202E0
1.597256708E1,-8.139631167E-1,-6.750043291E-1,2.099340454E0,2.350616332E0
1.598253708E1,-4.052026161E-1,-4.651275864E-1,1.337288041E0,1.472709114E0
1.599250608E1,-1.070088119E0,-2.135213122E-1,-4.729988158E-2,1.092207495E0
1.600247608E1,-1.497930643E0,8.416949987E-1,-1.509031289E0,2.286792976E0
1.601244508E1,-1.170950250E0,-8.462748304E-1,-1.191860186E0,1.872921856E0
1.602241508E1,-7.587554607E-1,-1.380278232E0,-1.193058865E0,1.975921887E0
1.603238408E1,8.015220691E-2,-4.454204232E-1,-1.527728931E0,1.593354768E0
1.604235408E1,3.585607655E-2,-4.572776994E-1,1.018514215E0,1.117031673E0
1.605232308E1,5.103533875E-1,-1.187543479E0,2.369407557E0,2.699039138E0
1.606229308E1,4.466922656E-1,4.087332380E-1,1.559981003E0,1.673361159E0
1.607226208E1,6.488548498E-1,3.809519470E-2,1.211409182E0,1.374764004E0
1.608223208E1,9.725923032E-1,-1.035691581E0,7.327449989E-1,1.598595656E0
1.609220108E1,4.099718244E-1,-1.052407016E0,-3.707877320E-1,1.188747646E0
1.610217108E1,-3.717657519E-1,-1.228435397E0,2.388207525E-1,1.305487897E0
1.611214008E1,-4.177513256E-1,1.026996186E-1,-7.358510399E-1,8.523732367E-1
1.612210908E1,-7.953945525E-1,9.916225782E-1,-1.447282353E0,1.926290228E0
1.613207908E1,-4.409179209E-1,-2.509616187E-1,-8.559423244E-1,9.950013114E-1
1.614204808E1,-1.549658328E-3,-1.327669078E0,4.084338605E-1,1.389073721E0
1.615201808E1,-3.351187664E-1,-1.331914742E0,2.053530443E-1,1.388694113E0
1.616198708E1,-9.819660477E-1,-9.758204779E-1,9.728842986E-1,1.692036283E0
1.617195708E1,-1.479484797E-1,-1.301770883E0,3.423527223E-1,1.354142375E0
1.618192608E1,-1.219419100E-1,-3.308913025E0,1.265873072E0,3.544885030E0
1.619189608E1,-2.582474321E-1,-2.838625563E0,-8.084266806E-1,2.962775814E0
1.620186508E1,3.590092470E-1,-5.431689119E-1,-1.495952822E0,1.631500828E0
1.621183508E1,3.132656018E-1,-6.574580044E-1,-2.818357944E-3,7.282817504E-1
1.622180408E1,3.087277240E-1,-1.728681068E0,2.907352567E-2,1.756273416E0
1.623177408E1,1.227468340E-1,-7.493209782E-1,3.735008401E-1,8.461983167E-1
1.624174308E1,7.970398128E-2,-8.730047920E-1,1.759044197E0,1.965382044E0
1.625171317E1,1.761515925E-1,1.109638394E0,3.602346772E-1,1.179871082E0
1.626168217E1,1.627088254E-1,6.046839595E-1,9.793536580E-1,1.162432983E0
1.627165217E1,1.276978689E0,6.094076326E-1,-2.983278662E-1,1.446046939E0
1.628162117E1,1.335159946E0,1.369999704E-1,-4.727275050E-1,1.422987129E0
1.629159017E1,1.457626955E0,2.174912500E0,-1.224207568E0,2.890260350E0
1.630156017E1,1.576819522E0,1.357877841E0,-1.085351983E0,2.346951419E0
1.631152917E1,1.121550341E0,-2.015125930E-2,8.861806154E-1,1.429544446E0
1.632149917E1,6.264915888E-1,1.694372238E0,5.022267079E-1,1.874998842E0
1.633146817E1,-1.452489938E-1,3.114697173E0,3.596827000E-1,3.138758894E0
1.634143817E1,2.293639410E-1,3.369948893E0,-2.513822674E0,4.210518709E0
