"Time (s)","Linear Acceleration x (m/s^2)","Linear Acceleration y (m/s^2)","Linear Acceleration z (m/s^2)","Absolute acceleration (m/s^2)"
4.906708316E-3,-1.751047764E-1,-2.803347265E0,9.193144476E-1,2.955428332E0
1.487670833E-2,5.379393450E-1,-3.319695876E0,5.610351378E0,6.541085692E0
2.484670834E-2,-1.381550147E-1,-6.428779721E-1,4.258895534E-1,7.834288780E-1
3.481670836E-2,-6.099673756E-3,1.938631193E0,-3.518338655E0,4.017092855E0
4.478570836E-2,9.490204228E-1,2.701989290E0,2.770299679E-1,2.877174219E0
5.475570832E-2,4.003938659E-1,4.550289772E0,-1.249051802E0,4.735565717E0
6.472570833E-2,1.837885860E0,4.835530985E0,-2.170427393E0,5.609896560E0
7.469570835E-2,2.734686627E0,2.820838333E0,-3.531127685E-1,3.944658221E0
8.466470835E-2,2.389852785E0,2.833566552E-1,-2.272810970E0,3.310189879E0
9.463470837E-2,1.292642941E0,7.650447258E-1,-5.135281479E0,5.350451857E0
1.046047083E-1,9.448825675E-1,4.292713198E0,-1.819500314E0,4.757181000E0
1.145747083E-1,-1.440534666E-1,4.476270454E0,1.762761857E0,4.813011317E0
1.245447083E-1,-1.263259221E0,3.604630110E0,-1.430308471E0,4.078598339E0
1.345137084E-1,-4.947067501E-1,1.971335840E0,-9.721177286E-1,2.252978615E0
1.444837084E-1,1.003496409E-1,1.956968646E0,-3.161633942E0,3.719640509E0
1.544537083E-1,-1.956172694E0,5.356693901E0,-5.820024930E0,8.148218906E0
1.644237083E-1,-1.386633278E0,4.354041720E0,-1.911320896E0,4.953138269E0
1.743927083E-1,-1.035532829E0,4.941796528E0,1.293429830E0,5.212162880E0
1.843627084E-1,-3.295659215E-1,3.557691586E0,-1.225912616E0,3.777385982E0
1.943327084E-1,-9.260605265E-1,5.688366099E0,-2.182525283E0,6.162670978E0
2.043027083E-1,-1.203894925E0,4.975660093E0,-1.092396709E0,5.234490130E0
2.142727083E-1,-3.155483841E0,1.976356552E0,-1.416879755E0,3.983793635E0
2.242417083E-1,-4.056688292E0,1.598232318E0,-4.073653988E0,5.967053147E0
2.342124584E-1,-4.993125141E0,3.405255259E0,-5.131312389E0,7.928267710E0
2.441824583E-1,-3.718232447E0,1.266147307E0,-2.739168518E0,4.788676821E0
2.541524583E-1,-7.247001073E0,-8.733380833E-1,5.127668989E-1,7.317422623E0
2.641224583E-1,-4.316129543E0,1.865053340E0,-2.255449417E0,5.214829840E0
2.740914584E-1,-5.495655320E0,1.761598846E0,-9.127515328E-1,5.842822370E0
2.840614584E-1,-3.755726548E0,-1.262019172E-1,5.573948368E0,6.722373779E0
2.940314583E-1,-4.942031001E0,-1.121606182E0,8.469019443E-1,5.137987325E0
3.040014583E-1,-3.668959422E0,-3.340666037E0,-1.340160193E0,5.139780361E0
3.139704583E-1,-3.832322149E0,-3.666458860E0,3.057709039E0,6.122025661E0
3.239404584E-1,-6.323530424E0,-2.650912692E0,4.429848824E0,8.163206216E0
3.339104584E-1,-5.383171263E0,3.105646268E-1,-2.456302444E0,5.925234589E0
3.438804583E-1,-6.163659362E0,-1.389613896E0,-1.387205136E-1,6.319886620E0
3.538504583E-1,-3.816405443E0,-4.290629251E0,5.087448331E0,7.671804246E0
3.638194583E-1,-3.163417051E0,-3.263043373E0,4.110783808E0,6.128066824E0
3.737894584E-1,-3.069213729E0,-2.949585836E0,1.818292279E0,4.628856914E0
3.837594583E-1,-1.226627292E0,-3.165703604E0,5.748970735E0,6.676597811E0
3.937294583E-1,-3.457298402E0,-4.263972672E0,4.729690534E0,7.245988389E0
4.036994583E-1,-1.335780190E0,-4.614445422E0,1.198708445E0,4.951193513E0
4.136684584E-1,1.005444446E-1,-3.402321126E0,7.778615302E-1,3.491556499E0
4.236384584E-1,-1.905597531E-1,-2.064541919E0,2.890960482E0,3.557569236E0
4.336084583E-1,2.290957913E-1,-1.773132186E0,-1.206568857E0,2.156917022E0
4.435784583E-1,-9.816725175E-1,-3.719458608E0,-3.327477935E0,5.086271982E0
4.535474583E-1,1.177177243E0,-3.287445265E0,2.055642457E0,4.052000561E0
4.635174584E-1,1.857868427E0,-4.418859567E0,2.696454608E0,5.499896583E0
4.734874584E-1,2.899897367E0,-4.264079091E-1,1.095259506E0,3.129028895E0
4.834574583E-1,-1.155600067E0,1.522260030E0,6.817631257E-1,2.029159450E0
4.934274583E-1,4.789239821E-1,3.539085453E0,1.456546097E0,3.856944459E0
5.033964583E-1,-1.543295534E0,1.392519378E0,-3.546833307E-1,2.108713254E0
5.133664584E-1,-1.916904548E0,-1.084781880E0,-4.348850854E0,4.874810614E0
5.233364584E-1,-2.192246132E0,-7.589147973E-1,-1.509226002E0,2.767608697E0
5.333064583E-1,-3.365041033E0,-4.119325420E-1,-1.103778314E0,3.565321323E0
5.432764583E-1,-5.745647762E0,2.376043855E0,-3.423382797E0,7.097718111E0
5.532454583E-1,-1.331387177E0,3.542105540E0,-3.949987131E0,5.470055010E0
5.632154584E-1,-1.706999885E0,2.785661192E0,-2.906130499E0,4.372568051E0
5.731854584E-1,-4.461277316E0,5.544880689E0,-1.378841863E0,7.249131123E0
5.831554583E-1,-2.998490193E0,6.790990757E0,2.462131534E0,7.821162995E0
5.931254583E-1,-2.821637063E0,9.305299920E-1,-8.649324185E-1,3.094451465E0
6.030944583E-1,-1.654936130E0,1.492529570E0,-6.530982619E0,6.900738517E0
6.130644584E-1,-1.731481300E0,2.697606802E0,-6.623533518E0,7.358417371E0
6.230344583E-1,-3.238326900E0,6.723339057E0,-4.964790704E0,8.963213482E0
6.330044583E-1,-1.833664902E0,5.421339548E0,-3.391034245E0,6.652244938E0
6.429744583E-1,-7.393294023E-1,2.937814221E0,-3.667429790E0,4.756826845E0
6.529434583E-1,-6.740050399E-1,2.596879741E0,-1.989101143E0,3.339848880E0
6.629134584E-1,1.312280669E0,4.748044360E0,1.179800304E0,5.065366181E0
6.728834583E-1,1.585129146E0,6.649763542E0,-1.351910757E0,6.968475606E0
6.828534583E-1,2.721964548E0,8.985279468E0,-1.385169135E0,9.490154459E0
6.928224583E-1,3.560900246E0,8.936962756E0,-4.833728288E0,1.076634771E1
7.027924584E-1,4.097986591E0,8.596785783E0,-4.151948206E0,1.038926820E1
7.127624584E-1,7.228119244E0,5.227992591E0,1.960173798E-1,8.922781918E0
7.227324583E-1,3.817169090E0,5.446411824E0,6.995024085E-2,6.651246097E0
7.327024583E-1,3.907433727E0,5.609760225E0,-2.380588603E-1,6.840622788E0
7.426714583E-1,6.103418423E0,2.889288471E0,2.530360354E0,7.211270889E0
7.526414584E-1,4.714235759E0,1.179343344E0,-1.819871027E0,5.189103975E0
7.626114584E-1,3.042816181E0,-1.215996030E0,9.676381767E-2,3.278222063E0
7.725814583E-1,3.575828772E0,-4.435627920E0,4.094606316E-1,5.712180359E0
7.825514583E-1,7.750653917E-1,-1.214934468E0,3.525486292E0,3.808654056E0
7.925204583E-1,3.338723592E-1,2.014724519E0,5.845040488E-1,2.124201173E0
8.024904584E-1,-8.536717044E-1,1.722701998E0,2.441241771E0,3.107429635E0
8.124604584E-1,1.784210029E0,-1.943147875E0,3.368119007E0,4.278253702E0
8.224304583E-1,-9.200485656E-1,-2.998943353E0,1.616103163E0,3.528730654E0
8.324004583E-1,3.977874330E-1,-4.549627575E0,2.977916765E0,5.452094476E0
8.423694583E-1,-7.552640882E-1,-4.976779250E0,4.020798082E0,6.442481879E0
8.523394584E-1,-2.755841561E0,-4.250097814E0,-2.756301445E-1,5.072865671E0
8.623094583E-1,-2.609339281E0,-1.006316046E0,-5.671496882E0,6.323543338E0
8.722794583E-1,-3.561732597E0,4.314689666E-1,-2.370974026E0,4.300421188E0
8.822494583E-1,-1.836625347E0,-1.791580736E0,6.615393609E-1,2.649639320E0
8.922184583E-1,-3.020773567E-1,-5.068636669E0,1.954097956E0,5.440664227E0
9.021884584E-1,1.302065437E0,-4.174470803E0,3.394794005E-1,4.385980752E0
9.121584583E-1,-6.446119639E-1,-1.523099398E0,-3.416797078E0,3.796031958E0
9.221284583E-1,-8.976626466E-1,-8.323789224E-1,-1.527580411E0,1.957589030E0
9.320984583E-1,6.681053455E-1,1.088132042E0,1.992139941E0,2.366224342E0
9.420674584E-1,1.461036758E0,1.455057103E0,3.800306597E0,4.323673185E0
9.520374584E-1,2.850190771E0,-2.042294725E0,4.802793009E0,5.946543186E0
9.620074583E-1,2.017827052E0,-1.737758578E0,7.548363644E-1,2.767888875E0
9.719774583E-1,-4.493498252E-1,1.933672462E0,-7.149413967E-1,2.110010819E0
9.819474583E-1,6.314252501E-1,1.239366474E0,-4.267590344E-2,1.391599201E0
9.919164584E-1,-1.220644128E0,8.905952632E-2,2.694987541E-1,1.253209187E0
1.001886458E0,-4.865597514E-1,7.029861796E-1,-5.778955257E-1,1.031936625E0
1.011856458E0,4.617268823E-1,-5.821125376E-1,-1.199928174E0,1.411337785E0
1.021826458E0,-7.076075996E-1,-2.684290060E-1,-5.040834328E0,5.097330023E0
1.031796458E0,-6.422398947E-1,-6.826290983E-1,-3.066562893E0,3.206596724E0
1.041765458E0,-1.768497683E0,-2.726856913E0,2.891652793E-1,3.262966325E0
1.051735458E0,-1.704036808E0,-1.477092920E0,3.793586977E0,4.413258103E0
1.061705458E0,-2.829472624E0,-1.115844628E-1,3.310159067E0,4.356089929E0
1.071675458E0,-2.949801013E0,-1.761888283E0,3.503539352E0,4.907174781E0
1.081644458E0,-2.773618851E0,-3.405616617E0,3.536216517E0,5.638795379E0
1.091614458E0,-3.160289667E0,-2.465849778E-1,1.866231846E0,3.678458405E0
1.101584458E0,-3.513735435E0,4.069147539E-1,-1.142585115E0,3.717178643E0
1.111554458E0,-2.437257771E0,-9.669894281E-1,-3.085379233E0,4.049056558E0
1.121524458E0,-1.812262923E0,-2.421003681E0,-1.610194552E0,3.426117660E0
1.131493458E0,-1.029065662E0,-3.488185734E-2,-7.468584234E-1,1.272002510E0
1.141463458E0,-1.104005259E0,-6.910555208E-1,4.850493425E-1,1.389841073E0
1.151433458E0,-1.200123032E0,-2.296797126E0,1.555179269E0,3.022276442E0
1.161403458E0,1.835759301E-1,-1.532780048E0,-3.609228945E-1,1.585364353E0
1.171373458E0,3.589765757E-1,-1.425169938E0,-1.938316321E0,2.432497419E0
1.181342458E0,1.081718450E-1,2.498281360E-1,-8.304823780E-1,8.739658035E-1
1.191312458E0,1.511507877E0,2.559355527E-1,-9.452328157E-1,1.801006426E0
1.201282458E0,-2.435328774E-1,-1.905649389E0,-5.135270369E-1,1.988596961E0
1.211252458E0,2.231580352E-1,7.959159780E-1,2.779871571E-1,8.721001159E-1
1.221222458E0,4.138851466E-1,1.476251798E0,1.408904738E0,2.082218251E0
1.231191458E0,1.157111718E0,-9.033886787E-1,3.245687667E0,3.562233438E0
1.241160875E0,-8.665025420E-2,-4.026526015E0,5.428610560E0,6.759455054E0
1.251130875E0,-1.071088139E0,4.658871397E-1,-1.257209837E-2,1.168091900E0
1.261100875E0,1.760991320E-2,-9.564454365E-1,5.427789026E-1,1.099866773E0
1.271070875E0,-3.992218646E-1,-8.190756297E-1,-2.849598448E0,2.991734330E0
1.281039875E0,5.359323248E-1,-5.622010142E-2,-4.040834152E0,4.076607020E0
1.291009875E0,1.233354075E0,-1.516761016E0,-3.298127836E-1,1.982549552E0
1.300979875E0,8.414550436E-1,-2.878355932E0,1.987460414E0,3.597635106E0
1.310949875E0,-5.718603951E-1,6.711562765E-1,1.643492106E0,1.865084814E0
1.320919875E0,9.716894200E-1,3.772792816E0,-3.628179771E-1,3.912771760E0
1.330888875E0,2.417260293E0,4.380915523E0,-4.147164599E0,6.498810841E0
1.340858875E0,1.866544234E0,-1.009603643E0,-1.143362795E0,2.410511434E0
1.350828875E0,1.669669944E0,-3.214567908E0,4.892578175E0,6.087574703E0
1.360798875E0,2.130929744E0,-9.855984843E-1,2.972406934E0,3.787805292E0
1.370768875E0,3.121030292E0,3.139963576E-1,6.454098165E-2,3.137449495E0
1.380738875E0,2.713460065E0,-1.102773178E-1,2.737023175E-1,2.729457743E0
1.390707875E0,4.778925552E0,-1.533503349E0,1.907932434E0,5.369354535E0
1.400677875E0,1.475516657E0,3.726240501E-1,1.010930961E-1,1.525194382E0
1.410647875E0,-8.409121297E-1,2.998574101E0,-1.778700782E0,3.586412737E0
1.420617875E0,1.624014885E0,1.388477490E0,-2.235917963E0,3.092672505E0
1.430587875E0,-9.726211008E-1,-3.733432576E-1,-1.578722498E0,1.891491930E0
1.440556875E0,9.131080668E-1,-1.653534699E0,-6.384042674E-1,1.993866433E0
1.450526875E0,2.040955128E0,-1.099542591E0,2.074824833E0,3.111171778E0
1.460496875E0,1.622014552E0,1.510948591E0,2.167937064E0,3.100620578E0
1.470466875E0,9.733538300E-1,1.118474706E0,4.010316364E0,4.275633366E0
1.480436875E0,1.274219680E0,6.316217896E-1,-2.406642042E0,2.795444114E0
1.490405875E0,4.797315191E-1,9.019794998E-1,-1.494828987E0,1.810586383E0
1.500375875E0,1.885814756E-2,2.363380832E0,4.666961020E-1,2.409093157E0
1.510345875E0,4.555323786E-1,2.484871355E0,-1.113244956E0,2.760690083E0
1.520315875E0,1.474242403E-1,1.613584475E0,-2.149120724E0,2.691488185E0
1.530285875E0,7.081399886E-1,1.538595396E-1,-1.975511044E0,2.104228811E0
1.540254875E0,-1.524723608E-1,-1.427242483E0,-4.788366174E0,4.998871827E0
1.550224875E0,1.171067926E-1,-2.486982493E0,-4.862369120E-2,2.490212879E0
1.560194875E0,4.463933998E-1,-2.495942473E-2,3.520986859E0,3.549258867E0
1.570164875E0,6.754150960E-1,3.251389872E0,2.175891616E0,3.970166996E0
1.580134875E0,4.190005101E-2,6.349939374E0,-1.249822465E0,6.471904037E0
1.590103875E0,6.697595228E-1,1.336535212E0,-1.499953487E0,2.117726293E0
1.600073875E0,7.501318409E-1,-3.462996221E0,-3.360883663E0,4.883705519E0
1.610043875E0,6.571730988E-1,-1.736992300E0,-2.595320581E0,3.191348877E0
1.620013875E0,-2.179657808E-1,1.395511106E0,-1.011433237E0,1.737226963E0
1.629983875E0,-5.712806803E-1,1.960070302E0,2.367625326E-1,2.055308663E0
1.639953875E0,-7.515063751E-1,-1.879850596E-1,2.933649250E0,3.034204696E0
1.649922875E0,9.564238749E-1,-1.175956636E0,8.410944897E-1,1.733511056E0
1.659892875E0,1.645036063E0,-2.413281555E0,-1.046470338E-1,2.922502783E0
1.669862875E0,-4.354570235E-1,-1.039627049E0,-1.264535229E0,1.693958844E0
1.679832875E0,-2.578638183E-1,-8.214168549E-1,-1.982462799E0,2.161337120E0
1.689802875E0,2.758694052E-1,-2.864671401E0,3.497324932E-1,2.899096235E0
1.699771875E0,-1.035016374E0,-1.232547451E0,-4.007289845E-1,1.658618652E0
1.709741875E0,-1.394366367E0,-6.463009322E-1,3.814296645E0,4.112276907E0
1.719711875E0,1.161545296E0,-1.763451536E0,5.219021793E0,5.630021072E0
1.729681875E0,2.342518844E-2,2.161981675E-1,4.447419707E0,4.452733143E0
1.739651875E0,-1.442031553E-1,1.025899833E-1,-1.702037938E0,1.711213720E0
1.749620875E0,-2.585935800E0,-3.391278659E0,1.520966041E-1,4.267431110E0
1.759590875E0,-1.935251210E0,-3.886293411E-2,-1.298578303E0,2.330882491E0
1.769560875E0,-1.077746948E0,4.636818624E-1,-2.459043034E0,2.724597585E0
1.779530875E0,-1.491913565E0,-2.801067728E0,1.354197019E0,3.450454473E0
1.789500875E0,-4.552514199E-1,-1.252260462E0,1.209524040E0,1.799543976E0
1.799469875E0,6.049695229E-1,2.236287799E0,1.884649406E0,2.986448497E0
1.809439875E0,9.828209107E-1,1.006454333E0,2.092502720E0,2.521399393E0
1.819409875E0,1.967702088E-1,1.905247977E-1,2.633682994E0,2.647886766E0
1.829379875E0,1.002278617E0,2.498221718E0,1.883599831E0,3.285364896E0
1.839349875E0,2.112134308E0,2.484238687E0,-1.937205935E-1,3.266508970E0
1.849318875E0,6.688790052E-1,-1.459748617E0,3.902559196E0,4.219980263E0
1.859288875E0,2.183824680E0,-1.122811586E-2,1.851251864E-1,2.191686026E0
1.869258875E0,3.385170950E0,1.731443293E0,-3.423369348E-2,3.802426881E0
1.879228875E0,1.699882654E0,8.717768767E-1,-3.135957064E0,3.672032498E0
1.889198875E0,2.188063180E0,1.017795885E0,-9.614214170E-1,2.597664352E0
1.899168875E0,1.798455893E0,2.983442969E0,-1.928823366E0,3.981926057E0
1.909137875E0,1.826282792E-1,1.877060890E0,-3.968859605E0,4.394150343E0
1.919107875E0,8.556539105E-1,-1.008900808E0,-2.885002170E0,3.173840256E0
1.929077875E0,4.557388584E-1,-1.185396089E0,-1.214707596E0,1.757377688E0
1.939047875E0,-3.165993918E-1,-1.014370878E0,1.072077050E0,1.509480922E0
1.949017875E0,-3.510261896E-1,1.864228298E0,-1.660463065E0,2.521052185E0
1.958986875E0,1.744142422E0,1.479589974E0,4.184355229E-1,2.325146784E0
1.968956875E0,-7.754014604E-1,4.956804577E-1,-2.176871610E-1,9.456924663E-1
1.978926875E0,-7.893890235E-1,2.838691637E0,-1.450398334E0,3.284046371E0
1.988896875E0,1.048645722E0,5.018170520E0,-1.274187813E0,5.282541794E0
1.998866875E0,1.165183068E-1,-6.291677132E-1,-6.772449821E0,6.802610169E0
2.008835875E0,1.914760082E0,-1.535163081E-1,-3.204229154E0,3.735901216E0
2.018805875E0,6.555998323E-1,-3.219550028E-1,7.030534810E0,7.068372223E0
2.028775875E0,-2.129488405E0,-1.824644402E0,6.564412905E0,7.138316668E0
2.038745875E0,-9.215777586E-1,1.555308493E0,2.002286029E0,2.697672963E0
2.048715875E0,-2.069625927E0,3.948950712E0,-6.555007074E0,7.927526786E0
2.058684875E0,-1.222896110E0,8.781640828E-3,-8.916356583E0,8.999831484E0
2.068654875E0,-1.140630391E0,-3.875234280E0,-4.498895670E0,6.046365906E0
2.078624875E0,-6.044333332E-1,-3.890869735E0,5.996489221E-1,3.982936828E0
2.088594875E0,-1.529940640E0,-4.804723760E0,4.104507991E0,6.501774728E0
2.098564875E0,-1.402412867E0,-9.364058590E-1,5.304760101E0,5.566336094E0
2.108533875E0,-7.591820151E-1,1.028629606E0,1.718403125E-1,1.289947786E0
2.118503875E0,-1.305819495E0,-1.345669147E0,1.505606575E0,2.404753868E0
2.128473875E0,-6.273561727E-1,-3.351550629E0,3.741494132E0,5.062138454E0
2.138443875E0,-1.511685048E0,-9.624967200E-1,9.811931920E-1,2.043118132E0
2.148413875E0,-1.122951115E0,1.074364773E0,1.829274520E0,2.400317508E0
2.158383875E0,-2.951239429E0,-3.010864071E0,4.273541640E0,6.003188717E0
2.168352875E0,-7.858371323E-1,-1.246616729E0,2.914569785E0,3.265931766E0
2.178322875E0,7.901266497E-1,-1.761661703E0,6.725089129E0,6.996754667E0
2.188292875E0,-3.813103447E-1,1.573655009E0,4.579266819E0,4.857105338E0
2.198262875E0,2.465507716E-2,5.895858639E-1,-1.965921611E-1,6.219870108E-1
2.208232875E0,5.137588790E-1,-1.744002235E0,-5.439941295E0,5.735717328E0
2.218201875E0,-5.918338626E-1,-7.840332663E-1,-7.294765808E0,7.360610279E0
2.228171875E0,-5.783858878E-1,-2.492637627E0,-8.926833624E0,9.286341106E0
2.238142583E0,9.432433006E-1,-4.295494719E0,-6.728899759E0,8.038599055E0
2.248112583E0,1.780925648E0,-4.261767102E0,1.605926085E-1,4.621703688E0
2.258082583E0,1.277287568E0,-2.017971478E0,1.046190724E1,1.073103795E1
2.268051583E0,8.076430075E-1,4.300336798E0,2.346043253E0,4.964786274E0
2.278021583E0,2.382403067E-1,8.678455598E0,3.261757570E0,9.274233793E0
2.287991583E0,-2.313328447E-1,5.596962424E0,-7.476951599E-1,5.651420292E0
2.297961583E0,-5.284779653E-1,-1.177696475E-1,-2.779590905E-2,5.421542790E-1
2.307931583E0,-1.254243253E0,-4.924620332E0,-1.541461701E0,5.310472270E0
2.317900583E0,-2.792972258E0,-3.700335289E0,-4.683751885E0,6.590197797E0
2.327870583E0,-1.089402350E0,4.326837549E0,-3.965951784E0,5.969681249E0
2.337840583E0,-4.711868733E-1,4.497151446E0,-2.084487357E0,4.979103909E0
2.347810583E0,-1.024611253E0,5.031709163E0,2.506145280E0,5.713903175E0
2.357780583E0,-1.426150223E0,2.924916725E0,5.387602283E0,6.294068689E0
2.367749583E0,-1.331360426E0,1.637310722E0,2.578768283E0,3.332169390E0
2.377719583E0,-5.483751266E-1,4.376369605E0,-6.384440285E0,7.759794066E0
2.387689583E0,1.374968375E0,8.185066956E-1,-6.277215214E0,6.477956629E0
2.397659583E0,7.808566202E-1,-3.305657880E0,-1.457483990E0,3.696129146E0
2.407629583E0,2.293461874E0,7.548530290E-1,3.328799406E0,4.112259226E0
2.417598583E0,2.867889416E0,4.311099476E0,3.372153001E0,6.179141061E0
2.427568583E0,2.023077997E0,2.984786659E0,2.357838256E0,4.308270793E0
2.437538583E0,2.492977350E0,3.002934662E0,-1.830574940E0,4.310865025E0
2.447508583E0,3.050662268E0,-1.634331858E0,-5.121032399E0,6.180821444E0
2.457478583E0,3.381718169E0,-7.463533409E0,-4.159356043E0,9.189156186E0
2.467447583E0,2.418039873E0,-4.906039050E0,9.263650203E-1,5.547457809E0
2.477417583E0,1.659946463E0,-1.443711458E0,4.082351722E0,4.637382949E0
2.487387583E0,-6.471578416E-1,3.711315190E0,5.275247449E0,6.482353690E0
2.497357583E0,1.780534907E-1,3.218890170E0,4.400449024E0,5.454989329E0
2.507327583E0,7.993693435E-1,2.728713112E0,-5.580062217E-1,2.897626190E0
2.517296583E0,-9.298232098E-1,-1.174837187E-1,-1.740570504E0,1.976855914E0
2.527266583E0,-1.880670668E-1,-1.599798787E0,-1.899498995E0,2.490546489E0
2.537236583E0,5.873937428E-1,-2.076596539E0,-6.281383109E-1,2.247630382E0
2.547206583E0,-2.591519891E0,-5.400783661E-1,-7.585453702E0,8.034100314E0
2.557176583E0,-1.764114318E0,-1.112775425E0,-4.770020535E0,5.206098767E0
2.567145583E0,9.059339717E-1,-1.673183390E0,2.106019143E0,2.838234601E0
2.577115583E0,1.966472126E0,-5.136819881E0,2.445156482E0,6.019362203E0
2.587085583E0,2.949045846E0,2.281492331E0,3.328863725E0,4.998340960E0
2.597055583E0,4.742933528E-1,3.020257038E0,6.264755382E0,6.970944467E0
2.607025583E0,3.197382868E-1,2.831151652E-1,2.086412260E0,2.129672014E0
2.616994583E0,1.206212469E0,-8.699323726E-1,3.605525318E0,3.900197902E0
2.626964583E0,5.055080923E-1,-1.173853978E0,8.601803863E-1,1.540578427E0
2.636934583E0,-4.720605569E-1,-2.401206470E0,-7.391886306E-1,2.556371161E0
2.646904583E0,-8.439247613E-1,-6.913978752E-1,-1.645826899E0,1.974585072E0
2.656874583E0,-6.089308653E-1,-5.435633066E-1,-6.348815539E0,6.401071521E0
2.666844583E0,5.991465001E-1,-4.410243695E0,2.049312846E0,4.899888684E0
2.676813583E0,2.162703221E0,-3.899359015E0,5.540054398E0,7.111574276E0
2.686783583E0,-6.046875409E-1,-4.272835296E-1,2.271526921E0,2.389153154E0
2.696753583E0,-4.270847243E-1,1.858775477E0,6.879804701E-1,2.027502099E0
2.706723583E0,2.196752143E0,-5.571765018E-1,-2.100804012E0,3.090233507E0
2.716693583E0,1.544317920E0,-9.820661813E-2,-3.400859907E0,3.736363270E0
2.726662583E0,1.432956967E0,3.270164989E0,-2.549720485E0,4.387302050E0
2.736632583E0,9.771219950E-1,3.960291095E0,1.474430391E0,4.337351487E0
2.746602583E0,2.984806247E0,6.270203233E-2,4.267391539E-1,3.015809374E0
2.756572583E0,1.368249340E0,-4.113704492E0,1.449655153E0,4.571232981E0
2.766542583E0,-8.744145557E-3,-3.160968237E0,3.595074590E0,4.787103295E0
2.776511583E0,1.385071048E0,1.474478045E0,4.330909842E0,4.780092821E0
2.786481583E0,2.373402667E0,3.572446450E0,8.419090068E-1,4.370837979E0
2.796451583E0,3.397117396E0,1.751087599E0,-3.264623290E0,5.026378379E0
2.806421583E0,-9.915737540E-2,1.737048141E0,-8.877633982E0,9.046521627E0
2.816391583E0,-2.371651426E0,1.355229637E0,-4.790009826E0,5.514124771E0
2.826360583E0,-1.876835772E0,3.023991655E0,-2.425978784E0,4.307250992E0
2.836330583E0,-5.794472305E-1,3.494660648E0,-4.382306868E0,5.634982309E0
2.846300583E0,1.274451815E-1,1.749150708E-1,1.296795487E-2,2.168080352E-1
2.856270583E0,-1.944048054E0,2.414753884E-1,9.172466968E0,9.379327453E0
2.866240583E0,-6.893738616E-1,7.283727434E-1,8.696510630E0,8.754145322E0
2.876209583E0,4.520490607E0,3.480415076E0,1.217790248E0,5.833621304E0
2.886179583E0,4.238857711E0,4.032255117E0,-4.425337697E0,7.335571536E0
2.896149583E0,2.032653105E0,-9.774015650E-1,-2.329636551E0,3.242560551E0
2.906119583E0,-3.926762722E-1,-7.362097666E-1,-6.324827337E0,6.379626973E0
2.916089583E0,1.281932450E0,-2.207715965E0,-1.819613165E0,3.135020360E0
2.926058583E0,-1.674373006E0,-2.408321362E0,2.040344971E0,3.573030136E0
2.936028583E0,-5.796110988E-1,-2.426416156E-1,3.428351176E0,3.485457755E0
2.945998583E0,1.302371100E0,-3.315733802E0,4.405982829E0,5.665946154E0
2.955968583E0,-1.311582219E0,-3.255313061E0,-2.764298097E0,4.467511053E0
2.965938583E0,-8.448320299E-2,-9.798787379E-1,-3.586094436E0,3.718517589E0
2.975907583E0,3.401305611E-1,-2.305965560E0,3.246010433E0,3.996216923E0
2.985877583E0,8.989406287E-1,-1.656334054E0,3.990045236E0,4.412708662E0
2.995847583E0,6.886086803E-1,-7.448645228E-1,5.072305212E0,5.172744459E0
3.005817583E0,-9.611070561E-1,-1.191170507E0,5.789607714E0,5.988503272E0
3.015787583E0,-2.126601050E0,2.223289731E-1,3.264412206E0,3.902338946E0
3.025756583E0,-1.568197510E0,-1.626134354E0,-6.620223409E-1,2.354109162E0
3.035726583E0,-1.331837851E0,-1.619368833E0,-6.394433177E0,6.729407339E0
3.045696583E0,-1.226591331E0,-3.442738250E-1,-1.065494956E1,1.073084344E1
3.055666583E0,3.001351675E-1,-1.466439293E0,8.944368839E-2,1.499508417E0
3.065636583E0,1.624789787E0,-1.372020209E0,5.074758119E0,5.502322353E0
3.075605583E0,-1.506192466E0,1.120912702E0,3.520896812E0,3.990209943E0
3.085575583E0,-2.603692625E0,2.899249203E0,4.490205538E-1,3.922560475E0
3.095545583E0,-2.201041076E0,8.957630324E-1,2.306525431E0,3.311651067E0
3.105515583E0,2.078947704E0,1.625283292E-1,-9.740549111E-1,2.301569461E0
3.115485583E0,1.968663662E0,-1.045803171E0,-2.379020965E0,3.260227237E0
3.125454583E0,-3.508800823E-1,-2.359794442E0,1.386230405E0,2.759235651E0
3.135424583E0,-2.128811152E-1,1.419288808E0,9.674458033E-1,1.730794752E0
3.145394583E0,-1.972488765E-1,3.245823030E0,-4.263266913E0,5.361876447E0
3.155364583E0,7.141083878E-1,1.714067122E0,-3.759550334E0,4.193112878E0
3.165334583E0,1.918179241E0,-1.754352099E0,1.043207592E-1,2.601546792E0
3.175303583E0,1.030532071E0,-7.251620373E-1,1.908905995E0,2.287308118E0
3.185273583E0,6.736843202E-1,-5.522420365E-1,3.009763041E0,3.133288271E0
3.195243583E0,-1.159190111E0,-1.453168745E0,-2.446263360E0,3.072397360E0
3.205213583E0,-1.416009397E0,-1.600796907E0,1.678139198E-1,2.143780507E0
3.215183583E0,-3.063288453E0,8.161473441E-1,3.825926757E-1,3.193150449E0
3.225152583E0,-2.414581099E0,4.488401965E0,-1.504214353E0,5.314001778E0
3.235122583E0,-2.791999866E0,8.939094651E-1,-1.937243357E0,3.513865280E0
3.245091708E0,-5.260793278E-1,-8.441563842E-1,-3.090565714E0,3.246683830E0
3.255061708E0,4.417999442E0,-3.927374487E0,8.183330333E-1,5.967634236E0
3.265031708E0,1.522867702E0,-3.706481590E0,6.255708570E0,7.429065993E0
3.275000708E0,2.673556034E-1,2.712127192E0,7.151365768E0,7.653048103E0
3.284970708E0,-1.733732332E-1,1.964981086E0,4.277365719E0,4.710314898E0
3.294940708E0,2.671332046E0,3.490379317E0,-3.043440664E0,5.346147561E0
3.304910708E0,6.266189704E0,3.898645070E0,-6.792166632E0,1.002986014E1
3.314880708E0,4.579845108E0,1.437010549E0,-7.913483085E0,9.255441376E0
3.324850708E0,3.027686803E0,1.700297514E0,-9.624193028E0,1.023147059E1
3.334819708E0,1.034721674E0,-3.413268575E0,-4.072843564E0,5.413788508E0
3.344789708E0,-1.200081444E0,-7.481142883E0,1.105316716E1,1.340075366E1
3.354759708E0,-5.501583812E-1,3.027737966E-1,1.620807482E1,1.622023538E1
3.364729708E0,2.411620654E0,4.668460539E0,2.071034667E0,5.647975086E0
3.374698708E0,2.091654581E0,-4.006585255E-1,-7.465617356E0,7.763439228E0
3.384668708E0,-4.923680100E-1,-2.898797798E0,-7.454489520E0,8.013418056E0
3.394638708E0,-1.494058616E-2,-4.749122294E0,-2.342427335E0,5.295408540E0
3.404608708E0,2.655659461E0,-2.863863608E0,7.763383305E-1,3.982077742E0
3.414578708E0,-9.591914351E-1,-9.194802162E-1,1.217577994E0,1.802217592E0
3.424548708E0,1.046014401E0,6.355780157E-1,-2.623709398E0,2.895160884E0
3.434517708E0,-3.518618298E-1,-8.631908253E-1,2.947575563E0,3.091457075E0
3.444487708E0,-5.367898920E-1,-2.668683257E0,3.593968297E0,4.508505499E0
3.454457708E0,9.160174220E-1,-1.785564536E0,9.794743445E0,9.998216230E0
3.464427708E0,-4.687866278E-1,1.412458383E0,3.964022203E0,4.234178977E0
3.474397708E0,1.417231173E0,2.481733447E0,1.110374558E-1,2.860047974E0
3.484366708E0,4.121429833E0,-1.087313139E-1,-1.805704978E0,4.500952881E0
3.494336708E0,-3.340894371E-2,-1.119260864E0,-5.621186269E0,5.731631191E0
3.504306708E0,1.205814639E0,1.097845729E0,-5.645000809E0,5.875822353E0
3.514276708E0,1.892955668E0,2.100720689E0,-4.367074286E0,5.202657628E0
3.524246708E0,-5.119102818E-1,-3.652757665E0,4.408554434E0,5.748046876E0
3.534215708E0,1.263743224E0,-3.949290143E0,1.022577329E1,1.103450855E1
3.544185708E0,3.976013819E-1,1.557113528E-1,6.667901605E0,6.681560050E0
3.554155708E0,1.511961329E0,-2.443449095E-1,-5.801022649E-2,1.532676313E0
3.564125708E0,8.778701140E-1,1.194527101E0,-2.334405540E0,2.765320986E0
3.574095708E0,-1.418699263E0,4.084280133E-2,8.823612142E-1,1.671208259E0
3.584064708E0,2.553472059E0,4.192597757E0,-4.744557665E0,6.827072794E0
3.594034708E0,1.451204081E0,4.137937400E0,-9.134771723E-1,4.479169538E0
3.604004708E0,1.735772279E-1,3.454532084E-1,1.882912783E0,1.922193414E0
3.613974708E0,3.394033136E-1,-4.416173649E0,3.539576912E0,5.669778569E0
3.623944708E0,-1.374058841E0,-1.520616378E0,-6.030177954E0,6.368936962E0
3.633913708E0,8.829650854E-1,3.267379668E0,-7.419328458E0,8.154865542E0
3.643883708E0,1.167154676E-1,1.364974314E0,-1.141334980E0,1.783093636E0
3.653853708E0,-1.944396256E0,-1.733348608E0,1.670732530E0,3.094595512E0
3.663823708E0,1.002392930E0,-2.408221082E0,1.139832830E-1,2.610998383E0
3.673793708E0,1.685466782E0,1.673777175E0,-1.902619654E0,3.043401034E0
3.683762708E0,-7.373603524E-1,4.140481816E0,-1.813927917E0,4.580133671E0
3.693732708E0,1.128475491E0,2.722520033E0,3.436581717E0,4.527213951E0
3.703702708E0,-1.546561935E0,2.747773865E0,4.519236379E0,5.510500203E0
3.713672708E0,-3.092075465E0,2.040893148E0,2.622590241E0,4.539180002E0
3.723642708E0,-8.760079951E-1,1.047143353E0,-3.314509980E0,3.584672316E0
3.733612708E0,-4.148461365E-1,-2.783977778E0,-2.165618643E0,3.551412915E0
3.743581708E0,-4.242295581E0,-2.464520998E0,-3.184069124E0,5.848865850E0
3.753551708E0,-4.460124537E-2,9.249701670E-1,1.769851021E0,1.997481344E0
3.763521708E0,-8.327972907E-1,1.716141422E0,-1.665871739E0,2.532552341E0
3.773491708E0,7.740161819E-1,-9.590401384E-1,-1.110331289E0,1.658823260E0
3.783461708E0,3.040365321E0,-3.911404279E0,8.460960225E0,9.804629144E0
3.793430708E0,4.651438124E-2,-3.982476600E0,4.611407794E0,6.093222899E0
3.803400708E0,1.352521499E0,-5.028690246E-1,-1.769394354E0,2.283188131E0
3.813370708E0,-1.251862266E0,-3.268754348E-1,-2.644891521E0,2.944394308E0
3.823340708E0,-3.393216719E0,-3.759463211E0,-4.971922553E-1,5.088681899E0
3.833310708E0,-8.038975735E-1,-3.039034494E0,2.230518059E0,3.854502922E0
3.843279708E0,-7.534007999E-1,-3.116910344E0,5.486244811E0,6.354653805E0
3.853249708E0,-3.343733925E-1,-6.644188222E-1,5.488291921E0,5.538466046E0
3.863219708E0,-2.135955864E0,1.066845838E0,3.339449524E0,4.105166333E0
3.873189708E0,-2.311623472E0,-2.101946265E0,6.349559889E0,7.076629987E0
3.883159708E0,-3.496307516E-1,-8.866337746E-1,-2.250275216E0,2.443787974E0
3.893128708E0,8.393941194E-1,1.560527133E0,-7.681883644E0,7.883600937E0
3.903098708E0,9.101306646E-1,6.118888986E-1,-9.534680343E0,9.597545264E0
3.913068708E0,6.843592894E-1,-4.295497935E0,-7.145550127E0,8.365317493E0
3.923038708E0,1.000810893E0,-4.233436173E0,-1.794680053E-1,4.353827401E0
3.933008708E0,-1.686084979E0,5.871837108E0,2.018429022E0,6.433926429E0
3.942978708E0,-1.464852944E0,7.358000522E0,2.553957962E0,7.925191928E0
3.952947708E0,-6.582647739E-1,1.386106152E0,1.506951435E0,2.150698817E0
3.962917708E0,-1.283500673E0,-5.526297069E0,1.202918440E-1,5.674663285E0
3.972887708E0,8.851459506E-1,-4.559791498E0,9.596672523E-1,4.743009919E0
3.982857708E0,-9.898210511E-2,1.004555450E0,-5.588702062E0,5.679130202E0
3.992827708E0,-6.597452889E-1,4.053280242E0,-3.414730672E0,5.340854813E0
4.002796708E0,-2.172242077E0,5.790699390E-1,4.593905908E-1,2.294558203E0
4.012766708E0,1.739782372E-1,-2.644379305E0,2.201383138E0,3.445155738E0
4.022736708E0,1.421839510E0,-4.592268687E-1,1.300158221E0,1.980638359E0
4.032706708E0,2.402451196E0,8.190677360E-1,6.727761306E0,7.190647808E0
4.042676708E0,1.731771906E0,1.728590436E0,4.353467231E0,4.993969940E0
4.052645708E0,1.092655302E0,2.305850662E0,-2.480268427E0,3.558451117E0
4.062615708E0,9.759600802E-1,5.849887830E-1,-6.558442898E0,6.656416694E0
4.072585708E0,1.208537322E0,3.467552371E0,-4.356628236E0,5.697779523E0
4.082555708E0,2.788409383E0,2.713382882E-1,-4.391071844E-1,2.835783220E0
4.092525708E0,2.857067974E0,-3.028565347E-1,8.145181344E0,8.637044553E0
4.102494708E0,2.079528625E0,5.511535188E0,4.822642552E0,7.613103219E0
4.112464708E0,1.243973057E0,-1.868811638E0,-8.963126707E-1,2.417292350E0
4.122434708E0,4.372796372E-2,-2.040151136E0,-2.002665514E0,2.859160358E0
4.132404708E0,1.349172506E0,6.521677360E-1,-3.530087466E0,3.834984579E0
4.142374708E0,-3.899433859E0,1.293073735E-1,-5.600141555E0,6.825239209E0
4.152344708E0,-1.927098145E0,1.698241925E-1,-2.919289073E0,3.502113106E0
4.162313708E0,1.179963002E-1,1.163537443E0,1.864235022E0,2.200707778E0
4.172283708E0,2.246222511E0,-3.341020671E0,7.591202100E0,8.592687823E0
4.182253708E0,1.676059197E0,-1.026655001E0,7.828767455E0,8.071728117E0
4.192223708E0,6.018431263E-1,-1.909554452E-2,2.092148963E0,2.177077645E0
4.202193708E0,9.303884163E-1,3.817734808E-2,3.829768378E-1,1.006852210E0
4.212162708E0,-2.358119800E0,-8.747136408E-1,-3.485037008E0,4.297829207E0
4.222132708E0,2.770820081E-1,-3.406722325E0,-2.503475441E0,4.236734677E0
4.232102708E0,3.190962406E0,-3.159089819E-1,-1.205757263E0,3.425768548E0
4.242072333E0,1.649492227E0,-1.947103224E0,1.001540333E0,2.741371666E0
4.252042333E0,-4.022851478E-2,4.298148185E0,-1.599808728E0,4.586402089E0
4.262011333E0,-6.450386645E-1,2.157926339E0,-4.643804877E0,5.161166990E0
4.271981333E0,6.550974834E-1,-2.118922779E-1,-2.941968083E0,3.021461112E0
4.281951333E0,1.803228682E0,-5.238638617E0,8.584577381E0,1.021713938E1
4.291921333E0,-2.733513749E-1,-3.745338969E0,7.700391251E0,8.567281388E0
4.301891333E0,-7.163865361E-1,2.531934717E0,1.028497167E0,2.825191941E0
4.311861333E0,-3.354861615E0,1.772812636E0,-5.200724101E0,6.437817353E0
4.321830333E0,1.720240247E-1,1.583959265E0,-8.017953533E-1,1.783646547E0
4.331800333E0,1.181737778E0,-8.218235287E-1,-3.593918011E0,3.871452538E0
4.341770333E0,2.328077098E0,-5.204697284E0,-2.658544770E0,6.290999689E0
4.351740333E0,3.082754126E0,-2.453595183E0,-1.610496853E0,4.256430716E0
4.361710333E0,1.022119609E-1,-1.118542534E0,2.104464369E0,2.385446492E0
4.371679333E0,-1.120579703E0,-3.213305494E0,8.270055066E0,8.942865417E0
4.381649333E0,8.305165842E-1,2.912036186E-1,1.896149125E0,2.090439870E0
4.391619333E0,1.001257839E0,5.361402664E-1,2.595748597E0,2.833350389E0
4.401589333E0,-2.510071685E0,7.536254060E-1,-8.657703245E-1,2.760066915E0
4.411559333E0,-1.547498513E0,1.518276907E0,-3.573111863E0,4.179359377E0
4.421529333E0,-5.117928258E-1,2.986595787E0,-6.758397793E0,7.406593483E0
4.431498333E0,4.000253452E-1,-3.223770256E0,-5.013100984E0,5.973599955E0
4.441468333E0,3.069389730E0,-5.397694577E0,1.056590114E1,1.225538767E1
4.451438333E0,-1.888041376E0,3.063721731E-1,1.113305416E1,1.129617011E1
4.461408333E0,1.410383206E0,2.996760879E0,-1.544066051E0,3.654298363E0
4.471378333E0,-1.738929191E0,2.859009250E0,-8.251682530E0,8.904385054E0
4.481347333E0,-8.885104385E-1,2.112958619E-1,-2.910624669E0,3.050546296E0
4.491317333E0,-1.371924753E0,-3.559915282E0,2.989207154E0,4.846703390E0
4.501287333E0,5.526707470E-1,1.251445945E0,2.197025208E0,2.588142514E0
4.511257333E0,-5.702760921E-1,4.298301675E0,-2.608530611E0,5.060142691E0
4.521227333E0,-2.505995884E0,5.484356160E0,-3.586070462E0,7.015559794E0
4.531197333E0,-2.975831648E0,2.673279753E-1,-3.361604624E0,4.497490844E0
4.541166333E0,-1.176466514E0,-4.077792940E0,-5.673991889E-1,4.281869984E0
4.551136333E0,7.383784989E-1,-3.985124512E0,9.090175009E-1,4.153640933E0
4.561106333E0,1.082191490E0,-1.420703250E0,3.502536555E0,3.931577096E0
4.571076333E0,1.368827483E0,7.408539176E-2,3.768512946E0,4.010095654E0
4.581046333E0,3.611650862E0,3.492004550E0,-2.026462512E0,5.417071906E0
4.591015333E0,1.967253314E0,1.647654739E-1,-4.619445376E0,5.023595211E0
4.600985333E0,3.553745081E-1,-9.941196316E-1,-1.420250675E0,1.769654447E0
4.610955333E0,3.183164267E-1,7.883640066E-1,5.029365599E-1,9.878199926E-1
4.620925333E0,-1.145796259E0,-1.053853910E0,-2.050071815E0,2.574150651E0
4.630895333E0,8.277921472E-2,-3.266465163E-1,-3.098962315E0,3.117229183E0
4.640865333E0,8.410567752E-1,-2.513002310E0,8.880680966E-1,2.794856356E0
4.650834333E0,-2.764683794E-1,-6.040010047E0,4.715743756E0,7.667880757E0
4.660804333E0,-2.352272292E0,-1.633179664E0,2.481396940E0,3.789167656E0
4.670774333E0,-3.087540949E0,2.375944744E0,2.792929573E0,4.793587189E0
4.680744333E0,-1.924932629E0,4.530586994E0,-8.625344753E-1,4.997554388E0
4.690714333E0,2.370302327E0,1.027732936E-1,-3.241296993E0,4.016827314E0
4.700684333E0,-2.973064453E0,-5.361783317E0,-3.314622831E-1,6.139845261E0
4.710653333E0,-1.745299440E0,-5.016350867E0,1.091303279E0,5.422249441E0
4.720623333E0,-2.853804350E0,-3.746504904E0,-1.911566479E0,5.082773324E0
4.730593333E0,4.064337473E-2,6.392702401E-2,1.985032066E0,1.986476994E0
4.740563333E0,-1.578522377E-1,9.995458478E-1,-1.393371025E0,1.722060406E0
4.750533333E0,-2.565845571E-1,-3.219029626E-1,4.662874986E0,4.681010605E0
4.760502333E0,2.180509601E0,-3.540498433E0,1.190214078E1,1.260756544E1
4.770472333E0,7.669076487E-1,-1.609392022E0,7.328076811E0,7.541816742E0
4.780442333E0,1.239106273E0,3.996859289E0,2.760529566E0,5.013062140E0
4.790412333E0,4.705608192E-1,4.994773471E0,-2.448636160E0,5.582562902E0
4.800382333E0,1.385677843E0,2.533450900E0,-4.628744203E0,5.455616322E0
4.810352333E0,7.840902767E-1,-2.117753043E0,-7.541094385E0,7.871961639E0
4.820321333E0,2.616244550E-1,-1.978869100E0,-5.243273120E0,5.610372829E0
4.830291333E0,3.455638377E0,-8.121165660E-1,-1.771028650E0,3.967053364E0
4.840261333E0,-1.979051899E-1,-1.743258761E0,2.225364908E0,2.833790138E0
4.850231333E0,2.069561754E0,-2.477887441E0,2.255696170E0,3.938423191E0
4.860201333E0,4.185805339E-1,1.716261290E0,-1.241228228E0,2.159029873E0
4.870171333E0,-2.192750747E0,2.007040985E0,-3.593172491E-2,2.972820285E0
4.880140333E0,-4.903866444E-1,1.560724184E-1,1.518226621E0,1.603075086E0
4.890110333E0,1.630881124E0,1.933456700E0,-7.927660829E-1,2.650755763E0
4.900080333E0,3.843806811E-1,1.999684896E0,-2.604279100E0,3.305867182E0
4.910050333E0,1.741648000E0,2.113389851E0,-5.076370781E0,5.767954120E0
4.920020333E0,-8.450355130E-1,1.240411079E0,-5.209556905E0,5.421456244E0
4.929989333E0,-2.083919592E0,-1.323936508E0,1.578210282E-1,2.473951540E0
4.939959333E0,8.248413498E-1,-1.189130121E0,2.801150758E0,3.152909651E0
4.949929333E0,1.015319808E0,1.540625842E0,3.161093075E0,3.660179193E0
4.959899333E0,1.737522058E0,1.600262179E0,8.316015351E-1,2.504272960E0
4.969869333E0,5.514266422E-1,2.017368630E0,2.192598281E0,3.030071740E0
4.979839333E0,1.255999464E-1,2.668546725E0,-2.044414634E-1,2.679312091E0
4.989808333E0,2.558399507E0,2.421270898E0,-2.330847509E0,4.223838410E0
4.999778333E0,6.385551256E-1,1.879544787E0,-6.484434105E0,6.781469377E0
5.009748333E0,1.124380759E0,-4.031120172E0,-5.085165578E-1,4.215774072E0
5.019718333E0,-1.926417822E-1,-5.458721967E0,7.555355744E0,9.322990764E0
5.029688333E0,1.628463300E0,-3.153563323E0,5.748060324E0,6.755520101E0
5.039658333E0,8.079439929E-1,-5.998436344E-1,3.362802719E0,3.510132192E0
5.049628333E0,2.050187297E-1,1.916905571E0,2.212044951E0,2.934229458E0
5.059597333E0,-8.487980501E-1,9.636623624E-1,1.370541741E0,1.878160787E0
5.069567333E0,-1.443937746E0,-2.730843545E0,4.862379060E0,5.760659060E0
5.079537333E0,-4.426662384E-1,4.923528072E-1,-2.106975163E0,2.208553604E0
5.089507333E0,4.884420432E-2,9.227125570E-1,-2.038044677E0,2.237724363E0
5.099477333E0,-5.027101265E-1,-3.972424360E0,-2.438600584E0,4.688245468E0
5.109447333E0,-5.133869230E-1,-2.713474683E0,-3.665451093E0,4.589340116E0
5.119416333E0,8.477070328E-1,-1.462131357E0,-3.443530548E0,3.835927261E0
5.129386333E0,2.189262444E0,-4.425221922E0,3.989721301E0,6.347703141E0
5.139356333E0,9.756032538E-1,-4.304226951E0,2.518933141E0,5.081652833E0
5.149326333E0,2.596440908E0,-1.529071159E0,-4.464935042E0,5.386576735E0
5.159296333E0,3.330466155E0,6.336691922E-1,-2.904573385E0,4.464312713E0
5.169266333E0,-4.398321661E-1,2.031059301E0,-1.545178776E0,2.589639293E0
5.179235333E0,-7.245901065E-1,1.327725504E0,2.417476348E0,2.851679808E0
5.189205333E0,9.956627119E-1,6.191727751E-1,4.315400687E0,4.471845509E0
5.199175333E0,1.987445504E0,-3.982234526E-1,2.756060539E0,3.421168111E0
5.209145333E0,1.308699834E0,7.829722890E-1,-1.538099552E0,2.165985017E0
5.219115333E0,2.365406308E0,2.788113222E-1,-1.873470699E0,3.030309425E0
5.229085333E0,7.281629746E-1,-1.877126378E0,2.839577490E-1,2.033336362E0
5.239055583E0,5.900627775E-1,-1.601274040E0,-2.456161526E0,2.990816289E0
5.249024583E0,4.796332859E-1,3.931396786E0,-3.452645772E0,5.254207039E0
5.258994583E0,4.117722552E-1,2.039509404E0,6.070047194E-1,2.167396994E0
5.268964583E0,-1.328499091E0,1.002379116E0,1.081047848E0,1.984524672E0
5.278934583E0,-4.367107762E-1,1.063646534E-1,5.056877334E0,5.076813775E0
5.288904583E0,-1.632681482E-1,1.138809568E-1,-4.655734366E-1,5.063437423E-1
5.298874583E0,8.663017633E-1,-2.344526778E0,4.980447793E-1,2.548594349E0
5.308843583E0,1.347161064E0,1.844498915E0,-1.584332317E-1,2.289567704E0
5.318813583E0,-2.269756092E-1,4.180025366E0,-5.419776002E0,6.848218885E0
5.328783583E0,2.120484863E0,-2.032970755E0,-2.540897622E0,3.884016847E0
5.338753583E0,-4.714478418E-2,-1.728422621E0,1.504772177E0,2.292162013E0
5.348723583E0,2.906285742E0,4.160188394E0,2.081668414E0,5.485162502E0
5.358693583E0,3.419817749E0,9.448711655E-1,3.253452185E0,4.813822398E0
5.368663583E0,-3.086797037E-1,-2.388954799E0,-6.269858247E-1,2.489076017E0
5.378632583E0,1.537763630E-1,5.012028605E-2,1.476577488E0,1.485409133E0
5.388602583E0,9.818748312E-1,-8.433377740E-1,7.138625854E0,7.255017290E0
5.398572583E0,1.407136247E0,2.372133529E0,2.514347169E0,3.732156426E0
5.408542583E0,2.677956941E0,-2.899034902E-1,1.250875549E0,2.969879972E0
5.418512583E0,1.331708920E0,-8.032787919E-2,-3.324269568E0,3.581992375E0
5.428482583E0,1.441114125E0,-1.071836144E0,-4.463867925E0,4.811627531E0
5.438451583E0,-9.125998706E-1,-8.614463085E-1,-1.015389463E0,1.614293662E0
5.448421583E0,-1.070515551E0,-2.559254078E0,-3.305511700E0,4.315343854E0
5.458391583E0,1.583031312E-2,-1.811496353E0,-3.875299476E0,4.277816694E0
5.468361583E0,-1.237725161E0,-4.653037338E0,1.049320271E0,4.927858873E0
5.478331583E0,-2.622923240E0,-2.731860376E0,4.672426413E0,6.014512118E0
5.488301583E0,5.922827460E-2,1.413971058E0,2.610792899E0,2.969690506E0
5.498271583E0,3.416502524E-1,9.138113406E-1,2.012231559E0,2.236258461E0
5.508240583E0,2.327402329E-1,-4.064300197E-1,-1.577691050E0,1.645740692E0
5.518210583E0,1.342572462E0,-9.537063083E-1,-2.373172579E0,2.888599077E0
5.528180583E0,-1.729417817E0,-1.658021268E0,-2.250932443E0,3.287341992E0
5.538150583E0,-1.285822749E0,-8.880213189E-1,1.354040898E0,2.067691650E0
5.548120583E0,6.302794151E-1,-1.091307665E0,4.326336735E0,4.506150697E0
5.558090583E0,-2.366496229E0,-7.286697820E-1,1.264835191E0,2.780480554E0
5.568060583E0,-1.195765103E-1,1.494003360E0,-3.723522130E0,4.013846240E0
5.578029583E0,-2.125591528E-1,1.327040210E0,1.272301501E-1,1.349964675E0
5.587999583E0,5.976390879E-1,3.187370754E0,8.271050262E-1,3.346730872E0
5.597969583E0,3.337359729E-1,-4.517693299E-1,2.418940490E-1,6.115455486E-1
5.607939583E0,-1.176162824E0,-2.070484152E0,4.019502924E0,4.671901901E0
5.617909583E0,8.924374285E-1,5.350240329E-1,-4.193231302E-1,1.121840972E0
5.627879583E0,1.297632809E0,-4.749690351E-1,2.710594345E0,3.042493746E0
5.637849583E0,-3.329689644E-1,-6.657785922E-1,8.481965178E-1,1.128524168E0
5.647818583E0,1.327384465E-1,-1.861882102E0,1.006463689E-1,1.869319168E0
5.657788583E0,1.614859607E0,-5.113887101E-2,-3.371305740E-1,1.650467739E0
5.667758583E0,-1.706542779E-1,2.606309838E0,-1.307206455E0,2.920746920E0
5.677728583E0,2.369068492E-1,-6.311776936E-2,-3.007287329E0,3.017264620E0
5.687698583E0,-3.281294433E-1,-7.562741947E-1,-3.199892274E0,3.304380450E0
5.697668583E0,-1.154402191E0,-6.510643664E-1,-1.039740193E-1,1.329413339E0
5.707637583E0,-6.653377853E-1,-3.224602023E-1,4.437354895E0,4.498530139E0
5.717607583E0,-1.569301172E0,-1.200869283E0,8.368346761E0,8.598489444E0
5.727577583E0,-1.488372492E0,3.830085004E0,1.990395716E0,4.565794446E0
5.737547583E0,-5.094754646E-1,2.114294708E0,-2.902601704E0,3.626968984E0
5.747517583E0,-1.868941592E0,-1.749612346E0,-3.625791768E0,4.438519120E0
5.757487583E0,-2.071368288E-1,2.987887437E0,-9.358328319E0,9.825919088E0
5.767457583E0,-7.032802945E-1,2.644989755E0,-8.100310981E0,8.550181984E0
5.777426583E0,-1.153836035E0,-1.569682411E0,-3.628170415E0,4.118113771E0
5.787396583E0,-6.374868393E-1,-9.149939400E-1,4.220089318E0,4.364946418E0
5.797366583E0,-1.948341518E0,2.071270018E0,3.782380203E0,4.732081377E0
5.807336583E0,1.713714754E-1,1.691208017E0,4.358515132E0,4.678269648E0
5.817306583E0,-2.938429970E-1,-2.717229765E0,6.444594101E0,7.000176742E0
5.827276583E0,7.724456198E-1,7.602783680E-2,2.808224720E-1,8.254173055E-1
5.837246583E0,4.088944384E-1,1.455000970E0,-3.699105912E0,3.995948827E0
5.847215583E0,-7.684789966E-2,-1.679238474E0,3.664040744E-1,1.720464879E0
5.857185583E0,-1.373426318E0,6.243048763E-1,-6.313678451E0,6.491424498E0
5.867155583E0,-2.890552420E-1,-1.968013452E0,-2.864766710E0,3.487623573E0
5.877125583E0,-3.702940443E-1,-1.824584176E0,2.219721760E0,2.897134755E0
5.887095583E0,-6.539144455E-1,3.131914884E-1,5.323945400E0,5.373089208E0
5.897065583E0,2.873835450E0,-2.468545344E-1,5.720166181E0,6.406260102E0
5.907035583E0,-7.442594822E-1,3.224317263E0,-4.307950165E0,5.432179914E0
5.917004583E0,-4.064612292E-1,-3.859135433E0,-2.968686935E0,4.885820212E0
5.926974583E0,5.605931760E-1,-2.823614884E0,1.142565819E0,3.097179745E0
5.936944583E0,-2.924900061E0,-7.620313632E-1,9.950967014E-1,3.182129729E0
5.946914583E0,-2.960996750E-1,-1.736721867E0,1.346145988E0,2.217202490E0
5.956884583E0,-3.415467713E0,4.896908623E-1,-1.428018701E-1,3.453347537E0
5.966854583E0,-3.949404164E0,-3.169585571E0,-7.457632399E-1,5.118615902E0
5.976824583E0,-1.739728213E0,-5.274876151E0,1.891624550E0,5.867641443E0
5.986793583E0,-1.616576240E-1,-4.869242522E0,8.696359187E-1,4.948931456E0
5.996763583E0,1.404652862E-1,-1.604961879E0,9.131538212E-2,1.613682629E0
6.006733583E0,-2.498629452E-1,1.771911580E0,7.509234077E-1,1.940615393E0
6.016703583E0,1.798956743E-1,8.215209353E-1,2.024486153E0,2.192214242E0
6.026673583E0,1.885890916E0,2.302720355E0,2.752279730E0,4.053905437E0
6.036643583E0,1.501102319E0,1.456176553E0,1.195986566E0,2.409178738E0
6.046612583E0,5.029160947E-1,1.374532465E0,-2.326287850E0,2.748432145E0
6.056582583E0,6.297392055E-1,-6.199530861E-1,-1.374286298E0,1.633883755E0
6.066552583E0,1.380234816E0,-1.342003235E0,-1.288493026E0,2.316513568E0
6.076522583E0,8.216652153E-1,-1.425524279E0,-2.074067034E0,2.647452975E0
6.086492583E0,1.280210737E0,-4.118193984E-2,-4.354860038E-1,1.352879722E0
6.096462583E0,-1.022329670E0,-8.325271493E-1,1.412114275E-1,1.325971370E0
6.106432583E0,-1.546970656E0,2.728923904E0,-1.525623348E0,3.488218813E0
6.116401583E0,-2.219619726E0,2.582447351E0,1.886625765E0,3.892955539E0
6.126371583E0,-1.378140344E0,9.654054174E-1,-9.497743481E-1,1.932187811E0
6.136341583E0,2.271991190E0,3.922446746E-1,-3.776748165E0,4.424887180E0
6.146311583E0,-2.566653218E-1,2.799945355E0,-1.019988298E0,2.990977634E0
6.156281583E0,-1.861658593E0,-2.219322395E-1,1.662751665E0,2.505946874E0
6.166251583E0,-1.011449171E0,-1.000003100E0,4.893199149E0,5.095726988E0
6.176221583E0,-4.329184548E-1,4.150192287E0,-2.373016459E-1,4.179452892E0
6.186190583E0,-4.852224932E-1,4.185286106E0,-2.600922214E0,4.951449991E0
6.196160583E0,6.185265847E-1,-1.984763094E0,-1.852439434E0,2.784491252E0
6.206130583E0,-5.959289966E-1,-2.100025455E0,-5.773967582E0,6.172838887E0
6.216100583E0,8.267732698E-1,-2.216536197E-1,-2.058995835E0,2.229831432E0
6.226070583E0,-2.383357260E-1,-2.217353053E0,5.060082777E0,5.529728401E0
6.236040583E0,2.366607179E-1,-3.481098908E0,6.057449952E0,6.990476223E0
6.246011208E0,1.479813191E0,1.749236370E0,5.183670697E0,5.667461235E0
6.255980208E0,6.826103872E-1,-1.661562634E0,2.418336473E0,3.012490435E0
6.265950208E0,1.495556527E0,-3.311469428E0,-6.360273743E-1,3.688773498E0
6.275920208E0,1.049986342E-1,1.243714464E0,-1.936878490E0,2.304202393E0
6.285890208E0,-6.373588584E-1,-2.059631135E0,-4.210018074E0,4.729963944E0
6.295860208E0,-4.497625655E-1,-1.421255519E0,-2.447266157E0,2.865547986E0
6.305830208E0,-2.355298226E0,-1.454722350E0,-4.531490974E0,5.310184300E0
6.315800208E0,-1.884460395E-1,-1.143523593E0,-4.217093790E-1,1.233287038E0
6.325769208E0,9.799180605E-1,-8.726858264E-1,5.989345677E0,6.131401276E0
6.335739208E0,-1.965216436E0,-1.478438365E0,3.924614893E0,4.631463883E0
6.345709208E0,-1.200307074E0,8.935253030E-1,5.597826058E-1,1.597648617E0
6.355679208E0,2.572438307E-1,1.107921066E0,-1.532448218E0,1.908418460E0
6.365649208E0,4.269575474E-1,-7.480801991E-1,1.687052109E0,1.894217925E0
6.375619208E0,6.042563087E-1,-4.903258699E-1,-2.536608104E0,2.653285853E0
6.385589208E0,1.400443524E0,-3.037541408E0,-1.867083201E0,3.830652627E0
6.395558208E0,3.477447322E-1,1.307740890E0,-1.531423202E0,2.043616808E0
6.405528208E0,1.036252183E0,3.286569060E0,1.242752012E0,3.663302791E0
6.415498208E0,-1.295003901E0,-4.669615656E-2,3.544760469E0,3.774194273E0
6.425468208E0,-7.478033334E-2,-3.977452965E0,3.784971104E0,5.491059137E0
6.435438208E0,-6.855623540E-1,-1.830807952E0,-7.421350425E-1,2.091080563E0
6.445408208E0,7.752241436E-1,2.463812316E0,-2.444831961E0,3.556479568E0
6.455378208E0,2.554081339E0,2.292333946E0,-1.335223389E0,3.682519233E0
6.465347208E0,-6.131288007E-2,3.689907657E0,-2.454002734E0,4.431851442E0
6.475317208E0,1.365695276E0,-1.096987650E0,3.790041225E0,4.175274599E0
6.485287208E0,-7.516958249E-1,-2.364690024E0,6.636134267E0,7.084848872E0
6.495257208E0,1.005304478E0,9.978954712E-1,2.764424981E0,3.106199920E0
6.505227208E0,3.325214478E0,1.934030896E0,-2.688222313E-1,3.856136956E0
6.515197208E0,3.139575321E0,-8.460885966E-1,-2.402844275E0,4.043075527E0
6.525167208E0,2.858746417E0,-2.106172048E0,-7.028528631E-2,3.551525277E0
6.535136208E0,1.298698464E0,1.541698806E0,2.823197685E0,3.468990931E0
6.545106208E0,5.268374924E-1,4.654332789E0,3.531636393E0,5.866244716E0
6.555076208E0,5.612377585E-1,3.555148632E0,2.795565498E-1,3.610016826E0
6.565046208E0,-1.569052812E0,2.763029251E0,1.222337043E-1,3.179811071E0
6.575016208E0,4.770858733E-1,1.355136959E0,-2.752128287E0,3.104547828E0
6.584986208E0,-7.325859547E-1,2.947627311E0,-7.321371224E0,7.926390449E0
6.594956208E0,9.400877045E-1,2.634856822E0,-9.399866354E0,9.807330056E0
6.604925208E0,2.291477621E0,-7.673712745E0,-3.526487920E0,8.750591639E0
6.614895208E0,-5.981108120E-1,-5.882562071E-1,2.519542421E0,2.655536842E0
6.624865208E0,1.293780955E0,1.335910437E0,7.388209577E0,7.618672234E0
6.634835208E0,1.145438556E0,-1.186622250E-1,5.398725441E0,5.520176319E0
6.644805208E0,7.496071994E-1,2.471411357E0,-3.955243778E-1,2.612704458E0
6.654775208E0,9.061629633E-1,-1.636475447E0,-1.368626193E0,2.317826754E0
6.664745208E0,1.394113329E0,-3.379056809E0,-2.310352433E0,4.324269332E0
6.674714208E0,2.193425516E0,-1.266431189E0,-2.774261168E0,3.756526118E0
6.684684208E0,8.482006109E-1,-9.831180954E-1,-9.978289883E0,1.006241693E1
6.694654208E0,-8.485549521E-1,-4.562638507E0,-5.188388815E0,6.961112996E0
6.704624208E0,9.809671971E-1,-7.027450989E0,1.218001216E1,1.409610089E1
6.714594208E0,1.431491362E0,-3.603141993E-2,1.327490329E1,1.335191084E1
6.724564208E0,5.200689018E0,4.202986797E0,2.971104759E0,7.317084649E0
6.734533208E0,2.707133085E0,3.023887575E-3,6.220256317E-1,2.777677910E0
6.744503208E0,2.554654366E-1,-3.951557109E0,-5.785340416E-1,4.001845551E0
6.754473208E0,-9.330651254E-1,-1.291444116E0,-1.259463354E0,2.030932390E0
6.764443208E0,8.042744265E-1,2.237930574E0,7.197688580E-2,2.379153480E0
6.774413208E0,1.564671054E-1,-3.361792320E-1,-2.310669937E0,2.340233747E0
6.784383208E0,-9.696679645E-1,-8.756030023E0,3.917413462E0,9.641288605E0
6.794353208E0,-3.013248566E0,-2.296391037E0,6.249176061E0,7.307891635E0
6.804322208E0,-2.077958356E0,3.264792860E-1,-4.336833072E-1,2.147691985E0
6.814292208E0,-2.014014082E0,-1.641530365E0,-3.125442016E-1,2.616975075E0
6.824262208E0,-4.641570948E-1,-1.650201201E-2,1.566325232E0,1.633734635E0
6.834232208E0,2.335723283E-1,2.111175218E-1,-1.287738150E-1,3.401607502E-1
6.844202208E0,-2.817169132E-1,3.380368924E-1,-1.078532376E0,1.164845674E0
6.854172208E0,-4.742577944E-2,2.547540351E0,2.719189167E-2,2.548126850E0
6.864142208E0,3.312723071E0,-1.054951724E-1,1.491484380E-1,3.317756566E0
6.874111208E0,1.452675679E0,5.623398855E-1,-1.291838218E0,2.023694333E0
6.884081208E0,5.364053791E0,2.335897164E0,-3.659495119E0,6.900825542E0
6.894051208E0,8.214237984E-2,1.361550770E0,-4.785857134E0,4.976444150E0
6.904021208E0,-1.347421265E0,-2.554112329E0,-3.841002048E0,4.805448011E0
6.913991208E0,1.145474151E0,-3.936664250E0,-1.147680963E0,4.257535443E0
6.923961208E0,-1.378057752E0,-3.680103338E0,6.203281850E-1,3.978317584E0
6.933931208E0,-7.775484118E-1,5.970350997E0,-8.380726486E-1,6.078818827E0
6.943900208E0,-1.735482842E-1,7.514794779E0,2.925932679E0,8.066185072E0
6.953870208E0,7.658333690E-1,8.093714152E0,6.880223361E0,1.065045459E1
6.963840208E0,-1.337160279E-1,3.061220292E0,4.425818338E0,5.383011947E0
6.973810208E0,-7.348029996E-1,-6.560026324E-1,2.521595963E0,2.707161078E0
6.983780208E0,-4.564314319E0,1.155949803E0,-3.923943633E0,6.129153186E0
6.993750208E0,-3.376541337E0,1.482284371E0,-9.069386403E0,9.790401834E0
7.003720208E0,-2.826387633E0,2.085011559E0,-9.848364751E0,1.045590879E1
7.013689208E0,-4.022930416E-1,3.543210079E0,-1.421546418E1,1.465590663E1
7.023659208E0,3.634971896E0,-2.230732652E0,-9.026288915E0,9.983139808E0
7.033629208E0,2.066052840E0,-7.001302825E0,-3.525737722E0,8.106641849E0
7.043599208E0,1.262251234E-1,-7.839654386E0,1.521571930E1,1.711707415E1
7.053569208E0,-5.829228521E-1,-5.765348786E0,2.351742183E1,2.422082111E1
7.063539208E0,-3.570268947E-1,-2.730474293E-2,7.073672059E0,7.082729005E0
7.073508208E0,-2.379676072E-1,-1.338987826E0,-5.183101763E0,5.358550257E0
7.083478208E0,-3.164153873E-1,-4.514364479E0,-8.135756802E0,9.309680128E0
7.093448208E0,-2.464620401E0,-2.409868243E0,-9.022270124E0,9.658321638E0
7.103418208E0,4.654121266E-1,-1.682843868E0,-2.704896818E0,3.219478021E0
7.113388208E0,-1.729282966E-1,-7.653648609E0,4.244637684E0,8.753581569E0
7.123358208E0,-1.516834106E0,-4.242858376E0,1.125077616E1,1.211951307E1
7.133328208E0,-3.708307821E-1,3.083742598E-1,8.092456416E0,8.106815712E0
7.143297208E0,1.232227755E0,5.478794289E0,4.447164769E0,7.163298582E0
7.153267208E0,-2.012154814E-1,2.253596435E0,4.354879333E0,4.907561367E0
7.163237208E0,2.753161198E0,2.839077553E-1,-9.287974620E-1,2.919445995E0
7.173207208E0,3.099840567E0,-4.317867628E-1,1.574076301E-1,3.133724384E0
7.183177208E0,1.810854913E0,1.302554995E-1,-2.632094890E0,3.197512396E0
7.193147208E0,-1.071022797E0,1.867419416E0,-6.715516652E0,7.052127977E0
7.203117208E0,5.051393888E-1,-7.674970481E-1,-1.565515977E-1,9.320546785E-1
7.213086208E0,-9.853837453E-2,7.899643895E-1,-3.743932421E0,3.827634194E0
7.223056208E0,-1.009551311E0,-1.145395579E0,2.448791696E0,2.885776438E0
7.233026208E0,-1.851556212E0,-2.671165108E0,4.954295536E0,5.925236510E0
7.242996083E0,-1.023601147E-1,-1.166187401E0,-2.242360425E-1,1.191953208E0
7.252966083E0,-1.414315166E0,-2.760974247E0,1.558786417E0,3.471754783E0
7.262936083E0,-2.669605363E0,1.265937976E0,-9.695484620E-1,3.109568455E0
7.272906083E0,-1.267228749E0,6.288605590E0,-2.071014787E0,6.741033394E0
7.282875083E0,-1.798167479E0,6.957478529E0,-4.752656059E0,8.615547189E0
7.292845083E0,-3.731819037E0,3.047834262E0,-5.846498784E0,7.576101573E0
7.302815083E0,-3.311124442E0,1.511037469E0,-5.739746752E0,6.796430834E0
7.312785083E0,-1.460609327E0,-6.104645169E-1,-1.944775740E0,2.507628204E0
7.322755083E0,1.547317980E-1,-2.487222228E0,3.186965250E0,4.045610442E0
7.332725083E0,2.103767088E0,-2.871255073E0,4.315699480E0,5.594211621E0
7.342694083E0,3.277910211E0,-8.023283270E-1,-1.593366265E-2,3.374711836E0
7.352664083E0,2.621770461E0,4.382303652E0,-3.483751205E0,6.181811070E0
7.362634083E0,1.984748914E0,7.282459758E0,-5.649912470E0,9.428412342E0
7.372604083E0,-1.287052126E0,5.569815556E0,-1.366807709E0,5.877713145E0
7.382574083E0,3.782464403E0,-2.647130128E0,4.033453211E0,6.130504031E0
7.392544083E0,2.830865139E0,-2.753672244E0,4.559236012E0,6.031843937E0
7.402514083E0,-7.331228022E-1,-1.550465244E-1,3.481430445E0,3.561160824E0
7.412483083E0,7.835168110E-1,-1.891436269E0,1.070379018E0,2.310225313E0
7.422453083E0,2.039568169E0,-6.865759689E-1,3.453833342E-2,2.152305223E0
7.432423083E0,-1.678191238E0,-1.763055387E-1,4.361770277E0,4.676799057E0
7.442393083E0,1.112771551E0,-4.576706323E-1,3.321118503E0,3.532357718E0
7.452363083E0,-1.530160057E0,1.588210775E0,9.986120474E-1,2.420956275E0
7.462333083E0,-1.454663586E0,-1.066181010E0,-1.534559063E0,2.368049749E0
7.472303083E0,-3.723894598E0,-1.054177845E0,-1.887389411E0,4.305916940E0
7.482272083E0,-2.645468934E0,1.226062889E0,-1.086465293E-1,2.917797141E0
7.492242083E0,-1.429649343E0,-3.670327086E0,1.132453644E-1,3.940561213E0
7.502212083E0,-1.484579695E0,-4.407116311E0,2.439188229E0,5.251313195E0
7.512182083E0,-6.807968002E-1,5.416831344E-2,1.713942284E0,1.844997735E0
7.522152083E0,-2.833810308E-1,-6.980218935E-1,1.627229830E0,1.793158189E0
7.532122083E0,-1.982220140E0,-2.110184992E0,-1.543429874E0,3.280892129E0
7.542092083E0,-2.299492984E0,3.001565829E-1,-7.015156049E-1,2.422784783E0
7.552061083E0,-6.074415064E-1,-1.130521140E-1,2.859697759E-2,6.185335490E-1
7.562031083E0,-1.238585268E-1,-1.518831515E0,8.827874762E-1,1.761108694E0
7.572001083E0,2.395502365E0,-1.599040111E0,4.860533094E-1,2.920891761E0
7.581971083E0,-8.549423043E-1,-5.304661283E-1,-1.530512790E0,1.831608598E0
7.591941083E0,1.497805403E-1,-1.032544609E0,3.543798602E-1,1.101892765E0
7.601911083E0,1.335904735E0,-1.377574187E0,8.947321683E-1,2.117285469E0
7.611881083E0,1.010564341E0,1.591674666E0,-1.162872030E0,2.215161368E0
7.621850083E0,2.815146069E0,9.198591158E-1,-2.104429286E0,3.633154387E0
7.631820083E0,2.716719303E0,7.356794241E-1,-1.062205195E-1,2.816570749E0
7.641790083E0,6.644416355E-2,-6.522238693E-1,-3.683336556E0,3.741226936E0
7.651760083E0,6.212385964E-1,8.862028348E-1,-2.830299128E0,3.030162704E0
7.661730083E0,-8.381715397E-1,4.117509860E-1,1.449714210E0,1.724454028E0
7.671700083E0,-2.375510442E0,-1.610888909E0,1.782770444E0,3.378799105E0
7.681669083E0,5.549537924E-1,-6.066828302E-1,1.915596380E0,2.084597625E0
7.691639083E0,-7.616641581E-1,1.641231573E-1,-1.849737436E-1,8.008020893E-1
7.701609083E0,-1.054444844E0,-1.522108295E0,-1.691298357E0,2.507819316E0
7.711579083E0,-1.306829894E0,-3.067940497E-1,1.463656311E0,1.986005226E0
7.721549083E0,-2.340422178E0,4.013976721E0,2.284635209E0,5.177754641E0
7.731519083E0,-2.714608239E-1,2.493868758E0,-5.077458948E0,5.663361346E0
7.741489083E0,5.025735209E-1,2.865568364E-1,3.110426366E-1,6.568428170E-1
7.751458083E0,-9.262262951E-1,1.733267039E0,2.734994191E0,3.367833577E0
7.761428083E0,-1.328775079E0,1.242671028E0,4.538071430E0,4.889168314E0
7.771398083E0,-1.047316357E0,3.643762600E-1,-2.133178875E0,2.404182548E0
7.781368083E0,-1.016966896E0,1.010694149E-1,-2.414536952E0,2.621912544E0
7.791338083E0,-1.499807599E0,1.082810783E0,-8.647067159E-1,2.041964674E0
7.801308083E0,1.698450525E0,-2.658625169E0,6.746774697E-1,3.226176012E0
7.811278083E0,1.617294387E0,-1.120340845E0,2.981606358E0,3.572223568E0
7.821247083E0,1.058904296E0,-9.803944623E-1,-3.624215358E-1,1.487884733E0
7.831217083E0,-2.217566038E0,-1.434826030E0,-4.995475137E-1,2.688098322E0
7.841187083E0,-1.401659453E0,-1.109898302E0,4.727906549E-1,1.849338927E0
7.851157083E0,-6.890442979E-2,-3.551449976E0,1.462097443E0,3.841259388E0
7.861127083E0,2.094828596E-1,2.135771531E-1,1.261220443E0,1.296215751E0
7.871097083E0,-2.206688609E0,6.876734912E-2,9.776000780E-1,2.414519720E0
7.881067083E0,-8.703742028E-1,-2.388433228E0,1.703347129E0,3.059992807E0
7.891036083E0,-2.082970589E0,1.056241035E0,-2.141931573E0,3.168956052E0
7.901006083E0,-5.254939850E-1,3.147366151E-1,-1.450889500E0,1.574891554E0
7.910976083E0,1.548945333E-1,-2.043896570E0,-3.116554248E-1,2.073314884E0
7.920946083E0,1.278958410E0,-7.879052925E-1,-1.822073089E0,2.361457115E0
7.930916083E0,2.578103747E0,7.025610870E-1,-1.672187902E0,3.152209287E0
7.940886083E0,1.652575317E0,1.942636536E0,-1.211889823E0,2.823741991E0
7.950855083E0,-8.581423393E-1,7.167400002E-1,-1.898676292E0,2.203428275E0
7.960825083E0,3.271531776E-1,-6.018316877E-1,-5.112717658E-1,8.547686239E-1
7.970795083E0,-1.980021440E0,-2.681141919E0,4.837518454E-1,3.367940431E0
7.980765083E0,1.666794284E0,-2.066303685E0,5.384123189E0,6.003048944E0
7.990735083E0,-3.425866840E-1,3.049486685E0,4.352113016E0,5.325187544E0
8.000705083E0,9.325388760E-1,1.231209608E0,-1.539864242E-2,1.544585049E0
8.010675083E0,4.094480309E0,-4.063504976E-1,-9.064336163E-1,4.213254280E0
8.020644083E0,7.491724589E-1,-2.436271053E0,-2.241322544E0,3.394142420E0
8.030614083E0,2.016123758E0,-1.984335954E0,-2.203100465E0,3.585525881E0
8.040584083E0,8.454333430E-1,2.367856291E-1,-2.984049910E0,3.110527099E0
8.050554083E0,-8.509394467E-1,-7.480945247E-1,3.862896947E0,4.025632396E0
8.060524083E0,2.327424257E0,-1.683916247E0,7.238999158E-1,2.962517288E0
8.070494083E0,2.841265581E0,-9.805201775E-1,1.616086206E0,3.412615500E0
8.080464083E0,1.583798466E0,1.449906291E0,7.419982177E-1,2.271829041E0
8.090433083E0,1.124450268E0,-1.004116616E0,4.604226828E0,4.844743881E0
8.100403083E0,7.719696564E-1,-3.869055820E-1,2.890072290E0,3.016314129E0
8.110373083E0,2.308915042E0,3.931842636E0,2.838823199E-3,4.559658238E0
8.120343083E0,1.969927684E0,3.283234101E0,-2.445516086E0,4.543213639E0
8.130313083E0,1.858870056E0,2.670616054E0,-6.293882702E0,7.085234467E0
8.140283083E0,3.026453041E-1,-9.072498876E-1,-4.854630330E0,4.947942217E0
8.150253083E0,1.206598531E-1,-1.449728536E0,-1.042613515E0,1.789780592E0
8.160222083E0,-9.390555248E-2,1.243808312E0,4.492576584E0,4.662523108E0
8.170192083E0,1.661222034E0,2.834885100E0,-1.108992861E0,3.467866396E0
8.180162083E0,3.237428475E0,8.103431055E-1,2.305463576E0,4.056200363E0
8.190132083E0,8.387555303E-1,9.356813890E-1,2.224303638E0,2.554708824E0
8.200102083E0,1.728188440E0,-5.947018853E-1,3.002470393E0,3.514987067E0
8.210072083E0,1.670278201E0,3.093451899E0,2.869646797E0,4.538077419E0
8.220042083E0,-3.631027365E-1,1.906086176E0,4.518389118E-1,1.992276715E0
8.230011083E0,1.081021682E0,-1.396472973E0,-5.048602939E-1,1.836744009E0
8.239981083E0,3.291602343E-1,-3.521213439E0,5.630763423E-1,3.581109536E0
8.249950833E0,9.763687275E-1,-8.019970822E-1,5.010426468E-1,1.359242048E0
8.259920833E0,-1.373023299E0,4.223280436E0,-1.613042146E0,4.724742912E0
8.269890833E0,1.446937952E0,7.924000472E-1,-3.324431536E0,3.711249427E0
8.279860833E0,2.253464288E-1,-6.066007937E0,-3.439267927E0,6.976804224E0
8.289830833E0,-8.606551802E-1,-7.406454644E-1,-1.787724790E0,2.117839221E0
8.299799833E0,-1.008942762E0,-1.219313448E0,7.305876102E0,7.475327177E0
8.309769833E0,-1.972175354E0,-1.572917383E0,5.284574343E0,5.855789503E0
8.319739833E0,-2.399420877E0,1.109576998E0,-2.910717639E0,3.932004429E0
8.329709833E0,-1.265256337E-1,1.402858132E0,-3.602725087E0,3.868287441E0
8.339679833E0,6.774342126E-1,-2.513097327E0,-7.187314450E0,7.644086884E0
8.349649833E0,5.177891893E0,-3.843565175E0,-5.099576041E0,8.221267148E0
8.359619833E0,6.299125023E-1,-6.688916498E0,-7.357305872E-1,6.758675401E0
8.369588833E0,2.432090878E0,-1.556749247E0,1.994229736E0,3.509342744E0
8.379558833E0,2.362251735E0,7.260467210E-1,8.979883658E0,9.313736501E0
8.389528833E0,-8.134515584E-1,-1.132882538E0,1.167409469E1,1.175710904E1
8.399498833E0,2.095385105E0,1.467964540E0,4.495351673E0,5.172402274E0
8.409468833E0,4.938230165E-1,-2.076960236E-1,2.569301056E0,2.624558387E0
8.419438833E0,-9.914615605E-1,9.210811839E-1,1.519390216E0,2.034682580E0
8.429407833E0,3.674878559E0,1.807652978E0,-2.059223292E0,4.583965780E0
8.439377833E0,2.949326073E-1,-1.804517993E0,-7.400236130E0,7.622779362E0
8.449347833E0,-8.101280741E-1,-5.412226662E-1,-7.120606490E0,7.186951110E0
8.459317833E0,-2.095937374E-1,6.607037938E-1,-4.174256503E0,4.231415412E0
8.469287833E0,-1.794627428E0,-2.030947034E0,-2.510953445E0,3.694634037E0
8.479257833E0,-7.095865897E-1,-3.066760529E0,1.265697071E0,3.392716072E0
8.489227833E0,-1.630782306E0,-1.247162567E0,3.436403376E0,4.002965596E0
8.499196833E0,-3.285803367E-1,1.783927023E-1,3.726908253E0,3.745615319E0
8.509166833E0,-1.155722785E0,3.392487571E0,-1.449928218E0,3.866129707E0
8.519136833E0,-9.348744001E-1,6.561246053E0,-4.880513615E0,8.230635034E0
8.529106833E0,4.479723819E0,2.545153810E0,2.998840442E0,5.961440884E0
8.539076833E0,2.214027157E0,-2.820621402E0,4.151428388E0,5.485633875E0
8.549046833E0,1.706333302E0,-1.151718466E0,3.458438024E0,4.024776059E0
8.559016833E0,-7.252113001E-1,4.538241584E0,-4.977028341E0,6.774391428E0
8.568985833E0,-2.558740108E-1,-3.862708667E-1,-5.256390764E0,5.276771793E0
8.578955833E0,-9.010595135E-1,4.160109749E-1,-6.458472467E0,6.534281903E0
8.588925833E0,2.862391864E0,3.062864237E0,4.823490983E-1,4.219844212E0
8.598895833E0,1.302321983E0,1.443748004E0,4.377267737E0,4.789668432E0
8.608865833E0,2.114802246E0,1.040938287E0,3.791052793E0,4.464081354E0
8.618835833E0,8.791195178E-1,1.479799596E0,-1.816059228E0,2.502144898E0
8.628805833E0,-2.088847041E0,-3.608464421E0,-2.200145867E0,4.714333386E0
8.638774833E0,2.458210391E0,-5.227628310E0,1.446344460E0,5.955065773E0
8.648744833E0,2.611753888E0,-3.959327766E0,4.743677074E0,6.708204448E0
8.658714833E0,-8.414959741E-1,4.530238500E-1,2.878461474E0,3.032966624E0
8.668684833E0,1.376504585E0,2.533033994E0,-2.093043002E0,3.562562995E0
8.678654833E0,-4.652403646E-1,-7.214604574E-1,8.234873539E-1,1.189573541E0
8.688624833E0,-3.733475553E0,-3.735344908E0,3.328212930E0,6.242486892E0
8.698594833E0,1.402356441E0,-2.470042232E0,3.140719621E0,4.234599385E0
8.708563833E0,-1.354336475E0,2.032192783E0,2.154260427E0,3.256512365E0
8.718533833E0,-3.023880266E-2,1.566667586E0,6.222373009E-2,1.568194345E0
8.728503833E0,-1.045479893E0,6.891969833E-1,-3.359763336E0,3.585530695E0
8.738473833E0,-5.304207393E-1,-3.283226499E0,-8.385930508E0,9.021349838E0
8.748443833E0,8.003605197E-1,-4.768337999E0,1.493548447E-1,4.837347527E0
8.758413833E0,-1.604229661E0,-2.418820623E-1,3.542576534E0,3.896396827E0
8.768383833E0,-8.189390972E-2,3.137070666E0,6.704039737E0,7.402166424E0
8.778352833E0,-1.211181287E0,2.606244349E-1,-8.398607272E-1,1.496746888E0
8.788322833E0,3.343529419E0,-2.537988632E0,-1.339070857E0,4.406096462E0
8.798292833E0,8.304094340E-1,9.243547475E-1,-2.278790917E0,2.595553808E0
8.808262833E0,1.573110926E0,-3.064094199E0,-3.057079879E0,4.605332630E0
8.818232833E0,3.510009004E0,-1.171270385E0,-1.811928170E0,4.120087525E0
8.828202833E0,-6.783126106E-1,2.028148557E0,2.066130608E0,2.973615687E0
8.838172833E0,3.333291529E-1,-1.288239257E0,8.200013609E0,8.307279452E0
8.848141833E0,1.280307216E0,2.384852393E0,4.204469651E0,5.000427237E0
8.858111833E0,-1.974670507E-2,2.931664997E0,-3.451848212E0,4.528830496E0
8.868081833E0,-4.258826829E-1,-4.065791237E-1,-3.778242128E0,3.823845738E0
8.878051833E0,-1.830888205E-1,-1.116817313E0,-2.424850271E0,2.675948666E0
8.888021833E0,1.122568122E0,-2.640747600E0,-7.772750545E-1,2.972854451E0
8.897991833E0,3.700952024E-1,3.560612270E-1,3.846689050E0,3.880820365E0
8.907961833E0,1.530798427E0,3.318726700E0,3.624561514E0,5.147303847E0
8.917930833E0,-8.090647580E-1,6.626651838E0,-2.642789447E0,7.179932898E0
8.927900833E0,1.781736364E0,9.691590375E-1,1.149872500E-1,2.031520558E0
8.937870833E0,-9.843312465E-2,-1.416046235E0,-1.478169685E0,2.049356396E0
8.947840833E0,-4.712798075E-1,2.762704146E-1,-8.759491575E-1,1.032335665E0
8.957810833E0,2.032334286E-1,4.006117770E0,-2.129343102E0,4.541407872E0
8.967780833E0,1.082086606E0,3.366888753E0,-8.363933283E-1,3.634061791E0
8.977750833E0,3.858787816E0,-1.034480622E0,1.341070604E-1,3.997296371E0
8.987719833E0,3.133256235E0,-1.141411286E0,1.847905503E0,3.812462342E0
8.997689833E0,2.263299889E0,-3.083944619E0,6.189026923E0,7.275802021E0
9.007659833E0,1.147518995E0,-1.922439376E0,3.702525948E0,4.326808454E0
9.017629833E0,1.519122706E-1,1.852802546E0,-2.875040853E-1,1.881120201E0
9.027599833E0,6.861709761E-1,-3.161742408E0,-1.819713153E0,3.711980822E0
9.037569833E0,-9.604781149E-1,-1.451375112E0,-2.842752528E0,3.333204143E0
9.047539833E0,-1.210449654E-1,-9.648630881E-1,-7.322111481E-1,1.217269825E0
9.057508833E0,-6.804774691E-1,-1.233922424E0,3.985813022E-2,1.409681810E0
9.067478833E0,-5.974677645E-2,-1.004054051E0,4.962853521E0,5.063754465E0
9.077448833E0,-4.326735661E-1,-4.299776343E-1,1.783855103E0,1.885265554E0
9.087418833E0,6.700177505E-1,9.519424957E-1,-6.926097107E-1,1.354557681E0
9.097388833E0,2.145359210E0,5.398324907E-1,-5.877667952E0,6.280204281E0
9.107358833E0,3.417834374E0,-2.069095438E0,-5.227920671E0,6.579810201E0
9.117328833E0,2.479179968E0,-3.052174650E0,-7.412345713E-1,4.001441252E0
9.127297833E0,-3.621097331E-1,-5.087210934E0,7.701837852E0,9.237377596E0
9.137267833E0,-2.479995655E-1,-1.732664484E-1,4.772005080E0,4.781585253E0
9.147237833E0,1.602583962E0,3.157469848E0,1.133447671E0,3.717875040E0
9.157207833E0,4.412330858E-1,-8.194749945E-1,9.631241262E-1,1.339340877E0
9.167177833E0,2.046422567E0,-2.777739384E0,1.836680603E0,3.908590161E0
9.177147833E0,8.212810533E-1,-2.117780818E0,-2.480203523E0,3.363169290E0
9.187117833E0,-1.518173703E0,2.783058304E-1,-2.555385852E0,2.985347950E0
9.197086833E0,-1.701723357E0,-1.302447114E0,-4.141348958E-2,2.143349236E0
9.207056833E0,-1.512894545E0,-5.489488846E-1,1.504085714E0,2.202831954E0
9.217026833E0,-1.036913795E0,2.069690685E0,2.169246256E0,3.172450010E0
9.226996833E0,4.805139497E-2,1.205524252E0,4.454176750E0,4.614681806E0
9.236966833E0,1.292926531E0,2.526574574E0,-9.106091130E-1,2.980678958E0
9.246937208E0,-5.250948029E-1,-2.878215014E0,-2.078697444E0,3.588987222E0
9.256907208E0,-1.065753724E0,-5.109799898E0,5.434630269E-1,5.247974662E0
9.266877208E0,-5.179506748E-1,3.108996430E0,-8.506102484E-1,3.264608628E0
9.276846208E0,-6.972011637E-1,6.998268120E0,-1.054837704E-1,7.033702650E0
9.286816208E0,-1.456412780E0,4.071410119E0,-3.319530984E0,5.451312182E0
9.296786208E0,-1.282583684E0,-1.184403232E0,-1.834441704E0,2.532391811E0
9.306756208E0,1.473041677E0,1.045998760E0,-3.080711401E0,3.571378995E0
9.316726208E0,1.207259632E0,-9.278429040E-1,-3.258108323E0,3.596336763E0
9.326696208E0,-5.601746616E-1,-3.887953143E0,1.949050055E0,4.385062304E0
9.336666208E0,-2.235044096E-1,-1.408841880E0,7.429801406E0,7.565496587E0
9.346635208E0,2.084876635E-1,2.920350050E0,6.980755709E0,7.569865375E0
9.356605208E0,7.998988089E-1,3.400637128E0,1.573550051E0,3.831478924E0
9.366575208E0,2.049977967E0,2.331024680E0,-4.206045476E0,5.227514157E0
9.376545208E0,1.919999625E0,-2.336741210E0,-4.331657701E0,5.282993137E0
9.386515208E0,1.285803453E-1,-7.610061125E0,-4.144053880E0,8.666184038E0
9.396485208E0,-9.615909132E-1,-2.806243683E0,2.625586939E0,3.961485513E0
9.406455208E0,1.099810978E0,2.300599862E0,6.364450409E0,6.856279816E0
9.416424208E0,2.844378054E0,1.433243188E-1,-5.354657900E-1,2.897887504E0
9.426394208E0,5.614953283E-1,-1.221634793E0,-2.253449669E0,2.624062496E0
9.436364208E0,-6.832366240E-1,-7.141146004E-2,-1.126094213E0,1.319090617E0
9.446334208E0,8.602012170E-1,1.621637553E-2,5.558842671E-1,1.024312659E0
9.456304208E0,2.699646895E0,1.451363710E-1,2.396300071E0,3.612673796E0
9.466274208E0,2.089992218E-1,-1.892498416E0,1.051224124E0,2.174925996E0
9.476244208E0,-9.484680802E-2,9.226388821E-1,-8.413804185E0,8.464771662E0
9.486213208E0,9.234271599E-1,-2.704557095E0,-6.200960505E-1,2.924357350E0
9.496183208E0,-1.307567374E0,-1.808096197E0,4.556463847E0,5.073490621E0
9.506153208E0,1.383736860E0,-2.622624739E0,3.806234504E0,4.824967287E0
9.516123208E0,-2.237663064E0,1.184397385E-1,-1.708351761E-1,2.247298071E0
9.526093208E0,8.808440810E-1,3.030180641E0,-4.575980099E0,5.558549710E0
9.536063208E0,1.464933051E0,-4.285381082E0,-6.653546691E-3,4.528859032E0
9.546033208E0,-2.401856388E-1,-1.525835602E0,7.763874471E-1,1.728768606E0
9.556002208E0,-4.894523690E-1,-4.125649184E-1,-1.762012829E0,1.874690012E0
9.565972208E0,-1.482186284E0,1.752059698E0,-1.881961441E-1,2.302608771E0
9.575942208E0,2.373646789E0,-2.148004491E0,3.735333506E0,4.919434802E0
9.585912208E0,1.478165300E0,-5.235102221E0,6.351919826E0,8.362903407E0
9.595882208E0,2.155437179E-1,-2.527365703E0,2.105362501E0,3.296450781E0
9.605852208E0,2.985990308E0,-7.141338962E-1,4.383938241E-1,3.101340756E0
9.615822208E0,2.843214458E-1,2.366102419E0,-1.909232270E0,3.053595782E0
9.625792208E0,2.276555819E0,2.401654952E0,-3.406058081E0,4.748882454E0
9.635761208E0,1.550655132E0,6.989992556E-1,-8.800182348E-1,1.915088351E0
9.645731208E0,2.757884286E0,-4.085306320E-1,2.127741550E0,3.507150854E0
9.655701208E0,9.405035146E-1,-1.335789107E0,4.308400401E0,4.607731916E0
9.665671208E0,1.314272815E-1,2.124744852E0,-2.619626872E0,3.375538292E0
9.675641208E0,2.244802368E0,3.535145015E0,-7.729965298E0,8.791402133E0
9.685611208E0,-1.451215483E0,3.976303987E0,-7.097736275E-1,4.291945757E0
9.695581208E0,-3.892663953E-1,3.430447403E-1,4.667862661E0,4.696610463E0
9.705550208E0,-1.775397398E-1,9.985921669E-1,-1.815076311E0,2.079232716E0
9.715520208E0,1.511049894E0,2.459634773E0,-4.643693195E0,5.467811398E0
9.725490208E0,8.108208230E-1,5.110548341E-1,-2.737387456E0,2.900327143E0
9.735460208E0,7.487782835E-1,9.835417262E-1,-1.167024722E0,1.699991161E0
9.745430208E0,2.164915808E0,-3.578127020E0,9.064975848E0,9.983167862E0
9.755400208E0,-7.261035852E-1,-3.346281119E0,8.361703155E0,9.035646263E0
9.765370208E0,-1.731272408E0,2.872166069E0,6.839534926E-1,3.422635602E0
9.775340208E0,2.683788662E0,4.237905200E0,-2.664415374E0,5.679935858E0
9.785309208E0,1.907517574E0,-2.288983491E0,2.945664693E0,4.189869831E0
9.795279208E0,-1.081040685E0,-6.521054631E-1,-5.563730358E0,5.705171864E0
9.805249208E0,4.034902444E0,7.376823878E-1,-4.125115333E0,5.817318072E0
9.815219208E0,8.744185757E-1,-1.823390174E0,-5.581305919E0,5.936357076E0
9.825189208E0,-2.642193616E0,-2.941618128E0,1.965435707E0,4.415568121E0
9.835159208E0,7.899525489E-1,-2.212854790E0,5.610144387E0,6.082308065E0
9.845129208E0,-1.742408576E0,-1.319271015E0,5.651326327E0,6.059203983E0
9.855098208E0,-9.816879395E-1,-1.207157671E-3,1.759610208E0,2.014929465E0
9.865068208E0,2.747658383E0,7.086916003E-1,4.437384716E0,5.267091559E0
9.875038208E0,-3.510315252E-1,2.543691714E0,5.252202403E0,5.846299748E0
9.885008208E0,8.209123863E-1,3.609319577E-1,-3.315713922E0,3.434840293E0
9.894978208E0,6.881998137E-1,-3.055328930E0,4.334880686E0,5.347882237E0
9.904948208E0,-8.948562755E-1,-1.336160990E0,1.475392258E0,2.182401489E0
9.914918208E0,1.418892075E0,-1.947701687E0,2.435388708E-1,2.422004905E0
9.924888208E0,1.193337997E0,1.270228663E0,6.129232711E-1,1.847487853E0
9.934857208E0,1.437952974E0,-1.657158219E0,1.926856363E0,2.920044103E0
9.944827208E0,1.280950264E-1,-3.926349177E0,1.590230404E0,4.238096145E0
9.954797208E0,4.001293525E-1,5.037858680E-1,-3.663927893E0,3.719982702E0
9.964767208E0,2.402979200E0,4.446333587E0,-6.880896960E0,8.537618777E0
9.974737208E0,2.654491919E-1,5.177765594E0,-1.073155393E1,1.191830397E1
9.984707208E0,-5.619002480E-1,-4.308833387E0,-7.256113958E-1,4.405483963E0
9.994677208E0,4.256017242E-1,-1.031243721E1,1.193717612E1,1.578048389E1
1.000464621E1,2.808099882E0,-1.446868078E0,7.827253026E0,8.440660052E0
1.001461621E1,1.922412625E0,9.572579656E0,-2.271260288E0,1.002439898E1
1.002458621E1,2.394511701E0,-1.369775171E0,-7.427849606E0,7.923567383E0
1.003455621E1,-1.358041124E0,-5.156296957E0,-3.632641781E0,6.451957866E0
1.004452621E1,-7.900808953E-1,4.109383984E0,-3.223709738E0,5.282382893E0
1.005449621E1,1.426856713E0,5.883387698E0,1.495594388E0,6.235942066E0
1.006446621E1,2.571850442E0,6.846706536E-1,8.496779099E0,8.903844319E0
1.007443621E1,7.815369438E-1,6.522393644E-2,5.420950708E0,5.477386305E0
1.008440521E1,1.090016088E0,3.000223601E0,-4.479715633E0,5.500666222E0
1.009437521E1,-2.162257956E0,2.988431813E0,-1.096659797E1,1.157032217E1
1.010434521E1,-2.471051461E0,-1.950323870E0,-4.669652494E0,5.631652771E0
1.011431521E1,-2.453760952E0,-3.494848636E-1,5.379329057E0,5.922859410E0
1.012428521E1,-7.748486061E-1,-5.483815877E0,8.551813093E0,1.018852954E1
1.013425521E1,2.968716756E0,-2.311603737E0,-6.496870548E-1,3.818230518E0
1.014422521E1,1.866235939E0,4.845050837E0,-7.007426614E0,8.721317673E0
1.015419521E1,1.418419766E0,-2.950393336E0,-4.581185875E0,5.630630470E0
1.016416421E1,1.272146550E0,-1.063249040E1,1.428262530E0,1.080315430E1
1.017413421E1,-4.650349081E-1,-3.655020829E0,6.078192950E0,7.107732709E0
1.018410421E1,-3.801132370E-1,-2.433635421E0,8.676809022E0,9.019649784E0
1.019407421E1,-1.191560224E-2,1.649979007E-1,3.549744635E0,3.553597229E0
1.020404421E1,1.972419037E0,7.812882909E-1,4.545572823E-1,2.169670614E0
1.021401421E1,1.184905361E-1,-2.580338261E-1,1.414599341E-1,3.172260637E-1
1.022398421E1,-1.784797820E0,4.151521944E0,-2.090759665E-1,4.523754024E0
1.023395421E1,-6.706818480E-1,1.931898417E0,1.291794949E0,2.418838528E0
1.024392283E1,-1.339007707E0,-6.728762349E0,4.336736008E0,8.116431703E0
1.025389283E1,6.618362533E-1,-3.360781044E0,1.038239213E0,3.579220183E0
1.026386283E1,-2.338558525E0,2.492830878E0,-2.351878774E0,4.149023442E0
1.027383283E1,5.581144682E-1,3.947833017E0,-6.904936033E0,7.973394441E0
1.028380283E1,2.660038733E-1,3.300725169E0,-1.042817466E1,1.094131488E1
1.029377283E1,-2.959113289E0,-3.330895048E0,-7.074647375E0,8.360732549E0
1.030374283E1,-7.584438041E-1,-8.634051257E0,6.147206467E0,1.062592233E1
1.031371283E1,7.660242075E-1,-2.272425054E0,9.846031712E0,1.013385658E1
1.032368183E1,-1.793888048E0,4.688622615E0,1.366651003E0,5.202783036E0
1.033365183E1,1.097717748E0,4.620856017E0,-3.022511725E0,5.629642237E0
1.034362183E1,2.834126423E-1,-5.480650780E-1,-8.705860913E-1,1.067060541E0
1.035359183E1,-4.667895844E-1,-6.198008246E0,3.599759964E0,7.182720274E0
1.036356183E1,2.304701976E-2,3.981895387E-2,1.413353884E0,1.414102513E0
1.037353183E1,9.573173294E-1,4.873202549E0,-2.973537201E-1,4.975236556E0
1.038350183E1,2.951100850E0,-9.765768152E-1,-2.822217692E0,4.198524884E0
1.039347083E1,8.811452857E-1,-2.515293541E0,-7.159864696E0,7.639815513E0
1.040344083E1,-1.179716688E-1,-3.689563548E0,-5.282573426E0,6.444561932E0
1.041341083E1,1.744315646E0,-3.728830817E-1,6.400046504E0,6.643965240E0
1.042338083E1,-2.543750770E-2,2.571604275E0,9.748505418E0,1.008202130E1
1.043335083E1,-1.247604324E-1,2.351232657E-1,7.888170488E0,7.892659993E0
1.044332083E1,3.074541273E-1,3.456556390E0,-2.673220696E0,4.380458767E0
1.045329083E1,3.958994767E0,1.642799796E0,-7.292642684E0,8.459022878E0
1.046326083E1,1.959789197E0,1.392830742E0,-6.912652019E0,7.318846160E0
1.047322983E1,1.798765795E0,1.793718186E0,-5.084864447E0,5.684085657E0
1.048319983E1,1.665740177E0,-2.724661576E0,-1.512805667E0,3.533702312E0
1.049316983E1,2.337543448E0,-2.203558594E0,4.859498137E0,5.825332780E0
1.050313983E1,1.340192353E0,-2.102948186E-1,5.846989950E0,6.002302136E0
1.051310983E1,-1.470610989E0,2.339466305E0,-3.377150032E0,4.363592741E0
1.052307983E1,-1.703783624E0,1.404287192E0,-4.524110034E0,5.034130784E0
1.053304983E1,-3.036949085E0,6.746844864E-1,-8.392099321E-2,3.112121725E0
1.054301983E1,-1.270333036E0,-1.502114033E0,6.168608446E0,6.474706383E0
1.055298883E1,6.943078883E-1,-2.848819599E0,5.040629675E0,5.831447854E0
1.056295883E1,1.082710577E0,-1.591083512E0,-1.001581264E-1,1.927132737E0
1.057292883E1,1.502263576E0,1.384095002E0,-5.158893120E-1,2.106811953E0
1.058289883E1,4.832736601E0,1.345944843E0,2.715022441E0,5.704231537E0
1.059286883E1,2.432069098E0,-2.665774852E-1,3.861379010E0,4.571243978E0
1.060283883E1,1.867513702E0,-3.525794732E0,1.090072441E0,4.136072273E0
1.061280883E1,9.449183817E-1,-9.959720296E-1,-1.424288177E0,1.978238571E0
1.062277883E1,-4.702700664E-1,5.396863103E-2,-2.230529169E0,2.280203263E0
1.063274783E1,-3.351110919E-1,2.608513654E0,-2.947993054E0,3.950608304E0
1.064271783E1,1.244400781E-2,1.567114606E0,-4.381007032E0,4.652872839E0
1.065268783E1,1.575739541E0,-1.629768983E0,-2.243674294E0,3.189541720E0
1.066265783E1,-1.116812050E0,-4.800161178E0,2.366192173E0,5.466962766E0
1.067262783E1,-2.114879429E-2,-2.762381672E0,4.090390474E-1,2.792581729E0
1.068259783E1,-4.731458002E-1,-2.155345085E0,1.743932068E-1,2.213547464E0
1.069256783E1,9.724004415E-1,-5.299491175E0,6.707532864E0,8.603555454E0
1.070253783E1,1.099582498E0,-2.303096039E0,4.442451913E0,5.123349689E0
1.071250683E1,5.897669815E-2,2.161988692E0,3.815925094E0,4.386223624E0
1.072247683E1,8.460856730E-1,6.561416792E0,-4.089004683E-1,6.628367135E0
1.073244683E1,6.934829924E-1,1.401333178E0,-1.180356374E0,1.959054493E0
1.074241683E1,8.411196327E-1,-1.294842810E0,-3.601814675E0,3.918822412E0
1.075238683E1,1.686453208E0,-3.538933426E0,-4.346302053E0,5.853077460E0
1.076235683E1,2.685837380E-1,-1.891114672E0,-6.272016454E0,6.556419933E0
1.077232683E1,-1.245405478E0,1.803370477E0,-3.610665606E0,4.223752597E0
1.078229683E1,-1.223997433E0,-8.977291587E-1,3.173154711E0,3.517527282E0
1.079226583E1,-8.536561362E-1,-2.017980249E0,6.201704271E0,6.577393781E0
1.080223583E1,1.178467065E0,1.178774410E0,1.391881739E0,2.171549794E0
1.081220583E1,1.531322337E0,2.392950786E0,-1.315956813E0,3.130958943E0
1.082217583E1,-2.029290810E-1,-1.662682376E0,1.296014884E0,2.117863894E0
1.083214583E1,-4.956083176E-1,-1.087045337E0,-1.937550920E-1,1.210304179E0
1.084211583E1,-6.733133874E-1,9.913170612E-1,-5.986718524E-1,1.339577702E0
1.085208583E1,1.915712155E0,1.014548926E0,1.893884498E0,2.878551906E0
1.086205583E1,2.492381811E0,3.216550114E0,-4.781393369E0,6.278525646E0
1.087202483E1,1.131408528E0,-3.551935002E-1,-3.786276203E0,3.967635967E0
1.088199483E1,1.099468039E0,-3.785223704E0,1.745221964E0,4.310747982E0
1.089196483E1,1.642734307E-1,2.039024378E0,3.005092869E0,3.635270186E0
1.090193483E1,1.516575952E0,4.560509536E-1,4.132916104E0,4.425944036E0
1.091190483E1,1.289832038E0,4.515033985E0,-1.856982720E0,5.049513184E0
1.092187483E1,1.745645595E0,1.039632312E0,3.333591199E-1,2.058942007E0
1.093184483E1,1.493033892E0,-9.773512790E-1,1.721191077E0,2.479287085E0
1.094181483E1,-1.014236100E-1,2.004808518E0,8.216332018E-1,2.169014768E0
1.095178383E1,4.739590017E-1,9.658693939E-2,-4.100896166E0,4.129323859E0
1.096175383E1,-8.253551008E-1,-5.324004457E0,-5.364282417E0,7.602746895E0
1.097172383E1,-2.438074042E-1,-5.655843301E0,-2.802700855E0,6.316893032E0
1.098169383E1,-1.064026676E0,-3.707976138E0,3.124518156E0,4.964257600E0
1.099166383E1,-2.413504773E-1,1.297394827E0,9.434987655E0,9.526829243E0
1.100163383E1,8.121231441E-1,2.232230124E0,2.932526000E0,3.773871231E0
1.101160383E1,1.556037933E0,-2.927525753E0,2.038663897E0,3.892018958E0
1.102157383E1,-1.102472996E0,1.308956234E0,-4.610237181E-1,1.772387091E0
1.103154283E1,1.275052908E0,4.038960411E0,-3.809116597E0,5.696343596E0
1.104151283E1,-5.282805853E-2,-1.973391136E0,-5.274436440E0,5.631761993E0
1.105148283E1,-1.795757695E0,-1.432442120E-1,-9.207407590E0,9.381983752E0
1.106145283E1,-7.423366253E-1,-5.943929769E0,-2.213369930E0,6.385951081E0
1.107142283E1,-1.372494711E0,-5.184411539E0,6.349264605E0,8.311138656E0
1.108139283E1,1.114760335E0,6.756405061E-1,5.936912525E0,6.078331270E0
1.109136283E1,3.778481718E-1,4.309400859E-1,3.778530981E0,3.821750250E0
1.110133283E1,9.472553676E-1,3.219177268E0,9.033082795E-1,3.475105878E0
1.111130283E1,-8.383329228E-1,4.165825403E-1,4.425729461E0,4.523651662E0
1.112127183E1,2.393382311E-2,-1.198894386E0,1.724737414E0,2.100628411E0
1.113124183E1,-1.944598569E0,1.741530325E0,-2.234257354E0,3.436029306E0
1.114121183E1,-1.578697063E0,5.656426853E-1,-1.288843274E0,2.115030272E0
1.115118183E1,-1.743563401E0,-3.436172411E0,-1.118419742E0,4.012250851E0
1.116115183E1,5.046549104E-2,-1.969548638E0,9.909375769E-1,2.205362983E0
1.117112183E1,1.390022032E-1,5.595969567E-1,2.900932909E0,2.957681881E0
1.118109183E1,1.709578799E0,-4.082256997E-1,4.908332913E0,5.213543888E0
1.119106183E1,6.770890807E-1,9.954606906E-1,-9.834958255E-2,1.207917319E0
1.120103083E1,5.729650073E-1,-1.581872686E0,-1.094695249E0,2.007228881E0
1.121100083E1,1.460511094E0,5.631830540E-1,-4.222439899E0,4.503250660E0
1.122097083E1,2.042256865E0,1.980390253E0,-1.561691313E0,3.245248591E0
1.123094083E1,1.102958388E0,6.118362737E-1,2.327606982E-1,1.282590494E0
1.124091083E1,4.727272126E-1,-3.729816073E-1,-2.628814602E-1,6.570334535E-1
1.125088146E1,7.143832069E-1,-2.687386161E-1,3.147234589E-1,8.255995795E-1
1.126085146E1,3.909135559E-1,1.216312365E0,1.596172929E0,2.044504144E0
1.127082146E1,2.502414610E-2,1.539992296E0,-1.820622395E0,2.384715577E0
1.128079046E1,3.827941854E-1,2.312772304E0,2.295908641E0,3.281256406E0
1.129076046E1,9.972617792E-1,1.372568678E0,2.064309785E0,2.672049910E0
1.130073046E1,2.631662196E-1,2.786732986E0,1.468645155E-1,2.802981695E0
1.131070046E1,3.538058829E-1,5.054942490E0,-3.614813036E0,6.224507648E0
1.132067046E1,3.951360862E-1,2.034078803E0,-4.048191118E0,4.547687372E0
1.133064046E1,-1.930868284E-1,-2.133867385E0,-5.304095272E0,5.720498160E0
1.134061046E1,-5.126772537E-1,-2.181218137E0,-1.205843217E0,2.544525181E0
1.135058046E1,-1.064157288E0,-1.650130158E0,1.023664443E0,2.214328152E0
1.136055046E1,1.198272535E0,6.264876419E-1,-1.893924260E0,2.327078197E0
1.137051946E1,1.416670425E0,-8.913977936E-1,-2.989955013E0,3.426569144E0
1.138048946E1,6.891858736E-1,-6.349832954E0,3.424819458E-1,6.396299680E0
1.139045946E1,7.582726268E-1,-3.653804609E0,3.024536616E-1,3.743894191E0
1.140042946E1,7.093444419E-1,-1.083442283E-1,-1.934410965E-1,7.431873700E-1
1.141039946E1,4.015925086E-1,-2.282299832E0,3.324007612E0,4.052060670E0
1.142036946E1,3.229797639E-1,-4.170652572E0,7.015458350E0,8.167944335E0
1.143033946E1,1.874840263E0,-2.488013649E0,3.444863713E0,4.644601590E0
1.144030946E1,3.481019971E0,1.856229891E0,4.021251826E0,5.633254450E0
1.145027846E1,7.355608718E-1,8.378188795E-1,4.100738876E0,4.249594051E0
1.146024846E1,4.925902407E-1,7.773791349E-1,-3.327948636E-1,9.786295958E-1
1.147021846E1,-1.429351866E-3,-1.917853405E0,3.088487613E-1,1.942563071E0
1.148018846E1,-1.109639124E0,-2.649535672E0,-9.729778540E-1,3.032824454E0
1.149015846E1,-2.596370960E-1,-2.450065804E0,2.424740344E0,3.456819290E0
1.150012846E1,1.401061575E-1,1.359559793E0,-6.720368671E-1,1.523045014E0
1.151009846E1,-1.218454492E0,-2.769615555E-1,-4.513816595E-2,1.250350553E0
1.152006846E1,-4.237182630E-1,-1.403805381E0,-6.163035464E-1,1.590608932E0
1.153003746E1,-1.962902255E-1,-2.491834804E-1,1.391846071E0,1.427535549E0
1.154000746E1,3.978368420E-1,-9.727857730E-1,-5.987431884E-2,1.052697130E0
1.154997746E1,-7.049476281E-1,-1.548366386E0,-3.441370001E0,3.838934372E0
1.155994746E1,1.978885472E0,-1.431439322E-1,-1.765000756E0,2.655504767E0
1.156991746E1,1.862965592E0,-1.725249922E0,4.798026359E-1,2.584054693E0
1.157988746E1,6.176891904E-1,-4.547648585E-1,3.172133787E0,3.263553857E0
1.158985746E1,9.149027234E-1,1.064682661E0,2.232380397E0,2.637066249E0
1.159982746E1,8.912504438E-1,2.025100695E0,-1.518734744E0,2.683638463E0
1.160979746E1,1.429724626E-1,1.999239922E0,-2.929191917E0,3.549305098E0
1.161976646E1,-2.577053953E-1,7.640135694E-1,-8.076156718E-1,1.141215088E0
1.162973646E1,1.151721682E0,-2.491109750E-1,2.072920979E0,2.384432951E0
1.163970646E1,7.115522043E-1,2.983230422E0,1.905461401E-1,3.072829010E0
1.164967646E1,2.916306116E-1,4.184682966E0,-6.895079382E0,8.070857428E0
1.165964646E1,-7.050745127E-1,3.165096371E0,-4.780770641E0,5.776740692E0
1.166961646E1,-2.957154764E0,-1.096630970E0,-1.478041046E0,3.483097633E0
1.167958646E1,-5.071033589E-1,5.792377540E-1,1.124398520E0,1.362696674E0
1.168955646E1,4.556637217E-1,3.239606855E0,2.139496207E-2,3.271565336E0
1.169952546E1,-6.172534266E-1,1.047773390E0,1.893525479E0,2.250393213E0
1.170949546E1,5.878660882E-1,-4.783551577E-1,3.168231940E-1,8.214542780E-1
1.171946546E1,8.828710914E-2,-8.552663863E-2,-2.851533877E0,2.854181997E0
1.172943546E1,-3.006728920E-1,5.053119913E-1,-2.481861209E0,2.550564537E0
1.173940546E1,-3.728331977E-1,-2.793227196E0,-8.846924990E-1,2.953608569E0
1.174937546E1,7.788761683E-1,-3.357694884E0,4.053561201E0,5.320913590E0
1.175934546E1,-4.979413932E-1,-2.416775267E0,1.510719380E0,2.893271741E0
1.176931546E1,-3.232571047E-1,-1.505707439E0,1.452718509E0,2.117083162E0
1.177928546E1,1.010203641E0,-2.069168821E-1,3.854151267E-1,1.100850041E0
1.178925446E1,4.604857743E-2,-6.189228067E-1,-2.511549277E0,2.587095994E0
1.179922446E1,-1.396617253E0,-2.348848747E0,-2.888445010E0,3.976272722E0
1.180919446E1,-1.164987845E0,-1.321827418E0,-2.135237680E0,2.768332413E0
1.181916446E1,-6.427651940E-1,-2.751231616E0,1.241122393E0,3.085904616E0
1.182913446E1,2.018852799E-1,-2.865576550E0,4.018805351E0,4.939947680E0
1.183910446E1,1.049058462E-1,-1.092111365E0,2.876465819E0,3.078598395E0
1.184907446E1,1.738359672E-1,8.772782296E-2,4.078335854E0,4.082981564E0
1.185904446E1,1.067065182E0,1.816971978E0,1.093441021E0,2.373947880E0
1.186901446E1,-1.260759097E-1,-8.957536769E-1,2.621569902E0,2.773246930E0
1.187898346E1,-1.420519647E-1,-3.124632177E-1,2.292469309E0,2.318022337E0
1.188895346E1,-1.226667199E0,-1.366133817E0,-6.071035373E-1,1.933806797E0
1.189892346E1,-1.156101831E0,-7.331823707E-1,-1.085818006E0,1.747320399E0
1.190889346E1,-1.085702816E0,2.424791799E0,-2.741781054E0,3.817817338E0
1.191886346E1,-1.089636823E0,5.988308966E-2,-1.576682990E0,1.917504535E0
1.192883346E1,-1.597913353E0,-7.816119343E-1,8.302929282E-2,1.780768980E0
1.193880346E1,-5.928949495E-1,-3.059152132E-1,2.488736365E0,2.576609639E0
1.194877346E1,1.874657245E0,-9.478599697E-2,2.603997849E0,3.210004513E0
1.195874246E1,1.356994911E0,8.049683449E-1,2.134420824E-1,1.592157891E0
1.196871246E1,1.332518759E0,-3.082516729E0,-9.568524027E-1,3.491859411E0
1.197868246E1,9.547129796E-1,-3.018911594E-1,-3.764500002E0,3.895391561E0
1.198865246E1,6.312457406E-1,3.772034432E0,-6.053179731E0,7.160146632E0
1.199862246E1,-5.415336650E-1,9.515700281E-2,-4.878396338E0,4.909283491E0
1.200859246E1,7.077994613E-1,-4.528951236E0,4.813347818E0,6.646856144E0
1.201856246E1,5.780279651E-1,-2.756642045E0,3.771327796E0,4.707027197E0
1.202853246E1,6.860662378E-1,1.614594289E0,1.428832633E0,2.262557026E0
1.203850246E1,-2.645063283E-1,5.263127925E0,-1.460912797E0,5.468523142E0
1.204847146E1,2.939287720E0,5.269419529E0,-3.009589378E0,6.742686609E0
1.205844146E1,1.323173008E-1,2.704316189E0,-3.217128696E0,4.204848507E0
1.206841146E1,2.324257405E0,2.216097656E0,-4.681333476E0,5.676983743E0
1.207838146E1,3.005551876E0,2.158211098E0,1.315614751E0,3.927092995E0
1.208835146E1,-8.754760446E-1,1.034466881E0,4.613192364E0,4.808131011E0
1.209832146E1,2.655796286E0,1.766770416E0,1.683321585E0,3.606702535E0
1.210829146E1,2.403267614E0,1.772066531E0,-1.734162540E0,3.453003726E0
1.211826146E1,3.939189955E0,1.079919043E0,1.592378086E-1,4.087639823E0
1.212823146E1,1.944521386E0,-4.894771466E-1,4.864043178E0,5.261146960E0
1.213820046E1,9.218641991E-1,-7.200506938E-1,-3.011690283E-1,1.207894609E0
1.214817046E1,4.672155687E0,-1.322296949E0,-3.562483964E0,6.022358340E0
1.215814046E1,3.138592112E0,-1.940428627E0,5.797602028E-1,3.735257099E0
1.216811046E1,5.747161753E-1,-2.721539748E-1,3.559511240E0,3.615865973E0
1.217808046E1,5.858606759E-1,-3.033629621E0,5.007698742E0,5.884147185E0
1.218805046E1,6.932891572E-1,-3.847540990E-1,4.388212556E-1,9.062282640E-1
1.219802046E1,1.418351792E0,3.084829595E0,-2.740913327E0,4.363542289E0
1.220799046E1,1.953613222E0,-2.560976375E0,1.260595375E-1,3.223522238E0
1.221795946E1,1.000217474E0,-3.307829244E0,-3.988347790E0,5.277223455E0
1.222792946E1,6.788813985E-1,-1.102465906E0,-1.262266510E0,1.808211207E0
1.223789946E1,-3.069492348E0,9.391125351E-2,4.598870194E-1,3.105172889E0
1.224786933E1,-1.413864785E-1,-8.203868678E-1,4.426567951E0,4.504167912E0
1.225783933E1,5.560316900E-1,1.967113566E0,-3.533215141E-1,2.074498280E0
1.226780933E1,1.667455165E0,3.100766766E-1,-3.345975602E-1,1.728730691E0
1.227777933E1,7.019638670E-1,-2.688527245E0,2.208361790E0,3.549337095E0
1.228774933E1,3.218539630E0,-1.413256236E0,2.706165664E0,4.436172126E0
1.229771933E1,1.119427071E0,-2.994914621E-2,-7.945553309E-1,1.373073957E0
1.230768833E1,1.647672573E0,-1.705816116E0,2.551101013E0,3.483209713E0
1.231765833E1,-4.825925618E-1,1.297736304E0,1.610199230E0,2.123618764E0
1.232762833E1,2.045095103E-1,1.829321590E0,1.236990166E0,2.217743513E0
1.233759833E1,-3.976071560E-1,-8.840908206E-1,1.115731777E0,1.478027546E0
1.234756833E1,-5.507378402E-1,-9.867582795E-1,-3.741633296E0,3.908557764E0
1.235753833E1,-9.041866775E-1,-2.788461716E0,-3.350325930E-1,2.950477779E0
1.236750833E1,-6.397538779E-1,-2.385459334E-1,4.868280655E0,4.915927758E0
1.237747833E1,4.586726989E-1,1.978153401E0,3.889667255E0,4.387822111E0
1.238744833E1,2.576971434E0,7.240484351E-1,-3.526555163E-1,2.699887742E0
1.239741733E1,1.002882342E0,8.835979003E-1,-2.455684978E0,2.795873201E0
1.240738733E1,-4.704193166E-1,1.379179248E0,3.923733133E-1,1.509101238E0
1.241735733E1,-9.354440651E-1,-1.775894119E0,8.276839006E-1,2.171155489E0
1.242732733E1,-9.802156837E-1,1.036897277E0,1.145159059E0,1.829581378E0
1.243729733E1,-9.756072007E-1,3.063842769E0,-4.191442055E0,5.282719794E0
1.244726733E1,-8.330172922E-1,-7.485225409E-2,-2.677617218E0,2.805201354E0
1.245723733E1,-2.639949528E-1,2.528935388E-1,-3.537299421E0,3.556140559E0
1.246720733E1,-1.432093918E0,-3.906217799E-1,-5.776963111E0,5.964627494E0
1.247717733E1,-2.773003724E0,9.124714512E-1,-4.297107089E-1,2.950729587E0
1.248714633E1,-3.992677287E-1,1.665745732E0,3.547539650E0,3.939436652E0
1.249711633E1,9.589688755E-1,2.066130023E0,2.780213633E0,3.594176181E0
1.250708633E1,4.287770547E-2,5.924226406E-1,-4.052135065E0,4.095436688E0
1.251705633E1,3.789178834E-1,-1.257627621E0,-4.290997333E0,4.487523159E0
1.252702633E1,9.572034549E-2,2.258560136E-1,-2.558379627E0,2.570112768E0
1.253699633E1,-8.595757842E-1,-2.446924972E0,3.098056582E0,4.040330052E0
1.254696633E1,-2.587824451E0,-2.497327971E0,6.804939290E0,7.696796810E0
1.255693633E1,-3.612115642E-1,-2.132348571E0,1.097723756E1,1.118825852E1
1.256690533E1,4.329665847E-2,-2.119878214E0,2.140460413E0,3.012860605E0
1.257687533E1,-1.757298950E0,-8.368099424E-1,-5.600499989E0,5.929076708E0
1.258684533E1,-4.978050435E0,1.894545234E0,-4.664201134E0,7.079905366E0
1.259681533E1,-2.457810149E0,-5.356061232E-1,-8.198817853E0,8.576031649E0
1.260678533E1,-2.661944633E0,-5.323238472E0,-3.862177155E0,7.095014407E0
1.261675533E1,-2.022500585E0,-4.603390676E0,2.571979666E0,5.647724651E0
1.262672533E1,-1.106606905E0,-6.204156593E0,6.385182881E0,8.971437917E0
1.263669533E1,-9.749179602E-1,-3.135516769E-1,6.946079382E0,7.021167884E0
1.264666533E1,1.128882969E0,3.933400335E0,2.266299511E0,4.677833732E0
1.265663433E1,-3.810374260E-1,6.410682589E-2,2.991856527E0,3.016704275E0
1.266660433E1,-7.930955004E-2,-2.422710775E0,1.021302168E0,2.630375567E0
1.267657433E1,7.320025487E-1,-1.427965199E0,-1.710275495E-1,1.613741852E0
1.268654433E1,-5.030015371E-1,-1.053052256E0,-1.354391731E0,1.787821737E0
1.269651433E1,-3.254627183E0,3.537103540E-1,-4.290456465E0,5.396825529E0
1.270648433E1,-2.799625658E-1,-8.282686222E-1,-5.386115336E0,5.456614918E0
1.271645433E1,-2.661206130E0,8.117274338E-1,-4.557653756E0,5.339768464E0
1.272642433E1,-1.819020842E0,1.826480428E0,-7.550167510E0,7.978088556E0
1.273639333E1,8.572437684E-1,-4.595699834E0,-1.702112782E-1,4.678065382E0
1.274636333E1,-1.234910384E-1,-7.112789347E0,1.075435106E1,1.289430452E1
1.275633333E1,6.457219116E-1,-4.024013466E0,1.730399974E1,1.777745899E1
1.276630333E1,-1.692641754E-1,6.881439582E0,6.677576993E0,9.590250027E0
1.277627333E1,-1.088869961E0,9.014793289E0,1.705590121E0,9.239111077E0
1.278624333E1,6.666325781E-1,4.291686135E0,2.433418196E0,4.978402655E0
1.279621333E1,-6.919616017E-2,-2.552100594E0,-3.992740218E0,4.739196134E0
1.280618333E1,-3.331670973E0,-4.393481482E0,-1.206082485E1,1.326145570E1
1.281615333E1,-1.466823455E0,1.202938905E-1,-1.502292841E1,1.509484745E1
1.282612233E1,1.637384470E-1,-1.589937166E0,-8.468783800E0,8.618295047E0
1.283609233E1,3.146215127E0,-1.686826406E0,1.999741906E-1,3.575477958E0
1.284606233E1,6.094926365E-1,2.355961300E0,4.805713109E0,5.386734949E0
1.285603233E1,1.534095818E0,3.284135741E0,1.084325212E1,1.143307107E1
1.286600233E1,3.923201036E-1,6.354248772E0,3.032954852E0,7.051893905E0
1.287597233E1,-1.457684404E0,5.750116789E0,-6.986187188E0,9.164905801E0
1.288594233E1,-1.025317085E0,3.138588896E0,-5.971336253E0,6.823406190E0
1.289591233E1,-1.008492526E0,-5.028049976E-2,3.336356932E-1,1.063436919E0
1.290588233E1,-2.174417095E0,-2.162540961E0,9.455778015E-1,3.209172867E0
1.291585133E1,-1.264177380E0,2.194320578E0,1.649687231E0,3.022359212E0
1.292582133E1,5.772069430E-1,-2.188329521E0,4.283428697E0,4.844555227E0
1.293579133E1,2.724189706E0,-1.479693469E0,1.129916537E0,3.299608113E0
1.294576133E1,-1.027624397E-1,2.223382702E0,-2.336694140E0,3.227093160E0
1.295573133E1,-4.018479954E0,2.775538492E0,-2.124992774E0,5.326104519E0
1.296570133E1,-6.094752045E-1,-2.115264761E0,-3.770192267E0,4.365793715E0
1.297567133E1,-7.474895572E-1,-2.378803740E0,-5.017515632E0,5.602937711E0
1.298564133E1,-2.263343889E-2,-4.097327903E0,2.290371328E0,4.694082342E0
1.299561133E1,-2.109531054E-2,-2.842580620E0,5.590342206E0,6.271573613E0
1.300558033E1,6.508959666E-2,-1.671515764E0,-1.935498548E-1,1.683942740E0
1.301555033E1,-9.141874628E-1,-8.422818253E0,-1.246457393E0,8.563484225E0
1.302552033E1,-3.873136299E0,-6.583519267E0,3.796257985E0,8.529682609E0
1.303549033E1,-1.622645028E0,-4.559313780E0,9.067181418E0,1.027784500E1
1.304546033E1,4.185741385E-1,-5.519081604E-1,7.107436806E0,7.141110899E0
1.305543033E1,-1.526348549E0,1.376141911E0,4.171414171E0,4.650183076E0
1.306540033E1,-1.487805750E0,-7.939133066E-1,1.651926715E0,2.360662229E0
1.307537033E1,1.596991978E0,-2.231323513E0,-1.536223766E0,3.144705305E0
1.308534033E1,-2.282563979E0,1.419776466E0,-8.297292566E-1,2.813239089E0
1.309530933E1,-2.910489890E0,1.514572695E0,-1.969978994E0,3.826969962E0
1.310527933E1,2.596038035E0,-2.795892942E-1,-9.856557870E-1,2.790896089E0
1.311524933E1,1.037282352E-1,-4.628055401E0,2.938241653E0,5.482966383E0
1.312521933E1,1.242690324E0,2.323715368E0,-2.663848779E0,3.747001824E0
1.313518933E1,-4.003830120E-1,1.937017947E0,-1.442443197E0,2.448057895E0
1.314515933E1,-5.847963365E-1,3.331651677E0,-1.602291455E0,3.742890269E0
1.315512933E1,1.742283738E0,-1.334384313E-1,-1.577788698E0,2.354310008E0
1.316509933E1,-4.754719687E-1,7.169914305E-1,-1.103649675E0,1.399354462E0
1.317506833E1,-1.188498183E0,3.854147174E0,2.126542286E0,4.559513182E0
1.318503833E1,-2.780066356E-1,-2.417196558E0,3.819465584E-1,2.462927133E0
1.319500833E1,-1.195786153E0,-2.583347238E0,-1.270579496E0,3.117364228E0
1.320497833E1,-7.500983655E-1,1.057720381E0,-7.370277336E0,7.483475661E0
1.321494833E1,3.352951330E-1,3.913322458E0,-9.006287345E0,9.825463206E0
1.322491833E1,1.058214471E0,5.414856740E0,-5.251928169E0,7.617298791E0
1.323488833E1,-5.936224893E-1,1.781200467E0,5.536211023E0,5.845912696E0
1.324485833E1,1.341742303E-2,-2.663915730E0,1.331040641E1,1.357437092E1
1.325482825E1,-1.866387748E-1,-3.144951544E0,7.801567377E0,8.413679801E0
1.326479825E1,3.652324386E-1,3.673443652E0,-1.123254805E0,3.858663545E0
1.327476725E1,3.561942877E-1,2.156914478E0,-4.894493138E0,5.360523996E0
1.328473725E1,-5.989549307E-1,-3.689359188E-1,-1.579405453E0,1.728983027E0
1.329470725E1,5.590875180E-1,3.562696803E-1,-1.966996329E0,2.075712286E0
1.330467725E1,1.679860180E0,-2.063968600E0,-1.325262657E0,2.972914010E0
1.331464725E1,1.584844826E0,1.092015763E0,-4.330348510E0,4.738792015E0
1.332461725E1,5.542900968E-1,1.289161070E0,-5.027600325E0,5.219764248E0
1.333458725E1,3.695536771E0,-5.684402856E0,3.793556571E-1,6.790680273E0
1.334455725E1,1.931377138E0,-8.955151690E0,5.023735315E0,1.044810394E1
1.335452625E1,5.999518809E-1,-3.349307053E0,7.420738807E0,8.163648965E0
1.336449625E1,1.957391108E0,5.059230253E-1,1.860571157E0,2.747555838E0
1.337446625E1,3.116920869E0,-5.603854537E-2,1.025527366E0,3.281774276E0
1.338443625E1,4.472029176E0,-1.886969581E-1,-5.852875757E-1,4.514112653E0
1.339440625E1,1.405755135E0,-2.417935646E0,1.392857054E0,3.124517733E0
1.340437625E1,6.967220575E-1,-2.833584094E-1,5.824048984E-1,9.512670914E-1
1.341434625E1,2.654717475E0,3.663349019E0,3.668934864E-1,4.538971440E0
1.342431625E1,1.846220628E0,1.101866859E-1,1.835010054E0,2.605366310E0
1.343428625E1,1.192939728E0,-3.918765923E0,7.882116866E-1,4.171463678E0
1.344425525E1,-5.545549026E-1,-2.167338602E0,-6.610242212E-1,2.332775337E0
1.345422525E1,7.321639319E-1,1.938178619E0,-7.285572231E-1,2.196223124E0
1.346419525E1,1.394072252E0,4.518943726E0,-6.524503904E0,8.058128879E0
1.347416525E1,2.282408151E0,2.219154873E0,-1.561011282E0,3.545531207E0
1.348413525E1,1.450418653E-1,1.651089393E0,6.840236592E-1,1.793048157E0
1.349410525E1,-4.325843230E-2,3.186672304E0,4.624807858E0,5.616546928E0
1.350407525E1,1.106225739E0,8.729673699E-1,1.675157118E0,2.189054313E0
1.351404525E1,9.604407658E-1,-1.332234292E0,2.089662727E0,2.657815830E0
1.352401525E1,5.984347478E-2,1.946817003E0,-4.148539279E0,4.583018201E0
1.353398425E1,7.837806666E-1,-2.385693222E-1,-3.661299570E0,3.751845145E0
1.354395425E1,-1.960809682E0,7.784061983E-1,-1.125172691E0,2.390963071E0
1.355392425E1,-5.173321856E-1,7.786105585E-1,-3.937654769E0,4.047096746E0
1.356389425E1,-6.925613250E-1,2.921903363E-1,-6.030552176E0,6.077217778E0
1.357386425E1,-2.047502694E-1,-7.219381750E-1,2.651977177E0,2.756102384E0
1.358383425E1,9.430618908E-1,-1.456693739E0,8.381850321E0,8.559599125E0
1.359380425E1,5.437966105E-1,7.008934611E-1,5.909994283E0,5.976202710E0
1.360377425E1,1.866810574E0,3.497248041E0,3.857284205E0,5.531217499E0
1.361374425E1,3.944441047E0,6.299539883E0,-2.599664478E0,7.874076029E0
1.362371325E1,5.063801606E0,1.693430251E0,-2.451535209E0,5.875356807E0
1.363368325E1,1.301866193E0,-4.921264615E0,7.208821678E-1,5.141339523E0
1.364365325E1,-7.302638061E-1,-1.018230625E0,9.957650381E-1,1.600508308E0
1.365362325E1,-1.648855757E0,6.871763025E0,3.070950644E0,7.705231355E0
1.366359325E1,-1.656696142E0,2.841353289E0,7.896068323E-1,3.382515273E0
1.367356325E1,-1.328550546E0,-7.512602073E-1,-8.300897959E0,8.440044158E0
1.368353325E1,-2.991012774E0,-1.935907853E0,-1.365104532E1,1.410832856E1
1.369350325E1,-2.287115306E0,-5.735128037E0,-4.583555751E0,7.689705674E0
1.370347325E1,-3.618068473E-1,-3.365558512E0,8.700604266E0,9.335866477E0
1.371344225E1,-9.415220265E-1,1.190528190E-1,1.226944415E1,1.230609187E1
1.372341225E1,-2.739544787E0,5.515546963E-1,5.416336085E0,6.094753056E0
1.373338225E1,-1.936916351E0,2.185005087E-1,-4.355913706E0,4.772145391E0
1.374335225E1,2.155104619E-1,-3.969812993E0,-3.059952616E0,5.016888475E0
1.375332225E1,3.286217058E-1,-2.631286220E0,-2.396802932E0,3.574398368E0
1.376329225E1,2.687257522E0,-1.145270449E0,8.851123291E-1,3.052281315E0
1.377326225E1,2.739886556E0,3.259141526E-1,3.614839348E0,4.547555595E0
1.378323225E1,1.693823184E0,-2.839278405E0,1.943173018E0,3.834900288E0
1.379320125E1,1.017954125E0,1.770130810E0,-3.114860310E0,3.724506469E0
1.380317125E1,4.101189111E0,2.446975258E0,-7.088012356E-1,4.828026433E0
1.381314125E1,3.106161407E0,-1.167657683E0,4.469004119E0,5.566296881E0
1.382311125E1,1.502990092E0,-3.356322250E-1,3.985958617E0,4.273112953E0
1.383308125E1,3.280768037E0,-4.147199682E0,1.775138658E-1,5.290955990E0
1.384305125E1,1.407089470E0,7.809164080E-1,-1.260925743E0,2.044422887E0
1.385302125E1,-4.044060791E-1,9.910817108E-1,-2.151565445E0,2.403127358E0
1.386299125E1,-2.611172383E0,-1.631588637E0,2.029023592E0,3.687443482E0
1.387296125E1,1.659520201E0,1.919898761E0,-5.153320724E-1,2.589514568E0
1.388293025E1,1.672578496E0,-1.772125588E0,5.600485956E0,6.107650192E0
1.389290025E1,2.417855540E0,-1.354720929E-1,2.143319117E0,3.233913254E0
1.390287025E1,2.018947670E0,7.256912103E-1,-5.895607209E-1,2.224940285E0
1.391284025E1,1.247023403E0,-2.449254795E0,-2.793337709E0,3.918756432E0
1.392281025E1,1.449643020E0,-8.440569815E-1,-8.778147116E0,8.936988524E0
1.393278025E1,-1.621353671E0,2.692566794E0,-3.065862982E0,4.390696925E0
1.394275025E1,2.646619666E0,3.004065514E0,3.376498652E0,5.237341732E0
1.395272025E1,3.428333634E0,1.153689562E0,-1.309709063E0,3.847051981E0
1.396269025E1,3.686019697E-1,-6.878951007E-1,-1.309722512E0,1.524611472E0
1.397265925E1,3.057468134E0,-3.405701109E0,-7.225538868E-1,4.633464746E0
1.398262925E1,2.291347228E0,-2.020430232E0,1.616109011E0,3.456040911E0
1.399259925E1,4.321420688E0,1.782583918E0,1.741055823E0,4.988342166E0
1.400256925E1,2.796947195E0,1.447795739E0,4.991528851E0,5.902066281E0
1.401253925E1,2.347786893E0,1.129037993E0,4.000839781E0,4.774259004E0
1.402250925E1,4.377798080E0,4.668028429E0,-1.955392529E0,6.691723649E0
1.403247925E1,-1.087994706E0,4.050388794E0,-1.765488998E0,4.550421219E0
1.404244925E1,-7.450943915E-1,1.113155494E0,-5.307391933E0,5.473818588E0
1.405241925E1,1.756871372E0,-9.020160449E-1,-2.307142897E0,3.036962020E0
1.406238825E1,1.062657697E0,7.879330668E-1,8.815069360E-1,1.589696316E0
1.407235825E1,2.008052846E0,3.265058908E-1,1.416338303E0,2.478890179E0
1.408232825E1,3.725552576E0,2.051059409E0,2.768398749E0,5.074506708E0
1.409229825E1,-9.601603188E-2,1.707933393E0,9.729000860E-1,1.967940581E0
1.410226825E1,3.502430720E0,1.653301103E0,-3.276921739E0,5.073326480E0
1.411223825E1,3.279276413E0,1.804955950E0,1.183631399E0,3.925876088E0
1.412220825E1,3.116308373E0,-1.876705964E0,5.071678975E0,6.241420574E0
1.413217825E1,3.176427105E0,-3.694281082E0,2.925593541E0,5.683000918E0
1.414214725E1,8.338568062E-1,-1.002923784E0,-3.809928775E-1,1.358796844E0
1.415211725E1,1.061903406E0,7.222632802E-1,-6.351035142E-1,1.432710565E0
1.416208725E1,2.423575286E0,-3.744641396E0,2.299711086E0,5.018438744E0
1.417205725E1,2.048518940E0,4.676065135E-1,1.520549719E0,2.593676377E0
1.418202725E1,2.426580755E0,8.285036802E-1,-1.548432167E0,2.995388904E0
1.419199725E1,3.032962161E0,-4.936483748E0,4.687011123E-2,5.793956168E0
1.420196725E1,-5.757134179E-1,-2.189254258E0,2.802815461E0,3.602784292E0
1.421193725E1,-9.776133073E-1,8.172080290E-1,4.960453824E0,5.121489908E0
1.422190725E1,-2.510505256E0,-1.470861250E0,1.380614154E0,3.220584559E0
1.423187625E1,-1.369571395E-1,-2.186952209E0,1.057387674E0,2.433019917E0
1.424184625E1,-1.220560148E0,3.516812532E0,2.041229070E0,4.245509814E0
1.425181596E1,-1.477577070E0,1.089842060E-1,1.403667387E0,2.040929613E0
1.426178596E1,-1.334010969E0,-1.396830530E0,-1.788291385E0,2.632243695E0
1.427175596E1,-1.722269889E0,-2.089283243E0,-1.228888264E0,2.973463368E0
1.428172596E1,-1.693400723E0,-2.233902720E0,-1.544703982E0,3.200630838E0
1.429169596E1,2.742550255E-1,-4.523979056E-1,-5.120944691E0,5.148199123E0
1.430166596E1,-2.811623122E0,3.760709837E-1,-6.374108255E0,6.976812310E0
1.431163496E1,-2.342237593E0,1.320523489E-1,-4.507370625E0,5.081329030E0
1.432160496E1,-1.929878789E0,-1.392024996E0,1.057468951E0,2.603921333E0
1.433157496E1,-1.442629139E0,-2.596337704E0,3.197533507E0,4.364214573E0
1.434154496E1,2.438011915E-1,-1.793132003E0,-5.355219233E-1,1.887205641E0
1.435151496E1,2.020796268E-1,2.640760463E0,1.581737323E0,3.084857365E0
1.436148496E1,-8.451656136E-1,2.933598087E0,4.085837831E0,5.100428750E0
1.437145496E1,1.834566688E0,8.192875913E-1,1.300244175E0,2.393220008E0
1.438142496E1,9.747019055E-1,-1.949519001E0,-2.133234424E0,3.049812658E0
1.439139496E1,-1.058156876E0,1.016691638E0,-3.738260622E0,4.015961944E0
1.440136396E1,-4.692903654E-1,4.445187825E-1,-1.085292342E0,1.263206184E0
1.441133396E1,6.984238896E-1,-2.489262030E-1,7.545013189E-1,1.057843289E0
1.442130396E1,-1.160927246E0,3.308852799E0,-9.677241307E-1,3.637684553E0
1.443127396E1,-1.466025310E0,2.419738051E0,4.111240475E0,4.990657340E0
1.444124396E1,9.401460305E-2,2.070161678E0,1.651077699E0,2.649616140E0
1.445121396E1,1.026842405E0,1.463683501E0,-1.342458149E0,2.235837336E0
1.446118396E1,4.899864390E-1,-3.463554338E-1,1.108572446E0,1.260548161E0
1.447115396E1,1.359138647E0,7.837371048E-1,2.276208787E0,2.764530367E0
1.448112296E1,-4.628281323E-1,2.061254615E0,1.278914702E0,2.469535033E0
1.449109296E1,-2.275627135E0,-1.904988653E0,2.043728170E0,3.603371402E0
1.450106296E1,-7.573604612E-1,-3.160320950E0,-3.009656621E0,4.429362974E0
1.451103296E1,-7.371572348E-1,-4.025753305E0,-5.786281818E-1,4.133388566E0
1.452100296E1,-1.112715198E0,-1.358499692E0,-7.290366948E-2,1.757547004E0
1.453097296E1,-1.936315404E0,-1.698773145E0,2.198524434E0,3.386540599E0
1.454094296E1,-1.291820384E0,-1.311260037E0,7.329730403E-1,1.981275414E0
1.455091296E1,6.267080820E-1,1.641752560E0,-9.677995598E-1,2.006178077E0
1.456088196E1,7.491259736E-1,2.314354268E-1,-2.048443365E-1,8.103784815E-1
1.457085196E1,8.055551130E-1,-2.159391066E0,-3.221776063E0,3.961278811E0
1.458082196E1,-1.425734925E0,2.723934183E-1,-1.651175932E0,2.198476793E0
1.459079196E1,-4.482261730E-1,-2.771699210E0,2.148887420E0,3.535666890E0
1.460076196E1,3.346578450E0,-1.994192606E0,-3.078845555E-1,3.907836277E0
1.461073196E1,4.623044922E0,1.318735118E0,-7.835491168E-1,4.870888613E0
1.462070196E1,8.123403682E-1,4.747868943E-1,-3.119163276E0,3.257990026E0
1.463067196E1,-1.675068679E-1,-1.149823675E0,7.004543352E-1,1.356756909E0
1.464064096E1,2.699798338E0,-7.858757240E-1,1.036823602E0,2.996917567E0
1.465061096E1,3.113736183E0,3.500500262E0,-1.552001308E0,4.935338201E0
1.466058096E1,5.846636047E-1,2.378423671E0,1.699739397E0,2.981248851E0
1.467055096E1,-9.661373426E-1,-1.468841330E0,4.402113726E0,4.740202683E0
1.468052096E1,3.914498041E0,-2.993596659E0,4.496022933E0,6.670767428E0
1.469049096E1,1.843564238E0,-1.042628425E0,-3.432658820E0,4.033478611E0
1.470046096E1,2.348519695E0,-3.117635983E-1,-6.791605884E0,7.192958486E0
1.471043096E1,1.248785461E0,-2.245978682E0,2.830779769E0,3.823244626E0
1.472040096E1,-1.725848092E-1,-3.137937808E0,1.151079950E0,3.346852888E0
1.473036996E1,-4.516094086E-1,-5.924068531E-1,-1.235711380E0,1.442871980E0
1.474033996E1,-1.006148304E0,3.277983593E0,-1.090736684E0,3.598224196E0
1.475030996E1,-4.347675271E-1,6.434755576E-1,-1.608550900E0,1.786202562E0
1.476027996E1,-3.679782180E-1,-3.459304289E0,7.708764464E-1,3.563207071E0
1.477024996E1,2.161609646E-1,2.251420686E-1,-9.939792985E-1,1.041829813E0
1.478021996E1,-1.227469437E0,-4.162445712E-1,-5.487984942E0,5.638964398E0
1.479018996E1,-1.550338067E-2,1.739847203E0,-3.838185444E0,4.214140025E0
1.480015996E1,9.460721835E-3,-1.301034134E0,1.641770686E0,2.094800780E0
1.481012896E1,-4.216209398E-1,-5.013482223E0,7.227418163E0,8.806153616E0
1.482009896E1,-2.466359217E-1,1.803437428E0,5.570602006E0,5.860445593E0
1.483006896E1,5.273191568E-1,8.382444983E0,-3.540839326E0,9.114877537E0
1.484003896E1,1.910903697E0,1.389445496E0,-2.622740514E0,3.529997101E0
1.485000896E1,-4.493056056E-1,-4.374781209E0,1.518357013E0,4.652525569E0
1.485997896E1,1.133590051E0,1.369082568E0,-2.372636390E0,2.964593888E0
1.486994896E1,2.295807777E0,4.883017977E0,-6.081252798E0,8.129959010E0
1.487991896E1,1.240887335E0,3.600481510E0,-4.199785447E0,5.669344431E0
1.488988796E1,7.441292354E-1,-2.354681929E0,-7.170861554E-1,2.571471925E0
1.489985796E1,-4.979959550E-1,-5.461272522E0,6.604818919E0,8.584703285E0
1.490982796E1,-9.179492690E-1,3.716230068E-1,2.610128655E0,2.791685175E0
1.491979796E1,1.195961057E0,3.207047804E0,2.113173212E0,4.022558824E0
1.492976796E1,8.769378486E-1,1.500478567E0,3.226318181E-1,1.767638880E0
1.493973796E1,2.100412102E0,-3.933951727E0,5.785638624E-1,4.496937106E0
1.494970796E1,2.304599650E0,-3.120011415E0,1.183149004E0,4.055304223E0
1.495967796E1,2.833824122E0,4.373274089E0,3.357570630E-1,5.221955402E0
1.496964696E1,1.529621967E0,1.519748651E0,1.276465303E0,2.505742005E0
1.497961696E1,9.955862595E-1,-5.347319645E0,4.473551499E0,7.042562204E0
1.498958696E1,5.247623156E-1,-3.254478956E0,5.224417019E0,6.177502889E0
1.499955696E1,7.688050702E-2,4.539243212E-1,6.162260708E0,6.179434840E0
1.500952696E1,-7.909973001E-1,4.173141147E0,-4.156923017E0,5.943129876E0
1.501949696E1,2.866484330E0,9.738061121E-1,-1.089737395E0,3.217539176E0
1.502946696E1,-3.443065694E-1,5.470947325E-3,2.806551831E0,2.827597943E0
1.503943696E1,-8.929443821E-1,2.935848972E-1,-1.106334132E-1,9.464573490E-1
1.504940596E1,2.162947343E0,1.640885125E0,3.985163981E-1,2.744022690E0
1.505937596E1,-1.871967088E-1,1.739204887E0,-1.805108562E0,2.513621524E0
1.506934596E1,-1.773983833E-1,-2.518073015E0,1.012765818E0,2.719900090E0
1.507931596E1,2.419523750E-1,-2.137835598E0,-4.684391570E-1,2.201889470E0
1.508928596E1,-1.294067177E0,9.113367990E-1,2.589304966E0,3.034739663E0
1.509925596E1,2.394013956E0,1.608803207E0,2.870917981E0,4.069609396E0
1.510922596E1,2.678709478E0,2.418757473E0,-2.912533200E-1,3.620870154E0
1.511919596E1,2.187110669E0,3.027624823E0,-1.276266498E0,3.947001560E0
1.512916496E1,3.357518736E-1,-1.955916732E0,-5.407183439E-1,2.056870417E0
1.513913496E1,2.530367371E0,4.746503618E-1,-2.056124852E0,3.294799145E0
1.514910496E1,1.044543754E0,-1.616658649E-1,-5.995576470E0,6.088032910E0
1.515907496E1,-8.289933114E-1,1.571814890E0,-8.792588570E0,8.970364859E0
1.516904496E1,1.482415787E0,-2.717147027E0,-5.682085020E0,6.470435434E0
1.517901496E1,2.043870258E0,-4.824604001E0,-1.077908478E0,5.349401469E0
1.518898496E1,2.125469760E0,8.876716554E-1,3.336484401E0,4.054344685E0
1.519895496E1,2.080562267E0,4.666844076E0,1.182053236E0,5.244561262E0
1.520892396E1,2.502351314E0,2.694360720E0,3.037165432E0,4.769246864E0
1.521889396E1,-5.261963452E-1,-5.344296634E-2,-1.111207201E0,1.230658437E0
1.522886396E1,-4.980599090E-1,-2.210543093E0,2.708196402E-2,2.266119563E0
1.523883396E1,-2.772767935E-1,-1.036553460E0,2.121402583E0,2.377325055E0
1.524880383E1,5.121992804E-1,-1.655442646E0,6.968065497E0,7.180304675E0
1.525877383E1,1.760765910E0,3.071141848E-1,6.557605577E0,6.796823273E0
1.526874383E1,5.035980262E-1,4.495845178E-1,3.378814149E0,3.445594617E0
1.527871383E1,5.175275557E-1,-1.966184735E-2,-2.371358773E0,2.427254373E0
1.528868283E1,-1.618431817E0,-2.270019217E0,-4.194860922E0,5.036781407E0
1.529865283E1,-1.636733017E0,-4.956068412E0,5.479916954E-1,5.248028580E0
1.530862283E1,-1.553135521E0,-5.155785325E0,-3.312932401E0,6.322173152E0
1.531859283E1,4.128704354E-1,-2.475273736E0,6.035139316E-1,2.581021334E0
1.532856283E1,-6.373136155E-2,-6.949453810E-1,4.417534003E0,4.472316787E0
1.533853283E1,1.495476859E0,-1.221616959E0,2.709533660E0,3.327216807E0
1.534850283E1,3.594510626E0,-1.789112334E0,3.022345664E0,5.025535086E0
1.535847283E1,2.098963308E0,-2.711064461E-1,1.316266716E-2,2.116440155E0
1.536844183E1,2.628983002E0,1.677516469E0,-3.879933395E0,4.977900790E0
1.537841183E1,1.821971640E0,-2.253083341E0,-4.039258912E0,4.971074105E0
1.538838183E1,-1.288730423E0,-5.234288873E0,3.555611731E0,6.457629665E0
1.539835183E1,3.480316478E-1,-6.553784421E-1,5.469456870E0,5.519565688E0
1.540832183E1,-1.117022842E-2,5.285154971E0,4.701546716E0,7.073721041E0
1.541829183E1,-4.489447593E-1,5.652841340E0,-2.469720635E0,6.185118158E0
1.542826183E1,2.094955773E-1,-5.338604370E-1,-2.504391700E-1,6.257916114E-1
1.543823083E1,-1.182434913E-1,-1.785636165E0,-3.685991192E-1,1.827113392E0
1.544820083E1,7.657608636E-1,-6.565768290E-1,5.318387622E-1,1.140322455E0
1.545817083E1,-2.104880691E-2,2.882539615E0,-3.216759152E0,4.319376937E0
1.546814083E1,5.069080619E-1,3.854209154E0,-6.644196408E0,7.697871777E0
1.547811083E1,4.407930463E-1,4.052173072E-1,-5.808305941E0,5.839085329E0
1.548808083E1,-7.194458724E-1,-1.862726148E0,-5.260681450E-2,1.997528108E0
1.549805083E1,-1.439483044E0,-4.751318800E-1,6.035731639E0,6.223175890E0
1.550802083E1,-9.365235342E-1,-4.913693056E-1,7.556100095E0,7.629755486E0
1.551798983E1,1.055547921E0,1.363277745E0,2.703803388E0,3.206752311E0
1.552795983E1,2.096199403E-1,2.151596728E0,-3.483223786E0,4.099531308E0
1.553792983E1,-1.166356824E0,3.400138945E0,-5.221839566E0,6.339474863E0
1.554789983E1,-2.192386027E0,3.386682163E0,-5.714949296E0,6.995485545E0
1.555786983E1,-2.699441658E0,-3.517658624E-1,2.474814729E0,3.679053197E0
1.556783983E1,-4.354950669E-1,8.908616039E-1,2.398410916E-1,1.020202970E0
1.557780983E1,-1.375109586E0,3.871027793E0,-8.788499612E-1,4.200971293E0
1.558777983E1,-1.222204604E0,-6.933099148E-1,8.043751448E-1,1.619099165E0
1.559774883E1,-2.424206054E0,-3.003467928E0,-3.350462170E0,5.111085143E0
1.560771883E1,-1.252238096E0,4.392658486E0,-5.557715328E0,7.193868812E0
1.561768883E1,-2.986849118E-1,4.726773359E0,-1.045452923E-1,4.737354618E0
1.562765883E1,3.724389492E-1,3.409891516E-1,3.449183051E0,3.485950099E0
1.563762883E1,-1.521818127E0,-1.802670566E0,-9.805002970E-1,2.554786177E0
1.564759883E1,-1.673514489E0,-4.488597846E0,-5.816613080E0,7.535326741E0
1.565756883E1,1.605639206E-1,-7.736507748E0,-1.168124583E0,7.825844871E0
1.566753783E1,1.299512104E0,-4.602971431E0,8.105028514E0,9.411034211E0
1.567750783E1,6.200561433E-1,1.818074763E-1,9.199336093E0,9.222001308E0
1.568747783E1,2.476907959E-1,3.769609299E-1,3.248571514E0,3.279735836E0
1.569744783E1,-4.957296474E-1,-9.307755750E-1,-4.203593738E0,4.333854101E0
1.570741783E1,-4.899105349E-1,-2.612599688E0,-4.570628142E0,5.287374687E0
1.571738783E1,-7.624916853E-1,-2.780454246E0,-3.511468177E0,4.543426916E0
1.572735783E1,-7.128723595E-1,-3.669782418E0,7.334850225E0,8.232588768E0
1.573732683E1,-3.350969416E0,-1.849365260E0,4.775709876E0,6.120175873E0
1.574729683E1,-5.925540933E-1,3.893614125E-1,3.100293142E0,3.180336496E0
1.575726683E1,-1.402198712E0,-3.209462704E0,-5.447897601E-1,3.544518016E0
1.576723683E1,-6.871456338E-1,-2.218097988E0,-5.750485164E-1,2.392239245E0
1.577720683E1,5.436016790E-1,-1.164302551E0,7.260538546E0,7.373365799E0
1.578717683E1,2.247019194E-1,2.725174085E0,6.665264511E-1,2.814484367E0
1.579714683E1,1.502573990E-1,2.211754052E0,1.012843001E-1,2.219164658E0
1.580711683E1,-9.088881312E-1,-3.242763475E-1,1.331412758E0,1.644351762E0
1.581708583E1,-2.258779407E-2,-2.360503417E-1,-3.496397563E0,3.504429467E0
1.582705583E1,-2.242167467E-1,1.029806358E0,-5.374864708E0,5.477220547E0
1.583702583E1,-1.099996335E0,-7.980218527E-1,-1.701022861E0,2.177225204E0
1.584699583E1,-2.668266058E0,1.466610324E-1,1.639799005E-1,2.677320045E0
1.585696583E1,-3.819703858E-1,-1.226025759E0,4.357103614E0,4.542399415E0
1.586693583E1,-2.449288124E0,1.727585300E0,2.787244910E0,4.092957057E0
1.587690583E1,-9.114065270E-1,1.674033575E0,-2.274272189E0,2.967383403E0
1.588687483E1,-8.205004500E-1,3.464346343E0,-4.986628885E0,6.127102431E0
1.589684483E1,2.985477215E-1,6.276726387E0,-4.320908180E0,7.626052214E0
1.590681483E1,2.840035400E-1,3.063901241E0,-3.531936355E0,4.684306058E0
1.591678483E1,2.415824838E-1,-4.024790561E0,-1.271127965E0,4.227655078E0
1.592675483E1,-1.154044123E0,-4.847306108E0,-3.149762925E0,5.894845276E0
1.593672483E1,3.910750122E-1,-3.854119107E-1,-6.074679358E0,6.099443525E0
1.594669483E1,1.668793885E-1,1.241768803E0,-7.359364092E0,7.465258089E0
1.595666483E1,-1.179217756E-1,7.048745379E-1,4.066586459E-1,8.222681519E-1
1.596663383E1,7.007178985E-1,1.043615143E0,1.476305008E0,1.938972567E0
1.597660383E1,2.504496073E0,3.117197442E-1,3.675999470E0,4.458995613E0
1.598657383E1,2.693588010E0,1.943596064E0,7.549355332E0,8.247772302E0
1.599654383E1,2.577732741E0,3.809525609E0,5.808015334E0,7.408794340E0
1.600651383E1,-1.033925137E-1,1.186891222E0,6.043173391E0,6.159492302E0
1.601648383E1,-2.068369580E-1,2.442283160E0,1.683887596E0,2.973719219E0
1.602645383E1,-1.959904241E0,4.623334944E-1,-1.431710048E0,2.470783389E0
1.603642283E1,1.087717913E0,-1.699916568E0,-3.196884466E0,3.780597425E0
1.604639283E1,-1.463065998E-1,2.723019970E0,-3.269572958E0,4.257505221E0
1.605636283E1,-6.525526290E-1,2.193313103E0,-3.794806706E0,4.431366069E0
1.606633283E1,-4.881483303E-1,-8.030659533E-1,1.481005000E0,1.754018109E0
1.607630283E1,-9.518983492E-1,-1.412461599E0,2.830295035E0,3.303290514E0
1.608627283E1,2.837863671E0,-1.822063441E0,5.365394558E0,6.337258410E0
1.609624283E1,-4.841422932E-1,-2.874484490E0,3.630526258E0,4.655939836E0
1.610621183E1,-2.071397487E0,2.349163035E0,-1.400097077E0,3.430674327E0
1.611618183E1,3.221600939E-1,-6.132358047E-1,-2.214365126E0,2.320184947E0
1.612615183E1,-1.065939374E0,-4.017189766E0,-2.532412727E0,4.866945097E0
1.613612183E1,-3.146040661E-1,-5.077332648E0,-2.500134342E0,5.668240844E0
1.614609183E1,8.411669221E-1,1.187100552E0,-2.280490118E0,2.705070182E0
1.615606183E1,5.087652837E-1,-2.498314689E0,-1.357694823E0,2.888555631E0
1.616603183E1,-2.395534817E0,-4.058739203E0,-2.192112377E0,5.197817585E0
1.617600083E1,-4.348356837E-1,-2.150938624E0,-2.254872297E0,3.146437368E0
1.618597083E1,-1.839094334E0,-2.078682241E0,1.393610176E0,3.105694310E0
1.619594083E1,3.185025509E-1,4.952907407E-1,1.739418018E0,1.836390981E0
1.620591083E1,3.376626341E-1,2.611256290E0,6.148990452E-1,2.703844726E0
1.621588083E1,-2.437814133E0,6.878261036E-1,3.072029455E0,3.981633769E0
1.622585083E1,-2.552317672E-1,1.614036173E-1,3.117140724E0,3.131734452E0
1.623582083E1,-2.193594354E0,-1.838496748E0,3.217225760E0,4.306096617E0
1.624579083E1,-2.128553691E-1,-4.955814643E0,-1.994824398E-1,4.964393158E0
1.625575971E1,6.644249618E-1,-3.514925051E0,1.745107359E-1,3.581426062E0
1.626572971E1,-9.605085205E-1,-5.808246884E-1,-2.324420249E-1,1.146282352E0
1.627569971E1,-1.925152046E0,1.426436152E0,5.510682079E0,6.009038814E0
1.628566971E1,-1.545948562E0,1.586378550E0,4.320388947E0,4.855132801E0
1.629563971E1,1.740078169E0,2.153688569E0,-3.058231781E0,4.125412477E0
1.630560971E1,-3.382790402E-1,1.997603579E0,-2.232993186E0,3.015146984E0
1.631557971E1,-1.632708086E0,1.128073203E0,-2.513709238E0,3.202658112E0
1.632554871E1,2.325551320E-1,-4.263988167E0,-2.856328593E0,5.137537349E0
1.633551871E1,1.265133399E0,-1.762810974E0,8.939755386E-1,2.346754634E0
1.634548871E1,7.196254550E-1,1.526458915E0,6.537164295E0,6.751477960E0
1.635545871E1,1.055032855E0,4.119670406E0,4.847817155E0,6.448729312E0
1.636542871E1,9.682552041E-1,1.923516433E0,5.967463642E-1,2.234622973E0
1.637539871E1,-2.744708170E0,5.395810019E0,-8.069245893E0,1.008766167E1
1.638536871E1,-3.685423720E0,2.077948123E0,-6.945796961E0,8.132915333E0
1.639533771E1,-2.862213816E0,2.259229057E0,-6.396332937E0,7.362707308E0
1.640530771E1,-1.404860219E0,-5.003886357E-1,-5.004167608E0,5.221658211E0
1.641527771E1,1.818341103E0,-1.656965261E0,9.221860152E-1,2.627227681E0
1.642524771E1,1.962685908E0,-6.153995669E-1,5.525732228E0,5.896148679E0
1.643521771E1,1.502347191E0,1.543891512E0,3.958183174E0,4.506424538E0
1.644518771E1,1.487802827E0,1.522897376E0,6.161211133E-1,2.216388706E0
1.645515771E1,-1.373574253E0,-3.100091413E-1,-3.566160108E0,3.834098305E0
