"Time (s)","Linear Acceleration x (m/s^2)","Linear Acceleration y (m/s^2)","Linear Acceleration z (m/s^2)","Absolute acceleration (m/s^2)"
8.807666658E-3,1.396085412E-1,-2.257200658E-2,2.235238516E-1,2.645051087E-1
1.877866668E-2,-3.738423906E-1,-2.938912913E-1,8.950806624E-1,1.013557900E0
2.874966664E-2,-5.241986075E-1,-1.023287882E0,4.930641210E-1,1.251005395E0
3.871966666E-2,-6.635168892E-1,-1.575288136E0,5.149525881E-1,1.785206863E0
4.869066668E-2,-7.185025703E-1,-9.402913338E-1,6.867250729E-1,1.368205051E0
5.866166664E-2,-6.379048421E-1,-9.712824538E-1,8.197398734E-1,1.422070903E0
6.863166665E-2,-7.860673665E-1,-1.750276297E-2,6.403478819E-1,1.014028432E0
7.860266668E-2,-9.181716093E-1,-6.113948089E-1,2.002940333E-1,1.121142460E0
8.857366664E-2,-8.376488717E-1,-7.503535965E-1,-1.455939156E-1,1.133968139E0
9.854366665E-2,-7.268281283E-1,-7.390822113E-2,-2.386231166E-1,7.685587453E-1
1.085161666E-1,-3.975503650E-1,2.475123462E-1,-5.117202473E-1,6.936614921E-1
1.184871666E-1,-3.755532859E-1,6.563499570E-1,-5.530939758E-2,7.582180861E-1
1.284571667E-1,3.422421003E-2,7.386831388E-1,2.263983428E-2,7.398220314E-1
1.384281666E-1,4.496070296E-1,1.520125796E0,-8.148644650E-1,1.782395302E0
1.483991666E-1,4.746558436E-1,1.350551280E0,-1.231811287E0,1.888556585E0
1.583691667E-1,3.774666410E-1,9.093721345E-1,-1.069876158E0,1.453985466E0
1.683401667E-1,3.684942348E-1,1.087313139E0,-1.283998271E0,1.722408031E0
1.783111666E-1,9.206378918E-2,1.340590840E0,-1.137841269E0,1.760778889E0
1.882811667E-1,-2.740283546E-1,8.905245119E-1,-4.921086860E-1,1.053706033E0
1.982521667E-1,-3.290847322E-1,-2.471773008E-1,-2.331343353E-2,4.122340296E-1
2.082231666E-1,-2.612933016E-1,-4.667697769E-1,-8.064865744E-1,9.677648520E-1
2.181931667E-1,1.060650202E-1,-7.856225395E-1,-2.619576001E-1,8.349097840E-1
2.281641667E-1,4.123434186E-1,-1.178174485E0,7.941992354E-1,1.479484585E0
2.381351666E-1,8.474940480E-1,-4.627489391E-1,1.338010756E0,1.650047128E0
2.481051667E-1,8.774846363E-1,-4.082052344E-1,1.533132927E0,1.813038161E0
2.580761667E-1,6.144815540E-1,-4.751304182E-1,1.179787440E0,1.412527840E0
2.680471666E-1,3.493757399E-1,-1.055470372E0,-1.362810552E-2,1.111875371E0
2.780171667E-1,4.136145667E-1,-1.089743827E0,-3.799509037E-1,1.225961381E0
2.879881667E-1,5.045607702E-1,-1.490411123E0,3.447857487E-1,1.610833356E0
2.979581666E-1,2.350603350E-1,-8.275201786E-1,5.969779140E-1,1.047103451E0
3.079291667E-1,2.021470159E-1,1.200062075E-1,1.001229261E0,1.028457553E0
3.179001667E-1,2.980502331E-1,5.549247390E-1,7.845560074E-1,1.006132961E0
3.278701666E-1,2.975690803E-1,-9.380483419E-2,8.595617509E-1,9.144359508E-1
3.378411666E-1,-2.082545606E-1,-4.237749079E-1,1.035723740E0,1.138278877E0
3.478121667E-1,-6.594339978E-1,3.515962932E-1,2.353311342E-1,7.834882855E-1
3.577831666E-1,-8.414047576E-1,6.274591568E-1,3.235568476E-1,1.098342384E0
3.677531666E-1,-1.125016351E0,-2.141434559E-1,2.674253315E-1,1.176025305E0
3.777241667E-1,-1.367973351E0,-6.785243529E-1,-4.725900954E-1,1.598464196E0
3.876941666E-1,-1.441564215E0,-5.247960833E-1,-5.446687227E-1,1.627938061E0
3.976651666E-1,-1.099140010E0,-1.786207438E-2,-5.101403296E-2,1.100468195E0
4.076361667E-1,-6.663942309E-1,6.746897489E-2,3.640283507E-1,7.623319315E-1
4.176061667E-1,1.172321788E-1,2.341315779E-1,-3.519708073E-1,4.386848854E-1
4.275771666E-1,-2.710709243E-1,-5.847449541E-2,-9.820439619E-1,1.020445518E0
4.375481667E-1,-4.542868486E-1,-5.350085378E-2,-4.307205230E-1,6.282985366E-1
4.475181667E-1,-2.971971791E-1,4.021580440E-1,-8.713234252E-1,1.004620210E0
4.574891666E-1,3.119501885E-2,2.612217280E-1,-2.771662080E-1,3.821400624E-1
4.674601667E-1,-1.300880681E-1,1.467393851E-1,-2.098168087E-1,2.871906089E-1
4.774301667E-1,-4.284811856E-1,1.171668581E0,-2.846518135E-1,1.279621055E0
4.874011666E-1,-4.204475133E-1,7.243311480E-1,-6.742792743E-1,1.075213590E0
4.973721667E-1,-3.780801236E-1,2.172787330E-1,-6.653020442E-1,7.954756046E-1
5.073421667E-1,-1.344133266E-3,-3.226049209E-1,-1.163391262E-1,3.429439225E-1
5.173131666E-1,1.860132506E-1,4.410320878E-1,-5.256027067E-1,7.108927044E-1
5.272841667E-1,2.054057240E-1,6.306493977E-1,4.371021742E-1,7.943352472E-1
5.372541667E-1,3.875244366E-1,3.141890234E-1,3.810864329E-2,5.003420831E-1
5.472251666E-1,8.606719910E-1,-3.076342946E-1,5.961587191E-2,9.159416943E-1
5.571961667E-1,7.887022680E-1,-5.855083081E-1,-3.046399355E-3,9.822833232E-1
5.671661667E-1,7.784041518E-1,-2.031983453E-1,-9.865948498E-2,8.105160609E-1
5.771371666E-1,7.353269101E-1,-3.484004974E-1,5.835760957E-1,1.001323939E0
5.871081667E-1,8.543192835E-1,-7.140970588E-2,6.836798429E-2,8.600203286E-1
5.970781667E-1,1.085581048E0,-6.571393311E-2,6.323880672E-2,1.089405195E0
6.070491666E-1,9.496593042E-1,-2.987488657E-2,2.068896925E-1,9.723932578E-1
6.170201667E-1,4.342372578E-1,-1.788119477E-1,2.685532594E-1,5.409774134E-1
6.269901667E-1,7.314961798E-1,-1.940360507E-1,-4.184366924E-1,8.647692846E-1
6.369611666E-1,9.137735530E-1,2.683638096E-1,-4.755616504E-1,1.064499941E0
6.469321667E-1,1.058118576E0,5.743602991E-2,1.991134804E-1,1.078220755E0
6.569021667E-1,1.166192663E0,2.736847758E-1,1.217831764E0,1.708222143E0
6.668731666E-1,1.187664955E0,3.038108003E-1,4.546444058E-1,1.307497833E0
6.768441666E-1,1.208648711E0,6.361565977E-1,-8.991672814E-2,1.368799453E0
6.868141667E-1,1.027572283E0,1.028556516E0,-7.332233012E-2,1.455750483E0
6.967851666E-1,7.576038516E-1,3.436277077E-1,-7.686691225E-2,8.354352875E-1
7.067561666E-1,7.163422434E-1,2.024645197E-1,3.173617226E-1,8.092320770E-1
7.167261667E-1,3.801816129E-1,8.311086148E-2,-8.061117679E-1,8.951322005E-1
7.266971666E-1,1.079119546E-1,-2.437955636E-1,-1.522036082E-1,3.069970767E-1
7.366681666E-1,2.184823458E-1,-8.832657784E-2,-4.299282253E-1,4.902799187E-1
7.466381667E-1,6.107023889E-1,-2.252932191E-1,1.339959633E-1,6.645820947E-1
7.566091667E-1,3.566760252E-1,-9.829099345E-1,3.020057648E-1,1.088364465E0
7.665801666E-1,1.726810690E-1,-1.275948409E0,3.414376330E-1,1.332082112E0
7.765501667E-1,-4.094055581E-1,-7.024403420E-1,4.995188624E-1,9.542297622E-1
7.865211667E-1,-6.183778462E-1,-9.643362540E-1,3.647194916E-1,1.202229545E0
7.964921666E-1,-5.303149412E-1,-7.197197413E-1,3.165898901E-1,9.483984403E-1
8.064621667E-1,-8.634354582E-1,-9.053562668E-1,7.956879365E-1,1.482669907E0
8.164331667E-1,-9.344115199E-1,1.959650472E-1,5.865464813E-1,1.120519506E0
8.264031666E-1,-1.331674860E0,2.926133823E-1,4.546888447E-1,1.437262143E0
8.363741667E-1,-9.482721253E-1,-1.013492042E-1,1.419797516E-1,9.641835586E-1
8.463451667E-1,-7.874578343E-1,-6.003207672E-1,2.836075008E-1,1.030003922E0
8.563161666E-1,-1.380052986E-1,-6.925342816E-1,-8.866717815E-2,7.116959057E-1
8.662861667E-1,1.740402840E-2,1.968658108E-1,-2.024306059E-3,1.976439867E-1
8.762571667E-1,-2.148839144E-1,5.258108675E-2,1.969260371E-1,2.961751702E-1
8.862281666E-1,2.268298674E-1,-2.960468674E-1,-4.712271094E-2,3.759203191E-1
8.961981667E-1,3.840424563E-1,3.103205055E-2,-8.614585876E-2,3.948071749E-1
9.061691667E-1,3.022528097E-1,2.667292204E-1,-2.331395978E-1,4.656772596E-1
9.161391666E-1,2.336141176E-1,2.228081524E-1,1.059837073E-1,3.397816578E-1
9.261101666E-1,3.036081760E-1,-6.813175678E-2,7.583137035E-2,3.202659169E-1
9.360811667E-1,3.341070153E-1,-1.498539045E-1,1.020900464E-1,3.801395375E-1
9.460511666E-1,4.188048477E-1,-6.653546691E-3,5.066027641E-3,4.188883321E-1
9.560221666E-1,3.327550294E-1,7.922848570E-1,-2.725457382E-1,9.015111667E-1
9.659931667E-1,3.556445764E-1,3.206993133E-1,-3.702404326E-1,6.053173483E-1
9.759631666E-1,1.638294809E-1,-7.368646547E-1,2.944377136E-1,8.102488416E-1
9.859341666E-1,-2.788973859E-1,-1.646429747E-1,-2.840665072E-1,4.307955913E-1
9.959051667E-1,-4.328440855E-1,7.473121673E-2,-7.628628373E-2,4.458232320E-1
1.005875167E0,-7.183028148E-1,-3.519629136E-1,-5.636581403E-1,9.785434714E-1
1.015846167E0,-5.757466739E-1,-6.388024628E-2,-1.572591108E-1,6.002460715E-1
1.025817167E0,-9.048706555E-1,-7.223884106E-2,-2.771463275E-1,9.491150827E-1
1.035787167E0,-1.104780673E0,6.385568798E-2,1.822927952E-2,1.106774679E0
1.045758167E0,-8.670168047E-1,3.742627323E-2,-6.958128154E-2,8.706092236E-1
1.055729167E0,-8.749622206E-1,4.784659624E-2,-3.234346408E-1,9.340546831E-1
1.065699167E0,-7.146277667E-1,-6.803562856E-1,-4.166199625E-2,9.875794865E-1
1.075670167E0,-4.308050884E-1,-8.194609612E-2,5.029073238E-1,6.672510496E-1
1.085641167E0,3.808722787E-2,-6.141009003E-2,-7.639913499E-2,1.051601822E-1
1.095611167E0,-1.646429382E-1,-1.351923037E-1,1.537210191E0,1.551901874E0
1.105580917E0,-1.966392677E-1,1.121090165E0,-5.594674408E-2,1.139578957E0
1.115551917E0,-1.145960420E0,5.225995767E-1,-3.339309776E-1,1.303014006E0
1.125521917E0,-6.523503884E-1,7.719634438E-1,-2.115247804E-1,1.032584776E0
1.135492917E0,-7.390436196E-1,5.098067459E-1,-6.068351501E-1,1.083668441E0
1.145463917E0,-1.037296715E0,7.362129825E-1,-6.960484582E-1,1.449992236E0
1.155433917E0,-9.491598058E-1,5.897399381E-1,-3.518070853E-1,1.171522837E0
1.165404917E0,-9.532666708E-1,4.244356433E-1,-3.080020845E-2,1.043940426E0
1.175375917E0,-6.305710450E-1,1.148349300E-1,-1.614129728E-1,6.609546518E-1
1.185345917E0,-9.958499689E-1,-6.766228384E-1,1.656592208E-1,1.215310085E0
1.195316917E0,-8.795821057E-1,-7.432895753E-1,1.204470876E0,1.666401561E0
1.205287917E0,-7.466894388E-1,-5.766778430E-1,1.024354414E0,1.392625010E0
1.215257917E0,-9.069342110E-1,-4.277568617E-1,3.878352892E-1,1.075138041E0
1.225228917E0,-4.629130266E-1,-3.319850242E-1,1.960834533E-1,6.024543527E-1
1.235199917E0,-8.517459970E-1,-9.223336574E-1,-2.418583810E-2,1.255689282E0
1.245169917E0,-3.606132479E-1,-1.206503076E0,5.667653507E-1,1.380910768E0
1.255140917E0,-6.775000669E-1,-4.087633511E-1,-4.973793662E-1,9.346015471E-1
1.265111917E0,-2.226545899E-1,-7.750531125E-1,-3.159361714E-1,8.660820158E-1
1.275081917E0,-2.789140504E-1,-9.926967117E-1,-2.972923243E-1,1.073136774E0
1.285052917E0,-2.740618847E-1,-8.110544193E-1,3.876242048E-1,9.397721595E-1
1.295023917E0,-2.266484940E-1,-5.292311963E-1,1.092275671E0,1.234715085E0
1.304993917E0,-2.614814540E-1,-6.060791051E-1,1.492267322E0,1.631737170E0
1.314964917E0,1.152170455E-1,-4.673971832E-2,1.175054703E0,1.181614626E0
1.324935917E0,-3.712145787E-1,1.846287578E-1,6.751423234E-1,7.922784854E-1
1.334905917E0,-1.140379911E-1,-2.975826386E-1,7.373058271E-1,8.032309586E-1
1.344876917E0,-4.898200492E-1,-8.282902569E-2,-4.417857939E-1,6.647999818E-1
1.354847917E0,-3.917603424E-1,-4.205916837E-1,-6.878880841E-1,8.964170605E-1
1.364817917E0,-6.272179592E-1,-7.737044522E-1,-2.752553380E-1,1.033337529E0
1.374788917E0,-9.303460240E-1,-5.350635016E-1,-3.321084005E-1,1.123446779E0
1.384759917E0,-3.605454567E-1,-5.813120538E-1,6.833933294E-2,6.874496306E-1
1.394729917E0,-4.512236020E-1,-4.067448923E-1,3.108338910E-1,6.823942073E-1
1.404700917E0,3.596194039E-1,-1.649142855E-1,3.762209648E-1,5.459533420E-1
1.414671917E0,-4.483262335E-1,-3.382675651E-1,-1.517791003E-1,5.817716498E-1
1.424641917E0,4.616314631E-2,-1.234534335E-1,-1.717496806E-1,2.164942011E-1
1.434612917E0,1.240596436E-3,2.608077452E-1,-4.628334314E-1,5.312598274E-1
1.444583917E0,-7.227414362E-3,-9.642350972E-2,-3.919797957E-1,4.037299704E-1
1.454553917E0,-3.628103026E-1,3.447524196E-1,-6.517113608E-1,8.217136024E-1
1.464524917E0,-3.940434243E-1,7.839975983E-1,-8.735225630E-1,1.238129283E0
1.474495917E0,-2.660202090E-1,7.725885111E-1,1.007884562E-2,8.171666551E-1
1.484465917E0,-3.736312330E-2,-4.198622435E-2,2.613337022E-1,2.673090906E-1
1.494436917E0,3.216667717E-1,5.301772758E-1,3.499915248E-1,7.120755039E-1
1.504407917E0,1.007151906E0,3.494383782E-2,9.927203929E-1,1.414591747E0
1.514377917E0,7.700049189E-1,4.925568751E-1,1.731021416E-1,9.303140339E-1
1.524348917E0,6.499438937E-1,5.769541240E-1,1.717385709E-1,8.858878388E-1
1.534319917E0,5.016530230E-1,1.123919633E-1,3.111022782E-1,6.008929492E-1
1.544289917E0,4.012116356E-1,-1.499030212E-1,2.528067076E-1,4.973458793E-1
1.554260917E0,4.103227305E-1,-5.022933662E-2,-5.863693106E-1,7.174375916E-1
1.564231917E0,1.656915998E-1,-4.825958508E-1,-5.323071241E-2,5.130165399E-1
1.574201917E0,1.127394706E-1,-5.299825636E-1,2.009325492E-1,5.778975647E-1
1.584172917E0,-1.232326280E-1,-2.640228367E-1,2.216129816E-1,3.660691909E-1
1.594142917E0,-2.448415208E-1,-3.815112332E-1,-1.743704027E-1,4.856987015E-1
1.604113917E0,-8.343617863E-1,-2.243912861E-1,2.664032382E-1,9.041469599E-1
1.614084917E0,-1.131932365E0,-5.399137670E-1,1.107374936E0,1.673038255E0
1.624054917E0,-8.393124045E-1,-2.009161770E-2,3.616684145E-1,9.141405951E-1
1.634025917E0,-8.524529985E-1,1.477725881E-1,-1.066005886E-2,8.652320436E-1
1.643996917E0,-5.072821010E-1,5.196376696E-1,-7.045321834E-1,1.011792486E0
1.653966917E0,-7.863921793E-1,5.990530908E-1,-3.003018862E-1,1.033178827E0
1.663937917E0,-2.173040222E-1,3.531370345E-1,-4.680245894E-1,6.252789933E-1
1.673908917E0,-1.824078391E-1,5.632383102E-1,-7.054203755E-1,9.209386082E-1
1.683878917E0,-1.408368037E-1,-3.410330057E-2,-2.895190358E-1,3.237581080E-1
1.693849917E0,-5.758155249E-2,1.959451666E-1,-2.240857691E-1,3.031906585E-1
1.703820917E0,-7.022254568E-1,-8.403325975E-3,1.595149666E-1,7.201640318E-1
1.713790917E0,-8.987952523E-1,-4.424994466E-1,7.586516726E-1,1.256658675E0
1.723761917E0,-1.475637110E0,-3.100018322E-1,2.762809396E-2,1.508101232E0
1.733732917E0,-1.082087775E0,-5.349635142E-1,-5.269686162E-2,1.208253646E0
1.743702917E0,-1.224969825E0,-3.274338439E-1,1.167688966E-3,1.267976876E0
1.753673917E0,-1.167340399E0,-6.009914428E-1,-5.354587734E-2,1.314055357E0
1.763644917E0,-1.119570913E0,-4.495976740E-1,3.425187832E-1,1.254151591E0
1.773614917E0,-1.610749307E0,-5.184202793E-1,1.721578163E-1,1.700856028E0
1.783585917E0,-1.438622042E0,-5.735592306E-1,1.149714625E-1,1.553004188E0
1.793556917E0,-2.002204753E0,-6.666530433E-1,1.656826097E-1,2.116766610E0
1.803526917E0,-1.701762388E0,-4.252919680E-1,-1.409453791E-1,1.759753983E0
1.813497917E0,-1.806816680E0,-7.404071903E-1,8.385842800E-1,2.125091273E0
1.823468917E0,-1.125970836E0,-7.575325155E-1,9.159300792E-1,1.637251888E0
1.833438917E0,-7.818953781E-1,-6.409419590E-1,7.604280567E-1,1.265076206E0
1.843409917E0,-8.393581590E-1,-7.017711282E-2,4.898499066E-1,9.743715294E-1
1.853380917E0,-1.263653104E-1,-1.120455158E-1,7.048052484E-1,7.247570817E-1
1.863350917E0,-5.001076770E-1,-5.550829062E-1,3.445273018E-1,8.227537803E-1
1.873321917E0,5.312451236E-3,-6.812687436E-1,-3.384865433E-1,7.607420477E-1
1.883292917E0,-1.845107537E-1,-3.319780076E-1,-4.401017958E-1,5.813288281E-1
1.893262917E0,1.782351199E-1,-2.858124858E-1,-1.657510221E-1,3.754063616E-1
1.903233917E0,1.794408157E-1,-6.514178306E-2,2.412678123E-2,1.924176703E-1
1.913204917E0,8.412234939E-1,3.744530591E-1,4.150166559E-1,1.010005389E0
1.923174917E0,1.048499030E0,6.599749383E-1,8.178827977E-1,1.484536764E0
1.933145917E0,8.569587167E-1,8.307671374E-1,1.528754532E-1,1.203296797E0
1.943116917E0,1.000530007E0,7.990638265E-1,-3.893625820E-1,1.338344692E0
1.953086917E0,5.241413413E-1,6.991933832E-1,-7.812026292E-1,1.172123321E0
1.963057917E0,7.727863663E-1,7.120923409E-1,-7.189192575E-1,1.273231781E0
1.973028917E0,6.264206913E-1,7.588776675E-1,-4.738454926E-1,1.092166538E0
1.982998917E0,5.602051402E-1,9.313079640E-1,-1.228324592E-1,1.093733119E0
1.992969917E0,1.056181759E0,9.100998205E-1,-8.002961272E-1,1.607568189E0
2.002940917E0,8.410926624E-1,1.974961406E-1,9.766136527E-2,8.694707210E-1
2.012910917E0,9.588354128E-1,-3.486899346E-1,2.733427137E-1,1.056251040E0
2.022881917E0,4.526450966E-1,-7.469408691E-2,-1.662228924E-1,4.879516780E-1
2.032851917E0,4.222597116E-1,2.042183921E-1,9.215211868E-2,4.780171845E-1
2.042822917E0,4.297735299E-1,-2.011813483E-1,3.292116898E-1,5.775461528E-1
2.052793917E0,2.256096083E-1,7.419824302E-3,-3.867617404E-1,4.478162492E-1
2.062763917E0,4.809906805E-2,2.106006280E-1,-5.649877971E-1,6.048779677E-1
2.072734917E0,3.258508565E-1,-4.569043547E-2,-4.051231670E-1,5.219110815E-1
2.082705917E0,4.509936967E-1,4.020946017E-1,-9.192781949E-1,1.100067172E0
2.092675917E0,4.404845326E-1,5.521087199E-2,-3.444033408E-1,5.618616600E-1
2.102646833E0,2.712964806E-1,-1.782786816E-2,-4.918519932E-1,5.619946588E-1
2.112617833E0,2.046548867E-1,3.822035435E-1,2.283501434E-1,4.900071013E-1
2.122587833E0,4.338259427E-2,-5.483665019E-2,3.065432042E-1,3.144166721E-1
2.132558833E0,-2.847278821E-1,1.595737311E-1,4.945972610E-1,5.925877092E-1
2.142529833E0,-4.874270762E-1,1.395496488E-1,2.144384480E-1,5.504935123E-1
2.152499833E0,-1.165288044E-1,7.133869144E-1,-3.523122847E-2,7.236995864E-1
2.162470833E0,-8.792869309E-2,1.389783758E-1,-1.923406506E-1,2.530639640E-1
2.172441833E0,-3.729047895E-1,-6.473086998E-1,-3.463136262E-1,8.234073491E-1
2.182411833E0,-1.163415748E-1,-4.915578783E-1,5.883468390E-2,5.085528780E-1
2.192382833E0,-2.012758904E-1,-3.173400879E-1,2.260708988E-2,3.764675231E-1
2.202353833E0,2.602143990E-1,1.261200562E-1,6.601974249E-1,7.207485288E-1
2.212323833E0,-2.050088991E-1,-1.135064134E0,2.676253062E-1,1.184070328E0
2.222294833E0,6.404924909E-2,-4.832536626E-1,4.687572455E-1,6.762911828E-1
2.232265833E0,-4.164543766E-1,-5.245923078E-1,6.341322917E-1,9.223638656E-1
2.242235833E0,-5.735479016E-1,-6.268259034E-1,4.036993700E-1,9.406599225E-1
2.252206833E0,-2.754795969E-1,-5.999740273E-1,1.772606814E-1,6.835782259E-1
2.262177833E0,-2.505293268E-1,-5.504153663E-1,-7.158026916E-1,9.370675068E-1
2.272147833E0,-3.546659352E-1,-4.404207614E-1,7.428185821E-2,5.703298757E-1
2.282118833E0,-1.753656902E-1,-2.850628728E-1,1.636109412E-2,3.350845447E-1
2.292089833E0,2.034757226E-1,-3.013766044E-1,9.503362656E-2,3.758478649E-1
2.302059833E0,5.906822169E-1,-7.094967619E-1,-2.658237791E-1,9.607046466E-1
2.312030833E0,7.306994236E-1,-4.703970972E-1,-1.617819321E-1,8.839504908E-1
2.322001833E0,9.239979212E-1,-8.660471901E-1,4.998784661E-2,1.267402335E0
2.331971833E0,7.192010933E-1,-5.994460237E-1,-5.909640527E-1,1.107169481E0
2.341942833E0,1.223664654E0,-1.760035300E-1,4.177777112E-2,1.236963140E0
2.351913833E0,-1.232216645E-2,-1.103775975E-1,7.770604616E-1,7.849573306E-1
2.361883833E0,7.757700177E-2,2.392016986E-1,1.511242121E0,1.532021016E0
2.371854833E0,-5.626518345E-1,-6.358642370E-2,1.175980902E0,1.305201671E0
2.381824833E0,3.059872071E-1,8.735187623E-1,2.368256825E-1,9.553792979E-1
2.391795833E0,5.053372805E-1,6.512906536E-1,2.617570406E-1,8.649057931E-1
2.401766833E0,1.101783098E0,2.725667882E-1,1.574865675E-1,1.145871139E0
2.411736833E0,6.150803089E-1,2.032781598E-1,-1.678788239E-1,6.692003408E-1
2.421707833E0,6.686978146E-1,3.465948772E-1,-8.156023836E-1,1.110176574E0
2.431678833E0,2.841379346E-1,1.501272619E-2,1.222740501E-1,3.096945127E-1
2.441648833E0,3.855665330E-1,1.028890684E-1,-3.590324897E-1,5.367979512E-1
2.451619833E0,7.306746460E-2,3.676410529E-1,-1.559516734E-1,4.059799534E-1
2.461590833E0,3.206854992E-1,1.258531308E-1,-6.300620449E-1,7.180921809E-1
2.471560833E0,4.769184968E-1,-1.918880761E-2,-4.676918828E-1,6.682478284E-1
2.481531833E0,6.869861510E-1,-4.299706176E-1,-2.699846578E-1,8.542344053E-1
2.491502833E0,5.603547193E-1,4.421693712E-2,3.749047565E-1,6.756523702E-1
2.501472833E0,5.675589640E-1,4.117954248E-1,6.744997144E-2,7.044488258E-1
2.511443833E0,7.183199179E-1,6.981446850E-1,-4.526019734E-1,1.099198823E0
2.521414833E0,6.357937780E-1,-3.076135370E-1,-1.673438036E-1,7.258538179E-1
2.531384833E0,1.999380292E-1,-3.353962898E-1,-5.168809998E-1,6.477899773E-1
2.541355833E0,-2.381055649E-1,-2.065727735E-1,-6.517359191E-1,7.239656615E-1
2.551326833E0,-1.052562315E-1,2.751997894E-1,-5.332888716E-1,6.092707272E-1
2.561296833E0,-1.454755003E-1,3.160598400E-1,-1.658703053E-1,3.854476642E-1
2.571267833E0,2.082206285E-1,1.026271132E-1,-3.034576285E-1,3.820663382E-1
2.581238833E0,2.486483871E-1,4.974281904E-1,-3.192550510E-1,6.412367836E-1
2.591208833E0,3.414924507E-1,6.474478635E-1,-4.790863520E-1,8.748311623E-1
2.601179833E0,2.725986555E-1,1.818454832E-1,7.064296049E-1,7.787301159E-1
2.611150833E0,5.608526462E-1,-7.570971903E-1,2.967982346E-1,9.878466675E-1
2.621120833E0,3.882418535E-1,-1.601607916E-1,-4.462402028E-1,6.127915914E-1
2.631091833E0,3.600177820E-1,-3.908761337E-1,6.979949963E-1,8.772650513E-1
2.641061833E0,3.530013425E-1,-7.731355181E-1,1.634195033E0,1.841993997E0
2.651032833E0,2.574211109E-1,-7.476071593E-1,1.129239430E0,1.378536827E0
2.661003833E0,4.641242773E-1,-7.865496156E-1,4.018697762E-1,9.977830223E-1
2.670973833E0,4.969392901E-1,-5.730119312E-1,5.084493148E-1,9.131330884E-1
2.680944833E0,4.894435251E-1,-3.539535981E-1,1.441057992E-1,6.209706879E-1
2.690915833E0,3.098634177E-2,-3.292874113E-1,-5.395038772E-1,6.328149699E-1
2.700885833E0,-8.639094390E-3,-7.048888636E-1,-2.929893583E-1,7.634040267E-1
2.710856833E0,-2.036326838E-1,-2.731316292E-1,9.308767319E-1,9.912611395E-1
2.720827833E0,-6.542792387E-1,-3.240787116E-1,4.441012913E-1,8.545959808E-1
2.730797833E0,-4.578017196E-1,4.073111951E-2,4.085660076E-1,6.149533487E-1
2.740768833E0,-2.852297194E-1,1.392277595E-1,7.092812920E-1,7.770587577E-1
2.750739833E0,-2.026512286E-1,3.377050629E-1,4.282740480E-1,5.818340744E-1
2.760709833E0,-2.462902599E-1,2.336564916E-1,3.115852582E-1,4.608032350E-1
2.770680833E0,-3.222814237E-1,3.232779354E-1,-1.269842162E0,1.349397294E0
2.780651833E0,-2.373547824E-1,5.642364299E-1,-1.334188432E0,1.467909674E0
2.790621833E0,4.089858742E-1,3.948691973E-1,-7.829778439E-1,9.675977637E-1
2.800592833E0,6.277832387E-1,1.425302669E-1,-3.343923229E-1,7.254273895E-1
2.810563833E0,2.272930399E-1,-5.800458393E-1,3.569999975E-1,7.180280634E-1
2.820533833E0,1.328099287E-1,-6.053505421E-2,-3.147374922E-1,3.469332197E-1
2.830504833E0,-1.657787050E-1,-3.743519023E-1,-1.613305271E-1,4.400562064E-1
2.840475833E0,-2.077529243E-1,-1.856490970E-2,7.039790368E-1,7.342291316E-1
2.850445833E0,-2.161925944E-1,1.538364431E-1,1.026880996E0,1.060608066E0
2.860416833E0,-2.589272441E-1,5.037344125E-1,3.228008026E-1,6.519141310E-1
2.870387833E0,-3.832705507E-1,7.942039132E-1,-4.375290209E-1,9.844225795E-1
2.880357833E0,-1.854946026E-1,2.259568781E-1,-5.497815281E-1,6.226752661E-1
2.890328833E0,-4.304999733E-1,-6.037878737E-1,-4.672229362E-1,8.764629459E-1
2.900298833E0,-6.677106585E-1,-4.461682820E-1,-3.535115486E-1,8.774246830E-1
2.910269833E0,-6.892899540E-1,1.634293851E-1,4.169474065E-2,7.096254336E-1
2.920240833E0,-4.578072744E-1,2.153897899E-1,-4.087554574E-2,5.075934125E-1
2.930210833E0,-5.716050180E-1,-4.001284754E-1,-3.599803233E-1,7.851247841E-1
2.940181833E0,-7.884109305E-1,-8.834596136E-1,6.066398531E-1,1.330452778E0
2.950152833E0,-5.308831444E-1,-3.619224760E-1,3.856303042E-1,7.493567396E-1
2.960122833E0,-1.747120171E-2,4.392671058E-1,5.161465895E-1,6.779883000E-1
2.970093833E0,4.887566508E-2,-1.253412071E-1,2.354194272E-1,2.711485857E-1
2.980064833E0,3.758748096E-1,5.234281272E-2,3.418691576E-2,3.810385647E-1
2.990034833E0,1.313150150E-1,-1.595988742E-1,-1.961606365E-1,2.849463618E-1
3.000005833E0,-1.532528179E-1,3.813042417E-1,-7.222714663E-2,4.172482614E-1
3.009976833E0,7.550546117E-3,4.535767043E-1,-9.755085289E-2,4.640097050E-1
3.019946833E0,-3.873207525E-2,3.892795515E-1,-6.506167620E-1,7.591712020E-1
3.029917833E0,1.055697427E-1,3.990698370E-1,-5.598843473E-1,6.956092206E-1
3.039888833E0,-2.943030449E-1,-1.100130236E-1,7.175118327E-2,3.222815228E-1
3.049858833E0,-7.542233021E-2,5.096322066E-1,-7.787965000E-2,5.210362307E-1
3.059829833E0,-2.106218058E-1,5.202612752E-1,-2.446118349E-1,6.122648849E-1
3.069800833E0,-4.014991541E-2,5.307973731E-1,-2.229250968E-2,5.327802764E-1
3.079770833E0,-1.943020808E-1,2.910094911E-1,-1.161762228E0,1.213314179E0
3.089741833E0,-3.388599657E-2,-5.798596054E-2,-1.256536238E0,1.258329826E0
3.099712833E0,-2.296170752E-3,-1.014969341E0,-5.418977273E-1,1.150574284E0
3.109683333E0,2.829835298E-1,-7.319228804E-1,8.309828997E-1,1.142945038E0
3.119654333E0,1.952973134E-1,-7.041556227E-1,7.773534071E-1,1.066890107E0
3.129624333E0,4.740618030E-1,-2.068206954E-1,7.363229102E-1,8.998226610E-1
3.139595333E0,7.241036913E-1,-2.049197656E-1,1.304954692E0,1.506394707E0
3.149566333E0,3.577989830E-1,-4.456011021E-1,1.069524155E0,1.212626230E0
3.159536333E0,1.536023170E-1,-3.069139177E-1,6.596559727E-1,7.435965485E-1
3.169507333E0,-9.145227275E-1,1.380515921E-1,1.052966595E-2,9.249437470E-1
3.179478333E0,-4.726012051E-1,-2.208698004E-2,-8.527930140E-2,4.807413993E-1
3.189448333E0,-9.368323403E-1,-3.013198864E-1,-6.563347542E-1,1.182887914E0
3.199419333E0,-6.938431077E-1,-3.476944461E-1,-2.660424650E-2,7.765419963E-1
3.209390333E0,-6.807285339E-1,-6.103420177E-1,3.668712670E-1,9.851412295E-1
3.219360333E0,-3.610368055E-1,-5.028035358E-1,5.323486394E-1,8.164276112E-1
3.229331333E0,-2.496750303E-1,-7.169069383E-1,4.530416840E-1,8.840474797E-1
3.239302333E0,-3.919844004E-1,-9.293161100E-1,2.369315171E-1,1.036058274E0
3.249272333E0,-1.241543959E-1,-9.362523696E-1,6.716000801E-1,1.158891488E0
3.259243333E0,-3.836486463E-1,-6.209558836E-1,9.680357873E-2,7.363038951E-1
3.269214333E0,-3.913200105E-1,-3.554545784E-1,9.067803562E-2,5.363784243E-1
3.279184333E0,-6.986767817E-1,-5.965957984E-1,-4.435645169E-1,1.020208446E0
3.289155333E0,-8.104628272E-1,-1.279311143E0,-1.458500236E-1,1.521433280E0
3.299126333E0,-2.969796810E-1,-5.662095729E-1,3.981959707E-1,7.532265545E-1
3.309096333E0,-9.228726245E-1,-2.667049545E-1,6.097242594E-1,1.137800108E0
3.319067333E0,-6.293817213E-1,9.143437296E-2,5.243911636E-1,8.242983005E-1
3.329037333E0,-5.198324550E-1,4.220110953E-1,2.855552083E-1,7.279154641E-1
3.339008333E0,7.317313932E-2,-4.575276679E-1,4.274525142E-1,6.303979117E-1
3.348979333E0,-4.230456242E-3,3.137390801E-1,-4.409496421E-1,5.411900720E-1
3.358949333E0,4.029094112E-1,2.888805199E-1,-1.093844479E-1,5.076937126E-1
3.368920333E0,4.361590914E-1,-2.712581813E-2,-1.983510035E-1,4.799100787E-1
3.378891333E0,4.444956129E-1,2.076486611E-1,-1.045464617E-1,5.016216493E-1
3.388861333E0,5.627604465E-1,2.613676161E-2,-5.416287553E-1,7.815012214E-1
3.398832333E0,5.955513030E-1,8.300531924E-2,9.300288856E-2,6.084577017E-1
3.408803333E0,8.734193596E-1,2.292903757E-1,9.403959990E-2,9.078980672E-1
3.418773333E0,4.949340240E-1,5.571642226E-1,-9.665997112E-1,1.220535399E0
3.428744333E0,6.338571071E-1,4.115094960E-2,-4.487831569E-1,7.777368159E-1
3.438715333E0,4.594880931E-1,5.528250039E-3,-3.188679653E-1,5.593180210E-1
3.448685333E0,4.631155961E-1,3.227376527E-1,-4.041729945E-1,6.942560459E-1
3.458656333E0,-1.391789901E-2,2.915369099E-1,3.686283553E-1,4.701854337E-1
3.468627333E0,2.699180361E-1,1.075210572E0,1.511037469E-2,1.108675717E0
3.478597333E0,2.956808865E-1,6.418324900E-1,-2.850541019E-1,7.619921081E-1
3.488568333E0,1.602789236E-1,8.100887516E-1,-7.814593220E-1,1.136930865E0
3.498538333E0,1.736075969E-1,8.123908004E-1,-6.986837983E-1,1.085484896E0
3.508509333E0,4.151708580E-2,6.519858876E-1,-7.452276349E-1,9.910466658E-1
3.518480333E0,2.259300174E-1,3.358947650E-1,-6.337592393E-1,7.520109303E-1
3.528450333E0,5.123578496E-1,1.014193708E-1,4.929120934E-1,7.181634818E-1
3.538421333E0,9.374259789E-1,2.647034526E-3,3.791346323E-1,1.011196095E0
3.548392333E0,6.114709689E-1,2.332898712E-1,8.620169967E-1,1.082309666E0
3.558362333E0,1.172166837E0,-4.381257293E-1,1.122428593E0,1.681004222E0
3.568333333E0,6.954130121E-1,-1.323122576E-1,1.159046781E0,1.358121950E0
3.578304333E0,1.317274045E0,-4.212100267E-1,1.962746572E-1,1.396836618E0
3.588274333E0,1.208269593E0,-7.441803986E-1,-1.099978209E-2,1.419098612E0
3.598245333E0,1.293444010E0,-1.011579418E0,6.023392260E-2,1.643142857E0
3.608216333E0,1.199238276E0,-1.533334072E0,3.333357310E-1,1.974942664E0
3.618186333E0,1.021896391E0,-1.149238077E0,-3.352050859E-1,1.573970407E0
3.628157333E0,8.992568900E-1,-2.737289223E-1,3.385783446E-1,9.991124924E-1
3.638128333E0,5.586111161E-1,-7.152629936E-1,1.026659971E0,1.370283995E0
3.648098333E0,3.625185265E-1,-6.800928685E-1,5.656830311E-1,9.560038094E-1
3.658069333E0,-2.909116781E-1,-4.030471131E-1,3.128523499E-1,5.873271428E-1
3.668039333E0,-1.103113778E-1,6.004119837E-1,-2.358819419E-1,6.544489597E-1
3.678010333E0,-5.339292149E-1,-1.840604085E-1,3.515930772E-2,5.658575946E-1
3.687981333E0,1.174995244E-1,-5.871393889E-1,1.639676213E-1,6.208254031E-1
3.697951333E0,-1.256427864E-1,-4.455876535E-1,-1.191504675E-1,4.780494751E-1
3.707922333E0,-1.370800224E-2,-3.586743477E-1,-6.048242927E-2,3.639963204E-1
3.717893333E0,4.149659313E-2,1.976303342E-1,4.736887872E-2,2.074211342E-1
3.727863333E0,3.146399168E-1,-4.434662837E-1,6.188576102E-1,8.237993468E-1
3.737834333E0,3.245925722E-1,2.190030769E-1,1.498962969E-1,4.192750713E-1
3.747805333E0,3.018994186E-1,1.112619889E-1,-3.587325275E-2,3.237427673E-1
3.757775333E0,1.410421323E-1,3.379076689E-2,-4.373360628E-1,4.607575619E-1
3.767746333E0,8.100939958E-2,-1.498524427E-1,-1.252543759E-1,2.114401478E-1
3.777717333E0,4.057624870E-1,-9.044268519E-2,2.971899980E-1,5.110234535E-1
3.787687333E0,-4.705664197E-2,-1.298578888E-2,6.007932222E-1,6.027731365E-1
3.797658333E0,-3.537689358E-1,-2.664696041E-1,1.590161991E-1,4.705790703E-1
3.807628333E0,-4.726248132E-1,-4.728941506E-1,-6.751598650E-1,9.501810012E-1
3.817599333E0,-4.880776155E-1,-4.328603116E-1,-4.989926130E-1,8.213290667E-1
3.827570333E0,-6.125331521E-1,-4.615736488E-1,4.430096161E-1,8.857226517E-1
3.837540333E0,-6.532308329E-1,1.920517981E-3,1.023888391E-1,6.612092587E-1
3.847511333E0,-1.052386259E0,-3.586480352E-1,-3.096281952E-1,1.154129486E0
3.857482333E0,-1.106386026E0,1.280414513E-1,-5.015139323E-1,1.221474877E0
3.867452333E0,-5.726393905E-1,3.252364603E-1,-4.154107583E-1,7.786274621E-1
3.877423333E0,-7.933358210E-1,4.827241972E-1,-2.092104524E-1,9.519313992E-1
3.887394333E0,-5.434399304E-1,3.883024818E-1,-9.512583715E-1,1.162324509E0
3.897364333E0,-5.611664955E-1,4.087501949E-1,-5.332999814E-1,8.754389914E-1
3.907335333E0,-8.601417947E-1,9.079439521E-2,-4.517652369E-1,9.757967813E-1
3.917306333E0,-6.841538329E-1,5.548072100E-2,2.078328484E-1,7.171743654E-1
3.927276333E0,-1.927460453E-1,1.333521849E-1,5.377526361E-1,5.866103825E-1
3.937247333E0,-3.035941244E-1,8.721581152E-1,4.598823416E-1,1.031659313E0
3.947218333E0,-3.388522135E-1,3.982164359E-1,6.423394436E-1,8.282494269E-1
3.957188333E0,-2.345146254E-1,5.228621167E-1,3.509715182E-1,6.719843072E-1
3.967159333E0,-2.142888871E-1,7.664042035E-1,-1.412096733E-1,8.082297335E-1
3.977129333E0,1.984960876E-1,7.957063553E-1,1.097931683E-1,8.274079045E-1
3.987100333E0,1.072465917E-2,-2.868673235E-2,-3.671607041E-1,3.684357876E-1
3.997071333E0,-3.132443326E-1,-5.572618711E-1,-6.126256478E-1,8.854224919E-1
4.007041333E0,-1.689651635E-1,-6.775089839E-1,1.690178615E-1,7.184251438E-1
4.017012333E0,-1.406272175E-1,-3.195593986E-1,3.072173882E-1,4.650556387E-1
4.026983333E0,-8.964567315E-2,-1.412617135E-1,1.247416921E0,1.258586585E0
4.036953333E0,-2.452789474E-1,-2.906987116E-1,1.139570875E0,1.201369753E0
4.046924333E0,1.896860512E-2,-2.179111093E-1,7.198553967E-1,7.523542063E-1
4.056895333E0,-4.433285087E-1,2.898540813E-1,-2.607758778E-1,5.903893745E-1
4.066865333E0,-2.493367140E-1,-2.051866910E-1,-6.348205090E-2,3.290901790E-1
4.076836333E0,-6.059080375E-1,-6.758837503E-1,9.081486046E-2,9.122448864E-1
4.086806333E0,-5.812622794E-1,-5.162728894E-1,2.115399832E-1,8.057001292E-1
4.096777333E0,-2.201880151E-1,-5.678944480E-1,2.319210380E-1,6.517470629E-1
4.106747917E0,-3.745033086E-1,-9.389020354E-2,-2.048279643E-1,4.370613155E-1
4.116717917E0,-1.328418509E-1,-1.006663371E0,4.429903203E-1,1.107817008E0
4.126688917E0,-2.551370606E-1,-5.882164460E-1,7.232345027E-1,9.665203841E-1
4.136659917E0,-1.594274776E-1,3.321072310E-2,6.364939821E-1,6.569966986E-1
4.146629917E0,4.543391629E-2,-2.433988300E-1,3.149895072E-1,4.006564873E-1
4.156600917E0,5.340190336E-2,-6.133784768E-1,-4.265233916E-1,7.490040872E-1
4.166571917E0,4.445945039E-1,-1.301156633E0,-1.105862262E0,1.764540790E0
4.176541917E0,6.483334974E-1,-1.833649699E0,-8.587817323E-1,2.126055880E0
4.186512917E0,2.264347966E-1,-1.426208695E0,-2.505736560E-1,1.465650408E0
4.196483917E0,9.188687436E-2,-9.385824850E-1,6.413202739E-1,1.140470066E0
4.206453917E0,9.620456804E-1,-1.112406465E-1,6.564160305E-1,1.169952297E0
4.216424917E0,-2.117079079E-1,-3.574765456E-1,1.008780355E0,1.090984658E0
4.226395917E0,1.805314676E-1,1.539694673E-1,1.232042837E0,1.254682334E0
4.236365917E0,2.448842238E-1,5.150417581E-1,6.097663593E-1,8.348959867E-1
4.246336917E0,7.216265184E-1,2.006559759E-1,-5.273697352E-1,9.160384765E-1
4.256306917E0,6.389430153E-1,2.644423744E-1,-5.429128039E-1,8.791656606E-1
4.266277917E0,5.320988902E-1,-4.904322892E-2,-6.284540606E-1,8.249175555E-1
4.276248917E0,5.103053673E-1,-4.164629647E-1,-2.960544688E-1,7.221504118E-1
4.286218917E0,4.418716383E-1,1.741394377E-1,3.332912922E-3,4.749591528E-1
4.296189917E0,8.625480701E-1,-4.057514504E-1,4.903118366E-1,1.071927754E0
4.306160917E0,1.218951359E0,-8.543913504E-1,6.374768990E-1,1.619322016E0
4.316130917E0,1.832765307E0,-4.195897633E-1,8.548103034E-1,2.065377664E0
4.326101917E0,1.714588255E0,1.002151367E-1,3.968973041E-1,1.762777192E0
4.336072917E0,1.608802038E0,8.730109316E-1,-3.866003573E-2,1.830815851E0
4.346042917E0,1.554445151E0,6.878038841E-1,-2.338506192E-1,1.715826338E0
4.356013917E0,1.412613773E0,3.895333207E-1,-6.171595788E-1,1.589999945E0
4.365984917E0,1.137178121E0,6.693775535E-2,-6.015954602E-1,1.288243704E0
4.375954917E0,7.984926266E-1,2.182300749E-1,-1.031959303E0,1.322934180E0
4.385925917E0,3.949759090E-1,4.673121062E-1,-8.410997522E-1,1.040113151E0
4.395895917E0,1.782572297E-1,5.392153171E-1,-5.534646893E-1,7.930018665E-1
4.405866917E0,5.247626811E-1,4.302957228E-1,-6.811421514E-2,6.820335965E-1
4.415837917E0,6.650700559E-1,7.902117267E-1,7.519647968E-1,1.277577320E0
4.425807917E0,5.266057234E-1,1.132872597E0,6.210544091E-1,1.395142462E0
4.435778917E0,3.387357809E-1,9.046218565E-1,1.283305961E-1,9.744492672E-1
4.445749917E0,8.665098511E-1,4.483159643E-1,-8.176366299E-1,1.272932121E0
4.455719917E0,5.477548101E-1,-1.760508925E-1,-1.266163094E0,1.390754554E0
4.465690917E0,5.864256997E-1,-2.466376027E-1,-4.849604648E-1,7.999449111E-1
4.475661917E0,-3.600679311E-2,-9.825427294E-1,9.081679004E-1,1.338452704E0
4.485631917E0,-1.725490133E-1,-3.211700141E-1,1.109565888E0,1.167929707E0
4.495602917E0,-1.129834092E-1,-2.897956091E-1,6.581093842E-1,7.279111947E-1
4.505572917E0,-1.814337661E-1,-4.479987529E-1,2.164054513E-3,4.833485049E-1
4.515543917E0,-6.929617131E-1,-2.288454026E-2,3.552446634E-1,7.790496831E-1
4.525514917E0,-5.783026746E-1,-4.326732007E-1,2.064067125E-2,7.225414309E-1
4.535484917E0,-8.630263723E-1,-6.707180277E-1,-1.388421357E-2,1.093101076E0
4.545455917E0,-1.006096922E0,-7.219630256E-1,-3.338865387E-1,1.282552863E0
4.555426917E0,-9.815712876E-1,-8.840428734E-1,-5.471415102E-2,1.322122397E0
4.565396917E0,-1.276696999E0,-1.380438738E0,2.498123485E-1,1.896832240E0
4.575367917E0,-1.155330949E0,-8.679890504E-1,9.055378228E-1,1.705342588E0
4.585338917E0,-1.545077181E0,-6.336729929E-1,6.328599375E-1,1.785865801E0
4.595308917E0,-1.154200828E0,-6.878363362E-1,-1.680899084E-2,1.343719062E0
4.605279917E0,-5.492712855E-1,-8.419265485E-1,1.038024620E0,1.445003242E0
4.615249917E0,-4.855927681E-1,-4.443196848E-1,6.010230178E-1,8.913186785E-1
4.625220917E0,-2.864985652E-1,8.964951038E-2,-1.251859635E-1,3.252537287E-1
4.635191917E0,3.693201905E-2,7.060004193E-1,-7.606601912E-1,1.038462562E0
4.645161917E0,3.386290692E-1,2.061792558E-1,-1.414660152E0,1.469164007E0
4.655132917E0,4.008538956E-1,-4.325433925E-1,-5.583091074E-1,8.120878594E-1
4.665103917E0,1.460064732E-1,-3.485876083E-2,4.706143212E-1,4.939745568E-1
4.675073917E0,-2.096110963E-1,6.167350709E-2,1.734649613E0,1.748356289E0
4.685044917E0,-9.709323518E-1,7.134582505E-1,1.556321815E0,1.968214902E0
4.695015917E0,-1.018088100E0,4.242397615E-1,1.087207890E-1,1.108288303E0
4.704985917E0,-7.122343551E-1,1.076808617E-1,-8.821746880E-1,1.138905231E0
4.714956917E0,-3.732391772E-1,-5.488468507E-1,-1.003050084E0,1.202767567E0
4.724927917E0,-2.607400088E-1,-9.028501502E-1,-8.988117707E-1,1.300379308E0
4.734897917E0,-2.160400186E-1,-9.406287181E-1,-1.333077461E-1,9.742826234E-1
4.744868917E0,-2.756466811E-1,-2.788338339E-1,4.988990575E-1,6.345310626E-1
4.754838917E0,-6.845191011E-2,8.895486116E-2,6.665936941E-1,6.759776508E-1
4.764809917E0,-4.233596094E-1,-1.592980349E-1,9.361719704E-1,1.039724570E0
4.774780917E0,-2.299025244E-1,-7.136558864E-1,1.370569223E0,1.562248344E0
4.784750917E0,-3.002659258E-1,6.442985532E-1,5.091071266E-1,8.743399328E-1
4.794721917E0,-5.377524168E-1,1.221888562E0,-3.425129360E-1,1.378225102E0
4.804692917E0,-1.038300681E0,9.394203910E-1,-3.809607178E-1,1.451106490E0
4.814662917E0,-7.791353461E-1,7.154463038E-1,9.729649901E-2,1.062253223E0
4.824633917E0,-5.517937743E-1,9.175825024E-1,-5.607199144E-1,1.208652490E0
4.834604917E0,-1.427638998E-1,1.499433962E0,-1.382262484E0,2.044341780E0
4.844574917E0,-2.774464724E-1,9.453675941E-1,-1.303039729E0,1.633587760E0
4.854545917E0,-3.793213778E-1,2.275037590E-1,-5.061390799E-1,6.721751529E-1
4.864516917E0,-6.668752375E-1,-3.506385192E-1,2.326431692E-2,7.537978390E-1
4.874486917E0,-2.861020326E-1,-1.412681454E-1,4.951720423E-1,5.890725027E-1
4.884457917E0,-4.132808369E-2,3.497251841E-1,5.468128967E-1,6.503999223E-1
4.894427917E0,-5.025061318E-1,-1.541758740E-1,7.385892910E-1,9.065300620E-1
4.904398917E0,-4.304601757E-1,-9.936869377E-1,1.740150089E0,2.049593137E0
4.914369917E0,-7.513500351E-1,-1.449325663E0,6.331201386E-1,1.750974832E0
4.924339917E0,-6.968012141E-1,-3.971841100E-1,-2.311638236E-1,8.346998638E-1
4.934310917E0,-1.641736772E0,-1.530450225E-1,-5.650725818E-1,1.742994386E0
4.944281917E0,-1.879836855E0,-7.966579896E-1,4.347586101E-1,2.087454336E0
4.954251917E0,-2.255182930E0,-7.906488061E-1,3.393753201E-1,2.413742155E0
4.964222917E0,-1.812355601E0,1.184362301E-1,7.237654299E-1,1.955120550E0
4.974193917E0,-1.456176553E0,4.371030512E-1,2.810534370E-1,1.546124272E0
4.984163917E0,-7.793774208E-1,4.058868134E-1,-4.241856748E-1,9.757595790E-1
4.994134917E0,-6.413579884E-1,-7.944492039E-1,3.886544842E-1,1.092493439E0
5.004104917E0,2.729772445E-1,-7.748741877E-1,1.708258206E-1,8.391233781E-1
5.014075917E0,7.144470146E-1,7.221135914E-2,-7.892688632E-2,7.224115659E-1
5.024046917E0,6.297498766E-1,2.152032638E-1,2.407801545E-1,7.077234168E-1
5.034016917E0,9.191507987E-1,-2.272546676E-1,2.718329626E-1,9.850766641E-1
5.043987917E0,6.906766943E-1,-5.739907551E-1,-2.693888265E-1,9.375873414E-1
5.053958917E0,6.242493278E-1,-8.909563288E-1,1.773226619E-2,1.088027958E0
5.063928917E0,7.443430608E-2,-2.364245635E-1,-3.285696656E-1,4.115763177E-1
5.073899917E0,-3.788917536E-1,-8.698306310E-1,-2.845208359E-1,9.905131971E-1
5.083870917E0,-1.199984554E-2,-1.023232918E0,-4.658120030E-1,1.124335548E0
5.093840917E0,2.989529335E-1,-8.505169854E-1,3.757508487E-1,9.766988784E-1
5.103811917E0,-1.258860397E-1,-1.145808685E-1,1.522429599E0,1.531916432E0
5.113781917E0,7.073002188E-3,2.589974472E-1,1.494600946E0,1.516892116E0
5.123752917E0,4.743006435E-2,2.328478217E-1,7.277310115E-1,7.655456513E-1
5.133723917E0,6.063672998E-1,-7.041655630E-2,-8.833388686E-3,6.105062018E-1
5.143693917E0,6.500290438E-1,-4.857007223E-1,-8.581174886E-1,1.181020141E0
5.153664917E0,6.985496047E-1,-6.918530810E-1,-3.586617762E-1,1.046551721E0
5.163635917E0,8.925029173E-1,-2.760970446E-1,-3.371685809E-1,9.932138176E-1
5.173605917E0,1.476739018E0,3.844213924E-1,-3.841059351E-1,1.573554989E0
5.183576917E0,1.561756071E0,-2.404784381E-1,4.720714474E-1,1.649170506E0
5.193547917E0,1.661052172E0,-4.695448655E-1,4.523827028E-1,1.784437393E0
5.203517917E0,1.890135410E0,-1.709670308E-1,7.968386686E-1,2.058347264E0
5.213488917E0,1.766865433E0,7.091181546E-1,-3.792287725E-1,1.941256417E0
5.223458917E0,1.648753869E0,5.945109737E-1,-3.230352759E-1,1.782185290E0
5.233429917E0,1.771793466E0,4.018700686E-1,-5.983689666E-2,1.817782191E0
5.243400917E0,1.435463522E0,4.373267072E-1,-4.402953386E-1,1.563863855E0
5.253370917E0,9.949897704E-1,6.671962497E-1,-7.803629690E-1,1.429727891E0
5.263341917E0,6.958655865E-1,5.995655993E-1,-9.216235131E-1,1.301190886E0
5.273312917E0,4.344789670E-1,5.598478022E-1,-8.155053198E-1,1.080393660E0
5.283282917E0,2.121844194E-1,7.715985775E-1,3.996028107E-1,8.944657618E-1
5.293253917E0,3.869562700E-1,5.749619776E-1,1.755187958E0,1.887061525E0
5.303224917E0,2.431326355E-1,1.000499821E0,1.936845746E0,2.193509702E0
5.313194917E0,4.290808541E-1,1.236999814E0,-8.512961268E-2,1.312069346E0
5.323165917E0,6.071268896E-1,7.174472210E-1,-1.347042366E0,1.642515361E0
5.333135917E0,9.651667779E-1,-4.460984078E-1,-1.678028101E0,1.986536938E0
5.343106917E0,3.985962857E-1,-1.067515052E0,-6.793809700E-1,1.326659673E0
5.353077917E0,5.681699981E-1,-8.939901567E-1,3.833995914E-1,1.126512669E0
5.363047917E0,2.234141798E-1,-4.804955310E-1,5.828679979E-2,5.330921140E-1
5.373018917E0,4.899646947E-1,-2.896739870E-1,-1.799498159E-1,5.969575840E-1
5.382989917E0,2.803611632E-1,-1.348284314E0,1.212448232E0,1.834803447E0
5.392959917E0,3.167609212E-1,-9.784046549E-1,1.293088937E0,1.652178002E0
5.402930917E0,-2.891147922E-1,-2.014418417E-1,8.302356255E-1,9.019187173E-1
5.412901917E0,-2.054715052E-1,1.776708636E-1,-3.986087841E-1,4.823633879E-1
5.422871917E0,-4.996230159E-1,-5.884371784E-1,-4.168778247E-1,8.773075810E-1
5.432842917E0,-8.860331194E-1,-1.319282125E0,-2.961374992E-1,1.616557278E0
5.442812917E0,-1.023149888E0,-4.797134659E-1,2.726977658E-1,1.162464956E0
5.452783917E0,-9.219149968E-1,-2.527418035E-1,8.767315149E-3,9.559720427E-1
5.462754917E0,-6.973113106E-1,-3.461501965E-1,-5.403084540E-1,9.476266395E-1
5.472724917E0,-3.002510154E-1,-1.414136242E0,5.984619373E-1,1.564636914E0
5.482695917E0,-1.250063992E-1,-7.527606028E-1,3.651773286E-1,8.459489384E-1
5.492666917E0,-6.097483791E-1,1.211692187E-1,6.324237353E-1,8.868116183E-1
5.502636917E0,-3.462967789E-1,6.360148028E-1,6.137266785E-1,9.492611465E-1
5.512607917E0,-4.585837847E-2,-7.091871518E-1,2.471600515E-1,7.524210910E-1
5.522578917E0,-2.055576785E-1,-1.692798752E0,-2.242991924E-3,1.705235059E0
5.532548917E0,-1.072616620E-1,-1.704458685E0,-1.091031969E-2,1.707865190E0
5.542519917E0,4.885098709E-1,-6.324664199E-1,5.720032865E-1,9.827733340E-1
5.552489917E0,4.238895133E-1,6.423347658E-1,2.399334776E-1,8.061292356E-1
5.562460917E0,6.870764174E-1,7.412076741E-1,8.550786906E-1,1.323866454E0
5.572431917E0,4.330689841E-1,1.309261751E-1,9.851038098E-1,1.084029485E0
5.582401917E0,4.412214645E-1,2.685401031E-1,9.533464122E-1,1.084278354E0
5.592372917E0,-8.898385056E-2,5.587362465E-1,-1.355969310E-1,5.817996619E-1
5.602343917E0,1.277065520E-1,2.576441091E-1,-5.272627312E-1,6.005792521E-1
5.612313917E0,-4.255522787E-1,2.282378769E-1,-2.506286198E-1,5.440606358E-1
5.622284917E0,-1.862220693E-1,-3.959819224E-1,-3.623630637E-1,5.681437599E-1
5.632255917E0,-3.296552011E-1,-5.300021517E-1,7.104367018E-3,6.241997313E-1
5.642225917E0,5.739553794E-3,-3.041858992E-1,2.127976608E0,2.149615418E0
5.652196917E0,2.797311257E-1,1.145420137E0,1.563902730E0,1.958578194E0
5.662166917E0,4.350636521E-1,1.826078724E0,3.981369138E-2,1.877612585E0
5.672137917E0,5.768648443E-1,1.517327319E0,-9.042841798E-1,1.858167140E0
5.682108917E0,7.416274311E-1,5.463024348E-1,-7.718464994E-1,1.201750646E0
5.692078917E0,2.831654878E-1,2.627443430E-1,-4.270221591E-1,5.758169914E-1
5.702049917E0,1.575552357E-2,1.598191972E0,-1.739418018E0,2.362211010E0
5.712020917E0,3.424986469E-1,1.264196383E0,-9.631492692E-1,1.625778070E0
5.721990917E0,9.663557178E-2,8.714082098E-1,3.243690258E-1,9.348293784E-1
5.731961917E0,-6.819826886E-2,-1.180076292E-1,-2.855090153E-1,3.163735170E-1
5.741931917E0,4.991664945E-1,8.279686600E-1,-2.326919934E0,2.519772940E0
5.751902917E0,5.810147960E-1,6.963662544E-1,-4.582512608E0,4.671394434E0
5.761873917E0,6.032228134E-1,-1.517399824E0,-3.666519964E0,4.013695135E0
5.771843917E0,4.483221770E-1,-3.348038207E0,-1.490540639E0,3.692162511E0
5.781814917E0,3.823716509E-1,-2.792591019E0,2.976710485E0,4.099460695E0
5.791785917E0,5.984436648E-1,-9.699098200E-1,4.227613515E0,4.378535818E0
5.801755917E0,7.259806475E-1,8.128623784E-2,2.161513898E0,2.281621722E0
5.811726917E0,-7.543867500E-2,-1.161752288E0,5.498546183E-2,1.165496792E0
5.821697917E0,-2.348733338E-1,-1.381458492E0,1.124024883E0,1.796392214E0
5.831667917E0,-9.162749188E-1,-4.547841543E-1,1.192332641E0,1.571001426E0
5.841638917E0,-1.212264557E0,1.052903737E0,1.141551912E-1,1.609727630E0
5.851608917E0,-6.421353757E-1,-4.972939968E-2,-8.243346155E-2,6.493120433E-1
5.861579917E0,-7.661214906E-1,-9.808528841E-1,5.137071311E-2,1.245653832E0
5.871550917E0,-7.532175627E-1,-5.826534051E-1,8.535361952E-1,1.278806367E0
5.881520917E0,-1.915443694E-1,-7.030200934E-1,2.178689509E0,2.297305917E0
5.891491917E0,-2.496817729E-1,1.901222169E-1,2.378505240E0,2.399119551E0
5.901462917E0,-3.944418755E-1,3.773731586E-1,1.849519334E0,1.928397434E0
5.911432917E0,-1.724951275E-1,1.185537592E-1,8.531689900E-1,8.784684902E-1
5.921403917E0,-2.450198974E-2,-6.135623717E-1,-1.354946047E-1,6.288226454E-1
5.931373917E0,-3.418927657E-1,-3.208361381E-1,-7.230000293E-1,8.617166200E-1
5.941344917E0,-1.048896384E-1,-1.115755166E0,-4.302995235E-1,1.200445378E0
5.951315917E0,-2.904610588E-1,-2.223249678E0,-5.614315206E-1,2.311365853E0
5.961285917E0,-1.457091057E-1,-1.931718615E0,-1.191532157E0,2.274316784E0
5.971256917E0,-5.001034012E-2,-1.835466429E0,-1.124703160E0,2.153229027E0
5.981227917E0,6.210103358E-1,5.768599838E-1,-1.752526891E0,1.946733618E0
5.991197917E0,-2.845664259E-1,1.998772730E0,-1.127147881E0,2.312257084E0
6.001168917E0,-4.354374719E-1,1.505675865E0,8.755913079E-2,1.569819162E0
6.011139917E0,-8.112084203E-1,3.292298162E-1,-9.210534096E-2,8.803037924E-1
6.021109917E0,-5.766311749E-1,-1.150618020E0,3.997981077E-1,1.347688342E0
6.031080917E0,-3.435281223E-2,-8.094198301E-1,1.338441111E0,1.564533536E0
6.041050917E0,1.248794780E-1,-7.228620350E-3,1.856945883E0,1.861154252E0
6.051021917E0,9.943784075E-2,4.262520808E-1,5.637166125E-1,7.136912075E-1
6.060992917E0,2.911430269E-1,3.432274657E-1,-1.615805540E0,1.677318365E0
6.070962917E0,1.254362828E0,-5.441173303E-1,-2.028342977E0,2.446153103E0
6.080933917E0,1.711161641E0,-1.113736415E0,-8.230827266E-1,2.201351434E0
6.090904917E0,2.301170551E0,-5.404873788E-1,1.753280012E0,2.943043206E0
6.100874917E0,1.705780009E0,5.489178944E-1,1.952301106E0,2.649995454E0
6.110846042E0,1.757083333E0,4.773278019E-1,5.505785036E-1,1.902188308E0
6.120816042E0,1.754885804E0,3.581007358E-1,-3.085458755E-1,1.817432496E0
6.130787042E0,1.790409831E0,-4.714349779E-1,-1.200550318E-1,1.855325177E0
6.140758042E0,1.187969814E0,3.218874675E-1,1.935024923E-1,1.245924169E0
6.150728042E0,4.731233615E-1,1.876547504E0,-1.081933116E0,2.217172866E0
6.160699042E0,-7.388168938E-2,1.414514557E0,-6.983569390E-1,1.579244233E0
6.170670042E0,7.408025717E-2,5.947527561E-1,-3.928919613E-1,7.166469275E-1
6.180640042E0,-2.669881059E-1,2.123816898E-1,1.311179638E-2,3.414096514E-1
6.190611042E0,-2.068501142E-1,5.036446577E-1,-1.245456934E-2,5.446099772E-1
6.200581042E0,-1.182050276E-1,6.506082836E-1,2.976875961E-1,7.251768557E-1
6.210552042E0,7.506984361E-1,9.240793437E-2,-3.761315024E-1,8.447261540E-1
6.220523042E0,6.365512848E-1,-1.061678946E-2,-5.819382906E-1,8.625325666E-1
6.230493042E0,1.438398240E0,6.921612293E-2,3.235697114E-1,1.475966709E0
6.240464042E0,1.250474137E0,4.091290945E-1,1.002760647E0,1.654267542E0
6.250435042E0,1.368066907E0,-2.767136335E-2,9.529610807E-1,1.667485408E0
6.260405042E0,1.336581112E0,-1.578494749E0,5.659210128E-1,2.144379009E0
6.270376042E0,1.132622921E0,-2.087024463E0,-2.111528975E-1,2.383923518E0
6.280347042E0,7.310989346E-1,-1.097814739E0,-9.159698403E-1,1.605834238E0
6.290317042E0,1.424689991E-1,-6.729157037E-1,-5.722938931E-1,8.947811241E-1
6.300288042E0,-8.968238270E-2,6.612645417E-2,5.774850512E-1,5.881365675E-1
6.310258042E0,-1.042140840E-1,-3.195833722E-1,7.751484221E-1,8.448959601E-1
6.320229042E0,-1.131438239E-1,-7.696561325E-1,8.378358364E-2,7.824268503E-1
6.330200042E0,-2.420132592E-1,-1.221179295E0,2.026931459E-1,1.261322242E0
6.340170042E0,-1.494108135E-1,-3.817468759E-1,9.054910451E-1,9.939659457E-1
6.350141042E0,-3.072987741E-1,-4.550385082E-1,6.397731006E-1,8.430908615E-1
6.360112042E0,-2.383069284E-1,-4.043782318E-1,-4.419764131E-1,6.447131891E-1
6.370082042E0,-7.971674466E-2,-7.756214619E-1,-6.568159801E-1,1.019485480E0
6.380053042E0,-5.329832815E-1,-1.251827183E0,-6.051792186E-1,1.489088433E0
6.390023042E0,-3.648416984E-1,-4.708686751E-1,-2.228110760E-1,6.359807778E-1
6.399994042E0,1.281753434E-1,4.616017154E-1,8.110088110E-4,4.790675527E-1
6.409965042E0,4.574525677E-1,3.436119202E-1,9.299996495E-1,1.091893471E0
6.419935042E0,9.163508595E-1,-3.029787415E-1,1.123629026E0,1.481228276E0
6.429906042E0,5.923601850E-1,-1.932621717E-1,7.643538773E-1,9.861428424E-1
6.439877042E0,3.922462095E-1,5.612844631E-1,4.914526284E-2,6.865221003E-1
6.449847042E0,-1.174310207E-1,1.336240804E-1,1.525871855E-1,2.343678490E-1
6.459818042E0,4.568906046E-2,-2.888115227E-1,4.772684526E-1,5.597184665E-1
6.469788042E0,-1.478643529E-1,-4.873525608E-1,2.257323450E-1,5.570740318E-1
6.479759042E0,-8.279688793E-1,-1.339632189E-1,1.285709167E-1,8.485334935E-1
6.489730042E0,-9.550384502E-1,-2.025662613E-1,-8.976119220E-2,9.804022660E-1
6.499700042E0,-7.003821221E-1,-4.227601236E-1,-5.069974512E-1,9.624487802E-1
6.509671042E0,-1.036611202E0,-4.091688555E-1,-1.151055391E0,1.602158060E0
6.519642042E0,-9.101620203E-1,-1.819019088E-1,-5.474087280E-1,1.077561842E0
6.529612042E0,-5.630326344E-1,7.571062535E-2,2.068452537E-1,6.045848205E-1
6.539583042E0,-3.791364231E-1,3.198251545E-2,6.357490468E-1,7.409076590E-1
6.549553042E0,-3.375353475E-1,4.642040187E-1,-2.742794377E-1,6.361168853E-1
6.559524042E0,-3.538818236E-1,6.335753444E-1,-8.188136744E-1,1.094123346E0
6.569495042E0,-6.586913283E-1,7.531333628E-1,-1.006999294E0,1.419553347E0
6.579465042E0,-5.366564659E-1,3.559589007E-1,-6.943907726E-1,9.470403616E-1
6.589436042E0,-6.879344232E-1,4.313707334E-1,-5.714419538E-1,9.929150955E-1
6.599407042E0,-1.048495229E0,1.096429533E0,-1.134048180E0,1.894086915E0
6.609377042E0,-8.066437914E-1,8.900888944E-1,-1.300950519E0,1.770707401E0
6.619348042E0,-4.112980460E-1,9.254993400E-1,-3.003463250E-1,1.056372579E0
6.629318042E0,-6.298588724E-2,1.541089234E-1,1.215578831E0,1.226926517E0
6.639289042E0,1.753075469E-1,3.902881962E-1,2.284665615E0,2.324382624E0
6.649260042E0,-5.329972326E-2,4.598089591E-1,1.038525141E0,1.137013460E0
6.659230042E0,-1.166580462E-1,3.846330616E-1,1.490022576E-1,4.286646295E-1
6.669201042E0,-3.716298407E-1,-3.714625007E-1,-5.554357857E-1,7.645927281E-1
6.679172042E0,2.003415236E-1,-3.805572599E-2,2.042584455E-1,2.886286142E-1
6.689142042E0,-1.811610666E-1,-3.572180986E-2,-9.522599995E-2,2.077579621E-1
6.699113042E0,1.607953241E-2,-7.785047239E-1,5.903933644E-3,7.786931443E-1
6.709083042E0,-3.884229344E-1,-7.610817754E-1,1.682249790E-1,8.708716831E-1
6.719054042E0,-3.035878569E-1,-1.209224662E0,1.046077405E0,1.627472829E0
6.729025042E0,-6.080847001E-1,-5.052023560E-1,6.175688839E-1,1.003188790E0
6.738995042E0,-7.326122671E-1,-1.710532773E-1,3.105877233E-1,8.139070533E-1
6.748966042E0,-4.752812764E-1,-1.400199696E0,3.545383197E-1,1.520575187E0
6.758937042E0,-5.031266310E-1,-1.198863104E0,7.107290626E-3,1.300176781E0
6.768907042E0,-5.000543211E-1,-1.355268813E0,3.027407598E-1,1.475960653E0
6.778878042E0,-2.361688575E-1,-5.635201460E-1,3.348419738E-1,6.967422993E-1
6.788848042E0,1.693743955E-1,-6.601377833E-1,4.262403864E-1,8.038348373E-1
6.798819042E0,7.795900768E-2,-1.797050807E0,3.954249752E-1,1.841692189E0
6.808790042E0,3.370415867E-1,-1.561362700E0,-3.818816543E-1,1.642341045E0
6.818760042E0,3.631333247E-1,-9.707231677E-1,-4.529165536E-1,1.131062635E0
6.828731042E0,2.299023965E-1,-7.965957168E-1,-5.947203040E-2,8.312380948E-1
6.838702042E0,4.854451625E-1,-2.126784360E-1,4.151657599E-1,6.732397278E-1
6.848672042E0,-6.253529166E-1,-5.408499062E-2,3.531244630E-1,7.202002103E-1
6.858643042E0,-1.175763313E0,8.499658853E-2,3.700457203E-1,1.235547499E0
6.868613042E0,-1.401876969E0,-3.823739898E-1,1.957332051E-1,1.466212943E0
6.878584042E0,-7.188863669E-1,-5.570972720E-1,1.480427295E-1,9.214508282E-1
6.888555042E0,-2.913048120E-1,-3.062093282E-1,-1.607604235E-1,4.521797872E-1
6.898525042E0,-2.058741043E-1,3.591152278E-1,2.000525433E-1,4.597487506E-1
6.908496042E0,-3.587138529E-1,6.924576831E-1,9.405772626E-2,7.855062871E-1
6.918467042E0,-5.654019627E-1,-2.413198525E-1,4.645601141E-1,7.705392594E-1
6.928437042E0,6.837937723E-2,-4.596034294E-1,9.635632521E-1,1.069750061E0
6.938408042E0,2.628662209E-1,-3.888720006E-2,2.686941773E-1,3.778986972E-1
6.948378042E0,8.424331366E-1,-9.209540069E-2,-5.237029463E-1,9.962127928E-1
6.958349042E0,1.442051142E0,-4.127163613E-1,-3.488425469E-1,1.539979679E0
6.968320042E0,1.490109407E0,-4.646808591E-1,-2.137981778E-1,1.575456761E0
6.978290042E0,1.241117423E0,1.280993387E-1,-3.600095594E-1,1.298610327E0
6.988261042E0,1.321902408E0,9.272219297E-1,5.664431691E-2,1.615665517E0
6.998232042E0,1.367728207E0,9.058427551E-1,4.603588897E-1,1.703866735E0
7.008202042E0,1.176567817E0,7.359872800E-1,7.669441938E-2,1.389917673E0
7.018173042E0,6.026857832E-1,5.478156942E-1,-1.239165330E-1,8.238249178E-1
7.028143042E0,-2.034167068E-2,7.367175972E-1,9.699595213E-2,7.433537626E-1
7.038114042E0,-3.995355312E-1,1.361833190E0,-4.909497678E-1,1.501748965E0
7.048085042E0,-6.614044364E-1,9.249827385E-1,-3.751743132E-1,1.197415826E0
7.058055042E0,-7.730441188E-2,1.047176097E0,-3.010602701E-1,1.092332841E0
7.068026042E0,5.172455646E-2,8.793472669E-1,-2.982103372E-1,9.299765861E-1
7.077997042E0,4.051131171E-1,6.537105238E-1,-1.005995911E-1,7.756122513E-1
7.087967042E0,3.744710759E-1,2.557078037E-1,-1.228242731E-1,4.697881114E-1
7.097938042E0,4.431708897E-1,2.403424904E-1,-3.241287053E-1,5.993532912E-1
7.107908167E0,4.744413970E-1,1.006305814E-1,2.512028164E-1,5.461904503E-1
7.117879167E0,6.531977230E-1,-8.341833732E-1,1.369108003E-1,1.068304139E0
7.127850167E0,5.817833759E-1,-3.346218261E-1,-2.063277751E-1,7.021501362E-1
7.137820167E0,6.373479679E-1,-7.090707922E-1,2.875672352E-1,9.958356970E-1
7.147791167E0,3.954774539E-1,-5.555351883E-1,4.968420070E-1,8.437261060E-1
7.157762167E0,3.437311668E-1,-4.074907047E-1,-4.859854817E-2,5.353144948E-1
7.167732167E0,5.333604909E-2,-1.150094986E0,-5.635721862E-2,1.152709568E0
7.177703167E0,-1.990103685E-1,-1.106166609E0,7.147636414E-1,1.331952235E0
7.187673167E0,-2.607421102E-1,-3.362754187E-1,8.030314547E-1,9.088053270E-1
7.197644167E0,-5.153290026E-1,-7.970705107E-1,-1.828073502E-2,9.493258477E-1
7.207615167E0,-5.603180645E-1,-8.635697249E-1,-8.480006361E-1,1.333721891E0
7.217585167E0,-7.168478083E-1,-1.056369674E0,-3.011099714E-1,1.311661116E0
7.227556167E0,-7.437915587E-1,-1.816504785E0,6.761141306E-1,2.076064988E0
7.237526167E0,-9.560998660E-1,-1.391539969E0,9.565120947E-1,1.940470517E0
7.247497167E0,-4.567795166E-1,-8.453831300E-1,4.969203597E-1,1.081780942E0
7.257468167E0,-3.774513286E-1,-1.134490229E0,1.377223939E-1,1.203538551E0
7.267438167E0,-2.457542895E-1,-1.056301554E0,7.037381315E-1,1.292832356E0
7.277409167E0,1.266627875E-1,-1.938328600E-1,5.919130558E-1,6.355908314E-1
7.287380167E0,2.299375894E-1,2.913647094E-1,1.653171587E-1,4.063181658E-1
7.297350167E0,8.025636957E-2,1.357720551E-1,3.634629250E-2,1.618523672E-1
7.307321167E0,2.898875931E-1,-3.244921097E-1,-3.401015443E-1,5.522671512E-1
7.317291167E0,-4.756776811E-1,-3.866281316E-1,-2.806394541E-1,6.741728796E-1
7.327262167E0,-4.730997533E-1,-1.376379016E-1,4.575224054E-1,6.723795952E-1
7.337233167E0,-5.159000563E-1,3.206958050E-1,3.638698912E-1,7.080960140E-1
7.347203167E0,-6.482745136E-1,4.044577539E-1,-2.285852015E-2,7.644399464E-1
7.357174167E0,-4.274069059E-1,1.343251616E-1,-7.066944838E-3,4.480734917E-1
7.367145167E0,4.196403782E-1,2.867217278E-1,2.058184826E-1,5.483326035E-1
7.377115167E0,2.441226057E-1,4.272089776E-1,1.904438138E-3,4.920436810E-1
7.387086167E0,1.603630687E-1,3.303989670E-1,2.897833300E-1,4.678185220E-1
7.397056167E0,-1.741124674E-1,-1.086447752E-1,1.399630469E-1,2.484119421E-1
7.407027167E0,-7.013489592E-1,-1.745534205E-1,-5.495125562E-1,9.079225235E-1
7.416998167E0,-6.175999472E-1,2.699843654E-1,-8.829143608E-1,1.110792069E0
7.426968167E0,-3.146721130E-1,8.396163136E-1,-8.019918197E-1,1.202981700E0
7.436939167E0,-5.640833425E-1,8.252476582E-1,9.557858706E-3,9.996574750E-1
7.446910167E0,-4.174444564E-1,9.039657989E-1,5.979017740E-1,1.161421789E0
7.456880167E0,-9.180904244E-2,9.883110076E-1,-1.083126533E-1,9.984584012E-1
7.466851167E0,-2.620825661E-1,7.065345624E-1,-1.103936774E-1,7.616200649E-1
7.476821167E0,-7.675040647E-1,5.986853009E-1,4.254843414E-2,9.743187098E-1
7.486792167E0,-6.874735165E-1,5.644896144E-1,-3.730190295E-1,9.645784348E-1
7.496763167E0,-8.176160185E-1,4.347571483E-1,-8.640395486E-1,1.266520459E0
7.506733167E0,-5.959182158E-1,-1.345432627E-1,-5.732481587E-1,8.377552512E-1
7.516704167E0,-6.155561261E-1,-7.201869339E-2,-4.360438281E-1,7.577798207E-1
7.526675167E0,-4.464107222E-1,3.184846804E-1,1.504202074E-1,5.686310432E-1
7.536645167E0,-3.565518084E-1,-1.156061777E-1,7.330537319E-1,8.233236024E-1
7.546616167E0,-1.263603402E-1,-7.400434935E-1,1.491479702E0,1.669773341E0
7.556586167E0,-3.857492220E-1,-7.026359314E-1,9.143466532E-1,1.215947991E0
7.566557167E0,-4.219029218E-1,-3.161130497E-1,4.310935754E-1,6.810074936E-1
7.576528167E0,-4.996388034E-1,-4.080581769E-1,-6.541981816E-2,6.484058623E-1
7.586498167E0,-2.519967952E-1,-6.039211902E-1,1.202362955E-1,6.653419839E-1
7.596469167E0,-4.183857119E-1,-1.220350452E0,2.590854478E-1,1.315837033E0
7.606439167E0,-4.916655401E-1,-6.854515493E-1,2.202119887E-1,8.718211684E-1
7.616410167E0,-1.496726591E-1,-8.747387838E-1,1.538519382E-1,9.006887719E-1
7.626381167E0,-6.316720574E-2,-9.531326964E-1,6.759843224E-1,1.170216577E0
7.636351167E0,2.722000947E-1,-9.122437021E-1,9.727404571E-1,1.361067765E0
7.646322167E0,1.664419985E-1,-8.200956765E-1,1.508909667E0,1.725418280E0
7.656293167E0,-9.142345511E-2,-4.286424226E-1,6.046950692E-1,7.468257503E-1
7.666263167E0,-4.506498805E-1,-5.739808148E-1,4.517588049E-1,8.582687856E-1
7.676234167E0,-8.081297882E-2,-1.366598378E0,-4.093881261E-1,1.428887855E0
7.686204167E0,-2.414965115E-1,-1.624622264E0,-1.200547394E0,2.034461136E0
7.696175167E0,-2.143504108E-1,-1.832604217E0,-6.505442566E-1,1.956423304E0
7.706146167E0,-2.671083393E-1,-1.304552696E0,-3.667092991E-1,1.381188007E0
7.716116167E0,-6.876840893E-1,-1.093601820E0,-9.077626884E-2,1.295034624E0
7.726087167E0,6.881006121E-2,3.120363709E-1,-6.384691715E-2,3.258495821E-1
7.736058167E0,1.208878032E-1,1.224027181E0,9.358351707E-1,1.545523817E0
7.746028167E0,2.893409881E-1,1.135218208E0,1.560173376E0,1.951045758E0
7.755999167E0,7.823294973E-2,1.802673197E-1,8.965050441E-1,9.177897336E-1
7.765969167E0,4.279648034E-1,2.690493956E-1,-6.868899643E-1,8.528536060E-1
7.775940167E0,3.162946057E-1,1.285030890E-1,-1.570806538E0,1.607478927E0
7.785911167E0,4.126938495E-1,2.184554851E-1,-1.526605681E0,1.596422224E0
7.795881167E0,4.184975034E-1,-1.203213724E-1,-4.561383694E-1,6.306184307E-1
7.805852167E0,8.434606386E-1,-2.110260129E-2,3.405950493E-1,9.098770006E-1
7.815822167E0,9.904813479E-1,4.504844043E-1,7.520355481E-1,1.322704413E0
7.825793167E0,1.284185674E0,7.098437941E-1,8.750755835E-1,1.708440322E0
7.835764167E0,1.280660096E0,-1.998815122E-1,-9.121188641E-2,1.299370043E0
7.845734167E0,1.217229720E0,-1.455360281E-1,1.133307338E-2,1.225951616E0
7.855705167E0,7.699861347E-1,1.240492648E-1,-2.599408954E-1,8.220925354E-1
7.865676167E0,3.245024154E-1,-1.212598506E-1,-3.378831106E-1,4.839119398E-1
7.875646167E0,-1.266188877E-1,-5.913590321E-1,-4.720503974E-1,7.671827848E-1
7.885617167E0,-1.032166952E-2,2.342909145E-1,-6.866402882E-1,7.255850432E-1
7.895587167E0,-3.672444290E-1,9.487399757E-1,-1.574076301E-1,1.029443138E0
7.905558167E0,-1.941343753E-1,6.161921570E-1,-1.614661825E-1,6.659221111E-1
7.915529167E0,-4.125746394E-1,4.714931577E-2,1.196761322E-1,4.321611594E-1
7.925499167E0,-9.581530793E-2,3.688499647E-1,4.171608299E-1,5.650256877E-1
7.935470167E0,-5.836487108E-1,3.944628158E-1,4.050705421E-1,8.126062237E-1
7.945441167E0,-5.186234701E-1,3.579507548E-1,1.926183933E-1,6.589392172E-1
7.955411167E0,-5.995244129E-1,1.769969720E-1,-8.665398180E-2,6.310834829E-1
7.965382167E0,-4.256234412E-2,-6.905205005E-1,9.990961969E-2,6.990079019E-1
7.975352167E0,-3.196418809E-1,-7.359235454E-1,1.356448781E-1,8.137284127E-1
7.985323167E0,-3.461442396E-1,-3.709397596E-1,-3.703918755E-2,5.087082084E-1
7.995294167E0,-7.369230538E-1,-5.028777954E-1,3.850128382E-1,9.716874754E-1
8.005264167E0,-3.774341524E-1,-3.201590306E-1,1.491098464E-1,5.169062686E-1
8.015235167E0,-6.272691954E-1,-2.022475880E-1,2.666055518E-1,7.109495415E-1
8.025206167E0,-7.009068366E-1,-2.867337146E-1,-2.352212065E-1,7.929789611E-1
8.035176167E0,-7.893773291E-1,-3.561176527E-1,-3.033775216E-1,9.175915599E-1
8.045147167E0,-7.448128480E-1,-6.909186959E-1,-4.546707183E-1,1.113032023E0
8.055117167E0,-4.660952275E-1,-6.365781820E-1,-5.417924774E-1,9.570870553E-1
8.065088167E0,-6.011940123E-1,-1.102945086E0,-4.489462942E-1,1.333969594E0
8.075059167E0,-4.565293289E-1,-7.596369284E-1,3.421796447E-1,9.500285261E-1
8.085029167E0,-6.185982131E-1,-1.143347007E0,7.175211883E-1,1.484837629E0
8.095000167E0,-2.259376919E-1,-9.287553620E-1,1.453062326E-1,9.668238021E-1
8.104970167E0,4.900640974E-1,-9.719139531E-1,9.595573246E-1,1.451044386E0
8.114941167E0,1.103472578E0,-7.168268314E-1,1.210707516E0,1.788100983E0
8.124912167E0,1.213100416E0,-6.307014379E-1,9.178690159E-1,1.646778811E0
8.134882167E0,9.659799794E-1,-9.688921121E-1,6.416822165E-1,1.511166871E0
8.144853167E0,7.944237685E-1,-1.311784825E0,6.664024901E-1,1.672118665E0
8.154824167E0,1.041276768E0,-7.489830092E-1,1.755503708E-1,1.294623802E0
8.164794167E0,1.989931740E-1,7.837476298E-1,9.710471034E-2,8.144249231E-1
8.174765167E0,7.073130461E-1,6.625468361E-1,3.141504318E-1,1.018798581E0
8.184735167E0,6.622726017E-1,2.886822993E-1,4.117872387E-1,8.315715236E-1
8.194706167E0,1.979720674E-1,5.034414670E-1,-3.290169775E-2,5.419675008E-1
8.204677167E0,-5.360996648E-1,-3.777272075E-1,1.194451672E-1,6.665942108E-1
8.214647167E0,-6.930121453E-1,2.892784229E-1,6.863479275E-1,1.017359974E0
8.224618167E0,-3.959248390E-1,9.298175088E-1,4.862585467E-1,1.121500982E0
8.234588167E0,2.993660028E-1,8.248851308E-1,-9.678860986E-1,1.306468133E0
8.244559167E0,2.767657468E-1,7.568533614E-1,-1.733971921E0,1.912089149E0
8.254530167E0,3.990002917E-2,2.276964247E-1,-1.977275734E0,1.990742827E0
8.264500167E0,9.387472669E-2,1.819174039E-1,-1.250629966E0,1.267273340E0
8.274471167E0,1.601709511E-1,9.225225225E-1,-6.375435573E-1,1.132768434E0
8.284442167E0,6.773171221E-1,7.785056010E-1,5.196180815E-1,1.155349473E0
8.294412167E0,6.975734852E-1,8.466677633E-1,1.042634565E0,1.513453635E0
8.304383167E0,5.274625598E-1,6.791108286E-1,2.721656692E-1,9.019326034E-1
8.314353167E0,2.547538670E-1,7.505582491E-1,-5.809425098E-1,9.827163465E-1
8.324324167E0,2.341482607E-1,4.487919277E-1,-5.453002220E-1,7.440375895E-1
8.334295167E0,-1.146814771E-1,-1.739441407E-1,-2.415426314E-2,2.097423031E-1
8.344265167E0,-7.853419097E-2,-3.989578629E-1,-8.070385516E-2,4.145456642E-1
8.354236167E0,-3.432960974E-1,-1.487847412E-1,2.521272612E-1,4.511732101E-1
8.364207167E0,-5.304145997E-1,-5.279135263E-1,3.996875954E-1,8.483999721E-1
8.374177167E0,-5.773967582E-1,-6.584885761E-1,-2.046040159E-1,8.993647895E-1
8.384148167E0,-4.500309892E-1,-1.095936613E0,6.048453426E-1,1.330204059E0
8.394118167E0,-6.637852764E-1,-1.223911698E0,1.463100826E0,2.019711555E0
8.404089167E0,-5.106996158E-1,-6.300819254E-1,1.077763467E0,1.348848183E0
8.414060167E0,-5.983421059E-1,-7.246714559E-1,3.366300523E-1,9.982393435E-1
8.424030167E0,-3.498627399E-1,-5.994390070E-1,1.397472847E-1,7.079974318E-1
8.434001167E0,-3.628409639E-1,-9.060658264E-1,4.897195137E-1,1.091986286E0
8.443971167E0,-5.961430047E-1,-5.524490279E-1,8.633279425E-1,1.185715626E0
8.453942167E0,-3.945093377E-1,-2.044552043E-1,-3.305255592E-1,5.537930059E-1
8.463913167E0,-5.487942623E-1,4.528504801E-1,-1.104710360E0,1.314014338E0
8.473883167E0,-2.591403020E-1,-2.368771380E-1,8.075764954E-2,3.602586190E-1
8.483854167E0,3.200461427E-1,-2.913948226E-1,8.666696262E-1,9.687397572E-1
8.493825167E0,2.385149797E-1,-1.907566398E-2,9.172556430E-1,9.479510489E-1
8.503795167E0,2.568196517E-1,-7.894939810E-2,9.610764313E-1,9.979264741E-1
8.513766167E0,1.624893173E-1,-6.064492339E-1,9.471109414E-1,1.136310955E0
8.523736167E0,1.564514459E-1,-6.943694302E-1,1.738599408E-1,7.327026952E-1
8.533707167E0,3.459533646E-1,-3.591959193E-1,-5.933204806E-1,7.750707269E-1
8.543678167E0,6.942251502E-1,-3.548581624E-1,-6.523440295E-1,1.016575431E0
8.553648167E0,6.786459750E-1,-8.571611765E-1,-4.965297657E-1,1.200761196E0
8.563619167E0,6.531524437E-2,-9.717578325E-1,-9.537177104E-1,1.363142266E0
8.573589167E0,3.502458056E-1,-8.289021680E-1,2.316152287E-1,9.291913380E-1
8.583560167E0,1.821334403E-1,8.314185172E-2,1.122480633E0,1.140196443E0
8.593531167E0,-6.409535073E-3,2.258487046E-1,1.225293396E0,1.245950490E0
8.603501167E0,-1.916573120E-1,1.179576355E-1,3.032214010E-1,3.776105759E-1
8.613472167E0,3.062276007E-1,-5.154750368E-1,-4.130777192E-1,7.280955014E-1
8.623443167E0,5.856207574E-1,-6.951088107E-1,-8.047616458E-1,1.213988977E0
8.633413167E0,7.372401921E-1,-3.682009238E-1,-2.129889232E-1,8.511517506E-1
8.643384167E0,4.865044952E-1,-3.026995370E-1,3.584641403E-1,6.758773361E-1
8.653354167E0,7.301959784E-1,-1.956598225E-1,2.805809820E-1,8.063464642E-1
8.663325167E0,8.732951063E-1,-4.228437388E-1,4.046846259E-1,1.051290072E0
8.673296167E0,1.268837318E0,-7.648237011E-1,5.340987110E-1,1.574853919E0
8.683266167E0,1.196369047E0,-5.883263737E-2,3.913184756E-1,1.260115203E0
8.693237167E0,1.012180511E0,9.265649951E-1,2.107225424E-1,1.388321313E0
8.703207167E0,5.211218757E-1,8.286077607E-1,-1.117514008E-1,9.852142944E-1
8.713178167E0,6.061989000E-1,2.210864398E-1,-7.944097352E-1,1.023446700E0
8.723149167E0,4.432229664E-1,3.147725755E-1,-6.311525506E-1,8.329957469E-1
8.733119167E0,-4.831313827E-1,3.747848886E-1,1.837487519E-2,6.117330151E-1
8.743090167E0,-5.061246446E-1,1.270804614E0,-2.440861702E-2,1.368101715E0
8.753061167E0,-5.355065744E-1,1.271582294E0,-4.530504549E-1,1.452220209E0
8.763031167E0,-2.194067175E-1,7.033191785E-1,-7.261551869E-1,1.034455668E0
8.773002167E0,-1.499408819E-1,5.294764870E-1,-6.825524998E-1,8.767585376E-1
8.782972167E0,7.900501974E-2,6.202401844E-1,-3.058479702E-1,6.960478865E-1
8.792943167E0,1.106876096E-2,-1.864454877E-1,1.085816837E0,1.101763423E0
8.802914167E0,9.059995336E-1,-5.841415215E-1,6.861549693E-1,1.277836106E0
8.812884167E0,8.798939815E-1,-2.061368635E-1,-5.261967838E-2,9.052483945E-1
8.822855167E0,1.083766949E0,-4.847961581E-1,3.454593480E-2,1.187759040E0
8.832825167E0,8.524421080E-1,-7.775525048E-1,9.652759016E-2,1.157826853E0
8.842796167E0,7.718164594E-1,-8.768388113E-1,-2.949861825E-2,1.168510640E0
8.852767167E0,7.495531127E-1,-9.771814173E-1,2.490644896E-1,1.256481799E0
8.862737167E0,6.577514615E-1,-1.276164756E0,-2.217006898E-1,1.452716306E0
8.872708167E0,5.132970951E-2,-1.492839180E0,3.920803678E-1,1.544322042E0
8.882679167E0,-1.570823970E-1,-1.556226213E0,1.032344635E0,1.874099877E0
8.892649167E0,-5.803408313E-1,-6.670477304E-1,9.979308468E-1,1.333271964E0
8.902620167E0,-5.599483743E-1,-5.998570830E-2,1.009890157E-1,5.721356906E-1
8.912590167E0,-7.046645498E-1,1.015000623E-1,5.292782664E-2,7.139017756E-1
8.922561167E0,-3.432088643E-1,-4.663908774E-1,-7.400762379E-2,5.837721331E-1
8.932532167E0,-3.237479053E-1,1.432971293E-1,-7.199968994E-2,3.612903664E-1
8.942502167E0,-7.780173585E-2,6.200235450E-1,1.647716135E-1,6.462445289E-1
8.952473167E0,1.345101711E-1,6.354523006E-1,7.309329468E-1,9.778320844E-1
8.962443167E0,2.585618844E-1,-2.214194387E-1,8.723022491E-1,9.363717369E-1
8.972414167E0,3.446335018E-1,-2.550467759E-1,-2.829420877E-1,5.136899196E-1
8.982385167E0,6.220716785E-1,6.464096904E-4,-8.669304121E-1,1.067024803E0
8.992355167E0,6.703889025E-1,2.445320204E-1,-7.713576722E-1,1.050813898E0
9.002326167E0,7.703064890E-1,-2.367715958E-1,-7.380466694E-1,1.092769766E0
9.012297167E0,1.252780425E0,-4.062148422E-1,-4.759686166E-1,1.400362602E0
9.022267167E0,9.696715459E-1,-4.783814701E-1,6.757861018E-2,1.083364485E0
9.032238167E0,1.020234832E0,-3.345487359E-1,7.852769691E-1,1.330211219E0
9.042208167E0,5.883210747E-1,-4.578226599E-1,1.266612745E0,1.469704433E0
9.052179167E0,4.030600135E-1,-4.837267023E-1,9.741823804E-1,1.159948364E0
9.062150167E0,1.456215345E-1,-1.704641703E-1,5.450482070E-1,5.893566091E-1
9.072120167E0,5.796943302E-2,3.569944426E-1,4.338008362E-1,5.647908044E-1
9.082091167E0,-5.177854727E-2,2.706842771E-1,-1.426229453E-1,3.103100069E-1
9.092062167E0,-6.004009471E-1,-2.140262192E-1,-9.743355775E-1,1.164310241E0
9.102032167E0,-1.096357174E0,-3.898566717E-1,-9.307761598E-1,1.490077695E0
9.112002792E0,-1.008812515E0,1.290986279E-1,-6.491029179E-1,1.206525484E0
9.121972792E0,-1.018328274E0,-1.232636914E-1,-8.471954745E-1,1.330385877E0
9.131943792E0,-7.151243415E-1,2.321520030E-1,-4.870485055E-1,8.958312470E-1
9.141914792E0,-4.906300713E-1,1.297622868E-1,9.169720531E-2,5.157174570E-1
9.151884792E0,-3.320311441E-1,1.723463890E-1,6.782372546E-1,7.745668028E-1
9.161855792E0,1.563364385E-1,6.817490923E-1,2.463467038E-1,7.415589021E-1
9.171825792E0,1.238837886E-1,1.074623804E0,-5.029728127E-1,1.192956480E0
9.181796792E0,-2.904265602E-1,7.163660708E-1,-8.862367487E-1,1.175986186E0
9.191767792E0,-2.684135109E-1,4.543423972E-1,-6.897890139E-1,8.684939322E-1
9.201737792E0,-2.623196341E-1,6.551001146E-1,-8.996724808E-1,1.143406456E0
9.211708792E0,-5.353875835E-1,6.330903178E-1,-8.757170230E-1,1.205953365E0
9.221678792E0,2.162367957E-2,2.898318619E-2,2.116779774E-1,2.147444405E-1
9.231649792E0,4.870591310E-2,-1.298403472E-1,8.366248780E-1,8.480400747E-1
9.241620792E0,-3.062585910E-1,-2.698735607E-1,1.057941990E0,1.133960898E0
9.251590792E0,-1.753456634E-1,-2.976206455E-1,1.411529553E0,1.453182655E0
9.261561792E0,-5.617696724E-1,-2.142522141E-1,1.246596556E0,1.384013060E0
9.271532792E0,-7.622262948E-1,-1.540931359E-1,4.858661985E-1,9.169512429E-1
9.281502792E0,-8.876651504E-1,-5.306506079E-1,2.997048855E-1,1.076736971E0
9.291473792E0,-6.811375467E-1,-5.998915815E-1,3.871558428E-2,9.084696822E-1
9.301443792E0,-8.812278776E-1,-6.178910655E-1,-1.272833598E-1,1.083767962E0
9.311414792E0,-7.810867082E-1,-9.921564290E-1,2.988225406E-1,1.297599991E0
9.321385792E0,-1.008032935E0,-5.238511732E-1,4.006102860E-1,1.204590823E0
9.331355792E0,-5.158422419E-1,-6.082262027E-1,4.844938570E-1,9.331487715E-1
9.341326792E0,-7.420353475E-1,-3.782549188E-1,-6.537187099E-3,8.329081434E-1
9.351296792E0,-2.742675970E-1,-3.382713658E-1,-4.380745661E-1,6.177050730E-1
9.361267792E0,-2.627126767E-1,-3.414393872E-1,-4.791079867E-1,6.443161247E-1
9.371238792E0,3.335908889E-1,-6.120166603E-1,7.439997196E-2,7.009868968E-1
9.381208792E0,1.763030719E-1,-8.169235620E-1,-1.758982801E-1,8.540416174E-1
9.391179792E0,4.898358367E-1,-1.021945361E0,-1.377019286E-1,1.141609955E0
9.401150792E0,6.907387479E-1,-1.224297322E0,-2.609027624E-3,1.405713612E0
9.411120792E0,2.062211365E-1,-1.112525456E0,5.293630511E-1,1.249185850E0
9.421091792E0,-5.160655690E-2,-8.843586230E-1,1.032203717E0,1.360219807E0
9.431061792E0,-3.010401154E-1,-3.764995846E-1,1.044356570E0,1.150242467E0
9.441032792E0,-8.479939849E-1,-2.727381116E-1,8.349847341E-1,1.220933816E0
9.451003792E0,-5.649735811E-1,7.449443373E-1,5.497669101E-1,1.084610930E0
9.460973792E0,-6.367885356E-1,6.603778115E-1,3.735920566E-1,9.905400132E-1
9.470944792E0,-1.655419695E0,-3.604121402E-1,-5.027611434E-1,1.767223824E0
9.480914792E0,-3.277602647E-1,-6.590461081E-1,-6.128542739E-1,9.577885596E-1
9.490885792E0,1.219389681E0,-9.868012565E-1,-1.387819678E0,2.094452524E0
9.500856792E0,1.672008977E0,-1.008099155E0,-6.339007419E-1,2.052731857E0
9.510826792E0,1.205116628E0,-1.027276853E-1,5.334204340E-1,1.321891230E0
9.520797792E0,1.028785800E0,-1.096680379E-1,1.104312165E0,1.513252344E0
9.530768792E0,1.363683541E0,-2.783964622E-1,8.975247985E-1,1.656106324E0
9.540738792E0,2.228759801E0,-4.510688335E-2,2.876245379E-2,2.229401750E0
9.550709792E0,2.015322397E0,-3.192436489E-1,-5.204179806E-1,2.105772007E0
9.560679792E0,1.485767118E0,-7.154126823E-2,-9.025750387E-1,1.739903383E0
9.570650792E0,9.189156675E-1,3.561194068E-1,-9.062786651E-1,1.338868199E0
9.580621792E0,7.423143328E-1,3.855835265E-1,-1.012905566E0,1.313652507E0
9.590591792E0,5.972642448E-1,5.627243400E-1,-4.392428398E-1,9.307618026E-1
9.600562792E0,5.633723576E-1,4.671469223E-1,4.168988746E-1,8.422703438E-1
9.610532792E0,-3.358775522E-1,6.873878548E-1,8.830804217E-1,1.168394978E0
9.620503792E0,-2.732672846E-1,8.818291175E-1,1.026815507E0,1.380814139E0
9.630474792E0,-7.251676653E-1,1.453118751E0,1.244936532E-1,1.628778965E0
9.640444792E0,-6.295027587E-1,1.813202570E0,-1.084203005E0,2.204421339E0
9.650415792E0,-9.241191047E-1,6.265680411E-1,-6.310911548E-1,1.282520829E0
9.660385792E0,-5.132613906E-1,1.010843253E-1,3.678231937E-1,6.394913586E-1
9.670356792E0,-5.011172719E-1,6.703978926E-2,5.772675347E-1,7.673660536E-1
9.680327792E0,8.384751015E-2,8.248594031E-1,7.592667997E-2,8.325793058E-1
9.690297792E0,-1.981504623E-1,2.604227060E-1,3.821599817E-1,5.031201081E-1
9.700268792E0,-2.100905132E-1,-3.952890274E-1,-1.576076049E-1,4.745857099E-1
9.710239792E0,-7.227516688E-1,-1.664974192E-1,-1.073881500E0,1.305110280E0
9.720209792E0,-6.101985417E-1,-8.422291419E-1,-9.142677158E-1,1.384766278E0
9.730180792E0,-6.639552111E-1,-9.102512634E-1,7.699175030E-1,1.364612343E0
9.740150792E0,-5.402631381E-1,-1.295226679E0,1.493177733E0,2.049164745E0
9.750121792E0,-7.366441416E-1,-6.185269502E-1,7.415900820E-1,1.214568248E0
9.760092792E0,-3.907127772E-1,-5.440103263E-2,-2.111973363E-1,4.474597875E-1
9.770062792E0,-5.267742329E-1,-3.888483194E-1,1.989807487E-2,6.550496479E-1
9.780033792E0,-7.810733327E-1,-1.641918913E0,-7.064839840E-2,1.819605579E0
9.790003792E0,-7.209497762E-1,-1.175071368E0,4.043507499E-1,1.436683970E0
9.799974792E0,-3.423198317E-1,-4.177019897E-1,4.425465167E-1,6.982157538E-1
9.809945792E0,-4.243275794E-1,6.995316446E-3,1.484923804E-1,4.496140747E-1
9.819915792E0,-3.220415051E-1,-9.839820215E-1,4.120065093E-1,1.114307280E0
9.829886792E0,-1.224372148E-1,-1.389470347E0,5.156296957E-1,1.487108839E0
9.839856792E0,-1.930984314E-1,-4.796362826E-1,3.909764135E-1,6.482287588E-1
9.849827792E0,3.820818072E-2,3.433055261E-1,4.821497083E-2,3.487738991E-1
9.859798792E0,1.236065301E-1,-2.469279170E-3,-7.039854687E-1,7.147588487E-1
9.869768792E0,4.460692448E-1,-3.887544715E-1,-2.114820957E-2,5.920769013E-1
9.879739792E0,2.526304506E-1,-3.060166624E-1,5.409580797E-1,6.708978955E-1
9.889709792E0,6.035342507E-1,-1.289778829E-2,3.468182409E-1,6.962060305E-1
9.899680792E0,3.691679071E-1,-6.407370141E-1,2.486908525E-1,7.801769062E-1
9.909651792E0,7.187732964E-1,-6.794283324E-1,5.324065268E-2,9.905011245E-1
9.919621792E0,5.885534649E-1,-2.690739539E-1,-4.248487490E-1,7.741398022E-1
9.929592792E0,4.518088352E-1,8.176842847E-1,-4.863170189E-1,1.053206084E0
9.939563792E0,3.330879553E-1,8.780123475E-1,3.950261950E-2,9.399009125E-1
9.949533792E0,2.100533834E-1,1.058419123E-1,2.279057550E-1,3.275148355E-1
9.959504792E0,3.346768996E-1,-9.019982108E-1,1.171951586E-1,9.691976603E-1
9.969474792E0,6.192896464E-1,-4.757774127E-1,2.824491674E-1,8.304585147E-1
9.979445792E0,4.122584147E-1,5.741872215E-1,3.176850736E-2,7.075713419E-1
9.989416792E0,3.745007139E-1,9.752986139E-1,-2.573488247E-1,1.075958451E0
9.999386792E0,2.709840931E-2,9.724618372E-1,-7.141011518E-1,1.206796090E0
1.000935779E1,7.579644238E-2,7.483307523E-1,-1.168317541E0,1.389499872E0
1.001932779E1,-2.096660784E-2,3.498880291E-1,-4.003974473E-1,5.321459832E-1
1.002929879E1,6.688151244E-1,4.033388892E-1,1.477382065E0,1.671123483E0
1.003926979E1,8.380276982E-1,5.613359186E-1,2.107530649E0,2.336466108E0
1.004923979E1,8.581800356E-2,1.426432351E0,3.284457046E-1,1.466270972E0
1.005921079E1,8.417523745E-3,6.565040311E-1,-9.233116043E-1,1.132948682E0
1.006918079E1,-4.173098974E-1,-4.389735755E-1,-1.613153243E0,1.723110193E0
1.007915179E1,-3.034173375E-1,-9.721805862E-1,-1.282197914E0,1.637445774E0
1.008912279E1,-2.854029980E-1,-9.089844641E-1,-5.563426888E-1,1.103279119E0
1.009909279E1,4.969206886E-1,-3.315432671E-1,8.549699324E-1,1.042988348E0
1.010906367E1,4.223287818E-1,-5.366615456E-1,7.930438256E-1,1.046558992E0
1.011903467E1,9.028541701E-1,-7.276509047E-1,1.034181245E0,1.553754272E0
1.012900467E1,4.790954517E-1,-3.212755564E-1,7.381033874E-1,9.367748104E-1
1.013897567E1,7.314381462E-1,2.174494717E-1,4.270689368E-2,7.642708376E-1
1.014894567E1,5.027211997E-1,7.853219926E-2,-2.041754150E-1,5.482549690E-1
1.015891667E1,4.610882568E-1,-1.664252061E-1,-2.437938094E-2,4.908096209E-1
1.016888767E1,-5.074411087E-2,-3.716762164E-1,1.994724995E-1,4.248616865E-1
1.017885767E1,-3.059060404E-2,-1.439944097E-1,1.517159504E-1,2.113951388E-1
1.018882867E1,2.243289767E-2,4.525511026E-2,1.569351751E-1,1.648633042E-1
1.019879867E1,-1.369254001E-1,-4.861667454E-3,2.100109363E-1,2.507524563E-1
1.020876967E1,-1.215966136E-1,1.146697462E-1,-2.371741766E-1,2.901490603E-1
1.021874067E1,1.880981667E-2,1.655311668E-1,-2.017494053E-1,2.616432665E-1
1.022871067E1,-1.852913205E-2,4.755862087E-2,-3.794065279E-1,3.828243260E-1
1.023868167E1,-6.097039768E-2,-8.352665699E-1,4.170397925E-1,9.355799381E-1
1.024865167E1,4.864755515E-3,-1.696276091E0,6.253275543E-1,1.807874662E0
1.025862267E1,3.277248525E-1,-2.292072575E0,3.782938027E-1,2.346083219E0
1.026859367E1,3.017851969E-1,-2.602292801E0,-5.633149087E-2,2.620338788E0
1.027856367E1,1.511145277E-2,-1.917127473E0,-1.582496291E-1,1.923707111E0
1.028853467E1,-5.790551747E-1,-7.812298188E-1,1.398385012E-1,9.824356119E-1
1.029850467E1,2.129314743E-1,2.593798551E-1,4.884851664E-1,5.926512295E-1
1.030847567E1,-1.327775352E0,1.143718305E-1,5.949109232E-1,1.459447603E0
1.031844667E1,-9.148701252E-1,-5.462036169E-1,1.008454081E0,1.467073744E0
1.032841667E1,-6.935971592E-1,-1.574052035E0,6.539946985E-1,1.840224414E0
1.033838767E1,-1.496905297E-1,-1.648051180E0,8.510365105E-1,1.860844725E0
1.034835867E1,-7.031648120E-1,-8.076919779E-1,8.659615284E-1,1.377206031E0
1.035832867E1,-2.214753527E-1,-1.487476113E-1,9.182584405E-1,9.562299657E-1
1.036829967E1,-3.451722497E-1,4.906477591E-1,9.521003705E-1,1.125332938E0
1.037826967E1,4.512418380E-1,6.511473969E-1,2.988044143E-1,8.466972344E-1
1.038824067E1,7.817991914E-1,7.832377526E-1,-8.414915156E-1,1.390244340E0
1.039821167E1,1.394076784E0,4.302965999E-1,-1.821141627E0,2.333487105E0
1.040818167E1,1.451719220E0,1.445604202E-1,-1.953891549E0,2.438458241E0
1.041815267E1,1.440689617E0,3.784782824E-1,-8.929160231E-1,1.736701301E0
1.042812267E1,3.617826910E-1,1.802132329E-1,8.172758567E-1,9.117583840E-1
1.043809367E1,9.930587640E-2,1.269984542E0,7.542229915E-1,1.480396810E0
1.044806467E1,-1.539974426E-1,1.955573208E0,-8.846077144E-2,1.963620914E0
1.045803467E1,2.869425699E-1,2.096444913E0,-1.513803202E0,2.601733546E0
1.046800567E1,3.616702417E-1,1.544270411E0,-1.056401834E0,1.905665580E0
1.047797567E1,2.705114371E-1,6.894054365E-1,-6.516569817E-1,9.864649590E-1
1.048794667E1,8.507022690E-3,8.754910281E-1,1.078992552E-1,8.821559721E-1
1.049791767E1,4.843965009E-1,1.274340133E0,-4.233606327E-1,1.427521268E0
1.050788767E1,9.318965228E-2,1.221962821E-1,-4.595227379E-1,4.845383259E-1
1.051785867E1,2.828242114E-1,-4.491986015E-1,4.880244058E-1,7.210663901E-1
1.052782867E1,1.374865866E-1,-4.064759204E-1,6.408694535E-1,7.712579930E-1
1.053779967E1,-9.427681413E-2,-3.885495266E-1,8.640576750E-1,9.520790503E-1
1.054777067E1,-1.369287623E-1,-3.852601755E-1,2.019195592E-1,4.560114002E-1
1.055774067E1,-3.972517915E-2,-1.384361050E0,8.922921252E-1,1.647488648E0
1.056771167E1,2.804433166E-1,-1.220458918E0,7.251015186E-1,1.447045485E0
1.057768167E1,5.762051687E-1,-8.735696331E-1,4.134209508E-1,1.125190287E0
1.058765267E1,4.581416986E-1,-1.433586127E0,2.549181372E-1,1.526448904E0
1.059762367E1,8.838147589E-1,-1.094556963E0,-4.032391942E-1,1.463483966E0
1.060759367E1,6.674030949E-1,-1.686017151E0,4.490340024E-1,1.868077156E0
1.061756467E1,4.318900392E-1,-6.617405051E-1,4.425102639E-1,9.056736916E-1
1.062753567E1,4.675042238E-1,-2.624949592E-1,9.581247568E-2,5.446501936E-1
1.063750567E1,6.234215813E-1,-4.052155530E-1,1.584361553E-1,7.602342585E-1
1.064747667E1,4.031566022E-1,-1.530249081E0,5.863763273E-2,1.583551662E0
1.065744667E1,4.529594941E-1,-1.527064687E0,-3.164577430E-1,1.623959471E0
1.066741767E1,3.158319448E-1,-7.167458475E-1,-7.126352549E-2,7.864813521E-1
1.067738867E1,6.437550545E-1,-4.582728955E-1,1.443759406E-1,8.032926174E-1
1.068735867E1,2.987846068E-1,-9.601522788E-1,-3.584635556E-2,1.006205546E0
1.069732967E1,3.837712551E-1,-1.701502333E0,5.261125839E-1,1.821863062E0
1.070729967E1,3.837251352E-1,-1.171070411E0,7.490926445E-1,1.442147938E0
1.071727067E1,2.667480777E-1,2.281060222E-1,3.577110189E-1,5.011427615E-1
1.072724167E1,3.956748705E-1,1.825693685E-1,9.649724311E-1,1.058802139E0
1.073721167E1,1.936529119E-1,1.541407907E-1,9.296552485E-1,9.620393520E-1
1.074718267E1,-1.041413776E-1,-4.473616987E-2,1.498226219E-1,1.878658283E-1
1.075715267E1,4.699203298E-1,6.212877131E-1,1.731541818E-1,7.980011964E-1
1.076712367E1,4.698330053E-2,2.895485643E-1,4.524142778E-1,5.391887242E-1
1.077709467E1,-1.950539779E-3,3.063718808E-1,-3.564602995E-1,4.700334872E-1
1.078706467E1,-6.918570827E-2,6.593916786E-1,-1.162357475E0,1.338155053E0
1.079703567E1,-6.281193805E-1,3.563147038E-2,-8.365026712E-1,1.046680599E0
1.080700667E1,-9.186541508E-1,-9.076282024E-2,-2.317643327E-1,9.517762574E-1
1.081697667E1,-7.776361200E-1,-1.948599234E-1,4.396696866E-1,9.143291301E-1
1.082694767E1,-5.198091027E-1,7.761827946E-1,-1.570164514E-1,9.472673328E-1
1.083691767E1,-4.419114359E-1,1.360217897E0,-5.733674419E-1,1.540853227E0
1.084688867E1,-1.791560929E-1,6.147692370E-1,-9.042660534E-1,1.108032137E0
1.085685967E1,-4.135680813E-1,4.733242133E-1,-5.447400588E-1,8.317548319E-1
1.086682967E1,-1.482588572E-1,4.096068120E-1,-1.600762993E-1,4.640935798E-1
1.087680067E1,-9.031305059E-2,5.114559531E-1,-2.552274549E-1,5.786922263E-1
1.088677067E1,-6.451799478E-2,5.421558818E-1,2.388523275E-1,5.959412775E-1
1.089674167E1,8.992324230E-2,-7.471776813E-2,1.170033699E-1,1.654047247E-1
1.090671267E1,-1.022552394E-1,-6.606388897E-2,-1.141312176E-1,1.668727247E-1
1.091668267E1,-4.229099220E-3,4.534752551E-1,7.500223517E-2,4.596553356E-1
1.092665367E1,-2.479531532E-1,-1.996645805E-1,2.175731403E-1,3.855966575E-1
1.093662367E1,-2.842816117E-1,-5.193029165E-1,3.933644164E-1,7.107933018E-1
1.094659467E1,-1.864339395E-1,-6.151241630E-2,3.215524220E-1,3.767457382E-1
1.095656567E1,-4.648954520E-1,-1.531549501E-1,6.024959314E-1,7.762638516E-1
1.096653567E1,-4.042217639E-2,-3.025133032E-1,-1.174530208E-1,3.270221140E-1
1.097650667E1,-5.372891346E-2,-1.130127330E0,1.167998868E-1,1.137416718E0
1.098647667E1,-6.891477205E-1,-1.082045968E0,5.462731987E-1,1.394332265E0
1.099644767E1,-1.376208168E-1,-9.272108200E-1,4.500818235E-1,1.039823563E0
1.100641867E1,-8.954002858E-1,4.091121376E-2,4.528165662E-1,1.004220216E0
1.101638867E1,-3.155217865E-1,-2.781225201E-1,3.429181480E-1,5.426776117E-1
1.102635967E1,-4.293868462E-1,-4.533474934E-1,-5.680359507E-1,8.441337896E-1
1.103632967E1,-1.909897610E-1,-8.076756057E-1,6.720146477E-2,8.326662055E-1
1.104630067E1,3.428916894E-1,-9.844421974E-1,2.488329399E-1,1.071736433E0
1.105627167E1,4.774667098E-1,-7.599839607E-1,2.554549116E-1,9.331705585E-1
1.106624167E1,3.022659294E-1,-6.840985036E-1,1.047797656E-1,7.552047762E-1
1.107621267E1,1.088662969E0,-7.527369216E-1,5.180276388E-1,1.421320713E0
1.108618367E1,7.537707093E-1,-8.138227835E-1,7.125077856E-1,1.318387329E0
1.109615367E1,4.528798715E-2,-6.556851286E-1,6.349316061E-1,9.138446990E-1
1.110612467E1,3.621926539E-1,-5.239125690E-1,8.865589303E-1,1.091629349E0
1.111609508E1,-1.779947034E-2,-5.991054234E-1,2.024808919E-1,6.326473276E-1
1.112606608E1,-4.574491690E-1,-5.939984652E-1,-8.111666858E-1,1.104574720E0
1.113603708E1,5.575411487E-2,-1.128005083E0,-5.915516979E-1,1.274926429E0
1.114600708E1,-8.183155648E-1,-1.140934446E0,2.921374190E-1,1.434125533E0
1.115597808E1,-3.766830776E-1,-8.300578701E-1,1.125468560E0,1.448297514E0
1.116594808E1,-1.170884542E0,-2.733704880E-1,1.389152259E0,1.837238698E0
1.117591908E1,-8.521903123E-1,-1.048785836E-1,1.637236755E0,1.848721731E0
1.118589008E1,-9.225592138E-1,5.706794769E-1,6.960654151E-1,1.288913353E0
1.119586008E1,-6.309859780E-1,9.304729816E-1,-1.675443631E-1,1.136659310E0
1.120583108E1,-2.709494483E-1,-3.611240387E-2,-8.706936800E-1,9.125925672E-1
1.121580108E1,-2.731653786E-1,-8.326449707E-1,-4.081298053E-1,9.666886310E-1
1.122577208E1,-2.843287183E-1,-9.792329130E-1,-1.216682786E-1,1.026909484E0
1.123574308E1,-2.541649610E-1,3.042999199E-1,2.698887634E-1,4.796229908E-1
1.124571308E1,-4.740897235E-1,6.860193139E-1,3.258594811E-1,8.953032818E-1
1.125568408E1,-7.624350404E-1,3.306863576E-1,6.408723772E-2,8.335273433E-1
1.126565408E1,-6.246402872E-1,-4.175189719E-1,-4.418197078E-1,8.716089917E-1
1.127562508E1,-1.031406595E0,2.579563504E-1,-1.576485354E0,1.901485502E0
1.128559608E1,-1.400210221E0,6.458094737E-1,-1.430508446E0,2.103333771E0
1.129556608E1,-1.878072312E0,5.127721614E-1,3.182399744E-1,1.972654957E0
1.130553708E1,-1.433584373E0,5.366866887E-1,1.523494962E0,2.159683693E0
1.131550808E1,-1.812462898E0,9.078068349E-1,2.277520902E0,3.048973018E0
1.132547808E1,-1.688449739E0,1.305127770E0,1.142034307E0,2.420426280E0
1.133544908E1,-1.703033426E0,1.885123323E0,-7.034697443E-1,2.636073306E0
1.134541908E1,-1.355026446E0,1.377161081E0,-1.983193701E0,2.768704854E0
1.135539008E1,-1.191058825E0,4.546020135E-1,-1.504591498E0,1.972074971E0
1.136536108E1,-3.876899859E-1,-2.415911633E-1,-1.509030704E0,1.576655791E0
1.137533108E1,-3.642638108E-2,-4.072331348E-1,-1.052267852E0,1.128908030E0
1.138530208E1,5.159338240E-1,-1.021761759E0,-5.873703539E-1,1.286541385E0
1.139527208E1,5.996891582E-1,-1.527195957E0,2.483137071E-2,1.640905596E0
1.140524308E1,1.334957633E0,-1.403141722E0,4.690589619E-1,1.992720473E0
1.141521408E1,1.302605573E0,-1.365626279E0,1.689615528E0,2.533084492E0
1.142518408E1,1.078512422E0,-8.644424218E-1,1.986368154E0,2.419939708E0
1.143515508E1,8.471863382E-1,-9.380889800E-1,2.038727047E0,2.398779606E0
1.144512508E1,1.130972691E0,-1.210420710E0,1.726103323E0,2.392415141E0
1.145509608E1,5.746816767E-1,-4.336052468E-1,7.681767869E-1,1.052790632E0
1.146506708E1,7.471089765E-1,-3.147667283E-1,3.928995627E-1,9.008995407E-1
1.147503708E1,2.001638962E-3,-2.497015437E-1,2.648069483E-1,3.639747071E-1
1.148500808E1,-4.752240925E-2,-2.784049407E-1,-4.679526687E-1,5.465778906E-1
1.149497808E1,2.780405678E-1,1.918032914E-1,-4.487357944E-1,5.616572559E-1
1.150494908E1,3.634459680E-1,4.304106206E-2,4.148353922E-1,5.532033147E-1
1.151492008E1,9.574607324E-1,3.922499371E-1,8.475235033E-1,1.337492862E0
1.152489008E1,1.015810828E0,-1.798311174E-2,1.370371002E-1,1.025170326E0
1.153486108E1,1.306115364E0,-1.027720949E0,-5.621285087E-1,1.754461785E0
1.154483108E1,1.111874954E0,-2.148006830E0,-6.456343496E-1,2.503406273E0
1.155480208E1,1.290794490E0,-1.481189772E0,-1.444061122E0,2.438316239E0
1.156477308E1,1.122689598E0,-5.221610355E-1,-8.435754633E-1,1.498233508E0
1.157474308E1,1.884476328E0,-4.672276139E-2,8.134523624E-1,2.053080319E0
1.158471408E1,1.375930096E0,-9.946260005E-2,1.773765732E0,2.247069494E0
1.159468508E1,1.696299188E0,7.544296905E-1,1.262743642E0,2.245243105E0
1.160465508E1,1.060313475E0,9.297987977E-1,6.546285367E-1,1.554776187E0
1.161462608E1,1.199638664E0,1.068350034E0,-6.639682943E-1,1.738205573E0
1.162459608E1,5.641637052E-1,4.758633667E-1,-1.498710369E0,1.670586544E0
1.163456708E1,1.453596798E-1,7.280660570E-2,-1.840879489E0,1.848044245E0
1.164453808E1,2.946390040E-2,8.084477305E-2,-8.195790750E-1,8.240836480E-1
1.165450808E1,-1.878658678E-1,-6.038975090E-1,1.536765218E-1,6.508473392E-1
1.166447908E1,-5.328022371E-1,-7.426764947E-1,5.855518699E-2,9.159013646E-1
1.167444908E1,-7.649030039E-1,-2.255952278E-1,-3.927522129E-1,8.889455062E-1
1.168442008E1,-1.242296952E0,-1.528257519E-2,-4.162205976E-1,1.310257555E0
1.169439108E1,-1.441244226E0,7.286653966E-2,1.265402956E0,1.919306930E0
1.170436108E1,-9.587363756E-1,-6.790049940E-2,1.732340548E0,1.981108197E0
1.171433208E1,-1.024421438E0,9.375010425E-1,7.872164905E-2,1.390879069E0
1.172430208E1,-8.014673245E-1,9.796790555E-1,-4.987066841E-1,1.360451866E0
1.173427308E1,-7.330961242E-1,5.843999684E-3,-1.321824494E0,1.511517143E0
1.174424408E1,-5.885276641E-1,-8.071552035E-1,-6.827466273E-1,1.209961690E0
1.175421408E1,-4.248841978E-1,-1.798153299E-1,1.091540676E-1,4.741041498E-1
1.176418508E1,3.329028178E-1,1.626728139E0,1.854345042E-1,1.670764699E0
1.177415508E1,-2.523450699E-1,1.591113333E0,-4.556343395E-1,1.674193037E0
1.178412608E1,-4.714579283E-1,2.812101424E-1,-1.052225752E0,1.186815384E0
1.179409708E1,-4.971931323E-1,-1.289835254E0,2.405556214E-1,1.403119026E0
1.180406708E1,-7.531445456E-1,-1.665401916E0,1.211423215E0,2.192791931E0
1.181403808E1,-1.368573897E-1,-1.042507972E0,1.556012498E0,1.877958389E0
1.182400808E1,-2.837608257E-1,-3.812603876E-1,1.632420403E0,1.700198830E0
1.183397908E1,-4.296503729E-1,8.644465148E-2,2.043908849E0,2.090367313E0
1.184395008E1,-5.532951565E-1,5.217605013E-1,2.008554245E0,2.147710340E0
1.185392008E1,-3.053998725E-1,6.214742392E-1,6.235377216E-1,9.318254142E-1
1.186389108E1,-3.583168636E-1,1.517162427E0,-9.488423020E-1,1.824958772E0
1.187386108E1,-5.977815041E-1,2.218114945E-1,-6.998561651E-1,9.467532506E-1
1.188383208E1,-7.145863245E-1,-5.016992891E-1,-7.499217796E-1,1.150964147E0
1.189380308E1,-6.579789547E-3,-4.776125613E-1,-9.223854053E-1,1.038726089E0
1.190377308E1,-6.547660011E-2,-3.202169180E-2,6.710323155E-2,9.907278936E-2
1.191374408E1,9.735105171E-2,-8.962980527E-1,1.478267334E0,1.731502739E0
1.192371508E1,2.134115672E-1,-8.275853750E-1,2.315187496E-1,8.854620158E-1
1.193368508E1,5.688229859E-1,-7.835532099E-1,-6.935072583E-1,1.190994349E0
1.194365608E1,6.259431200E-1,-4.165562278E-1,-1.107139294E0,1.338312854E0
1.195362608E1,2.937685912E-2,-6.577950963E-1,-1.055252856E0,1.243831170E0
1.196359708E1,-4.920388117E-1,-1.473747728E0,-6.633233464E-1,1.689388179E0
1.197356808E1,-6.762157991E-1,-2.520290864E0,-2.249090570E-1,2.619106323E0
1.198353808E1,-3.564624922E-1,-2.090030517E0,1.110744687E0,2.393542736E0
1.199350908E1,3.836207989E-1,-4.718276185E-1,2.325208454E0,2.403410197E0
1.200347908E1,-3.681462158E-1,8.082357690E-1,2.700021994E0,2.842339787E0
1.201345008E1,2.095703120E-1,9.689999932E-1,2.176581588E0,2.391733286E0
1.202342108E1,2.493821579E-1,-4.737823427E-2,5.404359233E-1,5.970821928E-1
1.203339108E1,8.340981500E-1,-5.802861598E-1,-8.541326112E-1,1.327401322E0
1.204336208E1,1.047971684E0,-8.569720191E-1,-1.237478408E0,1.834120635E0
1.205333208E1,7.868224613E-1,-6.902374953E-1,-5.058660150E-1,1.162504972E0
1.206330308E1,2.899963331E-1,-2.377530509E-1,-5.385928810E-1,6.562824680E-1
1.207327408E1,5.844021611E-1,-6.127025387E-1,-3.428462273E-1,9.134953872E-1
1.208324408E1,7.347391187E-1,-7.841215593E-1,-7.087825245E-1,1.287268760E0
1.209321508E1,9.044223203E-1,-4.592417791E-1,-2.661155552E-1,1.048665931E0
1.210318508E1,9.620922388E-1,-3.501318580E-1,1.071531504E-1,1.029415170E0
1.211315604E1,8.744160906E-1,4.642484576E-2,6.584724963E-2,8.781199383E-1
1.212312704E1,8.114315647E-1,-1.156783909E-2,6.344538885E-1,1.030090644E0
1.213309704E1,1.010310718E0,6.593525022E-1,9.393657196E-1,1.529013219E0
1.214306804E1,6.588467181E-1,6.342170763E-1,-4.445111811E-1,1.016808973E0
1.215303804E1,5.596006112E-1,7.411711290E-1,-1.106856873E0,1.444859725E0
1.216300904E1,5.059600089E-1,7.051046258E-1,-1.765822290E0,1.967561034E0
1.217298004E1,-2.576686674E-1,5.299544969E-1,-7.519016469E-1,9.553015218E-1
1.218295004E1,5.399413951E-1,7.380478388E-1,1.059293282E-1,9.205826117E-1
1.219292104E1,4.580102824E-1,2.131888687E0,8.392187029E-1,2.336452616E0
1.220289104E1,4.675184033E-1,1.839200168E0,6.496613270E-1,2.005814188E0
1.221286204E1,5.182423778E-1,4.648556909E-1,7.234911954E-1,1.004044563E0
1.222283304E1,6.308544888E-1,-1.049516737E-1,-6.595565701E-1,9.186985952E-1
1.223280304E1,6.465250998E-1,1.788856226E-1,-9.826678598E-1,1.189802880E0
1.224277404E1,9.608738253E-1,6.175644985E-1,-9.535031176E-1,1.487895364E0
1.225274404E1,6.935378100E-1,-1.145785296E-1,5.296478105E-1,8.801418843E-1
1.226271504E1,9.200665458E-1,-1.112356472E0,2.828608114E-1,1.471009724E0
1.227268604E1,7.507742306E-1,-1.115674474E0,-3.982480109E-2,1.345354040E0
1.228265604E1,1.752588688E-1,-1.046742526E0,1.072794503E0,1.509063826E0
1.229262704E1,-1.546328704E-1,-8.029481319E-1,1.634696140E0,1.827804283E0
1.230259704E1,-4.329834685E-1,-6.556824973E-1,5.999500537E-1,9.886021891E-1
1.231256804E1,-4.665726527E-1,-2.335863250E-1,-6.132600707E-1,8.051959549E-1
1.232253904E1,-2.592682646E-1,-5.812708309E-1,-9.046391058E-1,1.106104753E0
1.233250904E1,-6.855538756E-2,-5.497040525E-1,-2.125462890E-1,5.933382774E-1
1.234248004E1,-7.881918792E-3,-1.040285446E0,-3.804256976E-2,1.041010649E0
1.235245104E1,4.884985785E-1,-2.984363320E-1,-7.220387471E-1,9.214309837E-1
1.236242104E1,2.140905386E-1,-7.354388112E-1,7.692129135E-2,7.698193871E-1
1.237239204E1,-1.281439968E-1,-5.875682822E-1,1.167562081E0,1.313338716E0
1.238236204E1,-1.419667963E-1,-2.539518848E-1,9.796746701E-1,1.021963106E0
1.239233304E1,-3.399022273E-1,3.702161667E-1,1.184762251E0,1.286955759E0
1.240230404E1,-6.620636369E-1,5.145111233E-2,1.372972428E0,1.525132376E0
1.241227404E1,4.912761886E-1,-9.144203281E-1,7.864440733E-1,1.302309913E0
1.242224504E1,4.006802333E-1,-1.287999813E0,-1.971400452E-1,1.363213984E0
1.243221504E1,1.361575328E-1,-1.771267802E-1,-1.491545776E0,1.508184860E0
1.244218604E1,7.062558695E-1,-1.357401878E-1,-5.853074563E-1,9.272580925E-1
1.245215704E1,6.157893569E-1,-9.031793484E-1,1.586291134E-1,1.104578048E0
1.246212704E1,6.000556690E-1,-1.229667698E0,1.149287193E0,1.786899691E0
1.247209804E1,5.273410108E-1,1.686225897E-1,1.275005838E0,1.390022305E0
1.248206804E1,1.973216926E-1,9.454307440E-1,3.996946120E-1,1.045242041E0
1.249203904E1,-1.705584566E-1,-6.094599652E-1,1.134600742E0,1.299172998E0
1.250201004E1,7.875534363E-1,-1.127120691E0,1.163680699E0,1.801331240E0
1.251198004E1,7.779898035E-1,5.326608807E-2,7.371029288E-1,1.073045264E0
1.252195104E1,1.715005162E-1,1.262388716E0,-5.498247975E-1,1.387568019E0
1.253192104E1,-4.178889544E-1,6.986627483E-1,-1.563881680E0,1.763090107E0
1.254189204E1,-8.134334321E-1,-8.930002230E-1,-1.281585710E0,1.761131818E0
1.255186304E1,-2.847605717E-1,-9.006203145E-1,-1.496606541E-1,9.563492278E-1
1.256183304E1,2.399396538E-1,9.230446789E-1,1.089453805E0,1.447926832E0
1.257180404E1,2.829697888E-1,2.490412177E0,6.362992698E-1,2.585943053E0
1.258177404E1,-5.814887859E-1,1.498974371E0,1.437450260E-1,1.614223034E0
1.259174504E1,-8.334197268E-1,9.286524510E-1,-7.990559328E-1,1.481713265E0
1.260171604E1,-7.417472991E-1,1.698408571E0,-1.398843434E0,2.321969785E0
1.261168604E1,-1.385483569E0,1.978494001E0,-1.727745221E0,2.969698096E0
1.262165704E1,-1.202070301E0,8.762956050E-1,-1.520937390E0,2.127467401E0
1.263162704E1,-1.138847209E0,-1.117239482E0,-6.647249240E-1,1.728310229E0
1.264159804E1,-7.320075189E-1,-4.207364023E-1,-1.427254470E0,1.658285093E0
1.265156904E1,-5.882065789E-1,-1.357249850E-1,-4.631825101E-1,7.608852007E-1
1.266153904E1,-1.119061035E0,2.821152914E-1,1.266351959E0,1.713339990E0
1.267151004E1,-7.800250731E-1,-7.719169584E-1,2.539924060E0,2.766859074E0
1.268148004E1,-1.059219607E0,-1.919531556E0,1.420105664E0,2.612134695E0
1.269145104E1,-1.236083847E0,-5.413957438E-1,4.450432777E-2,1.350182678E0
1.270142204E1,-1.700799790E0,-1.367453241E-1,1.046441102E-1,1.709493960E0
1.271139204E1,-1.801888062E0,-1.322439621E0,4.642180520E-1,2.282793363E0
1.272136304E1,-1.670077349E0,-1.862200191E0,4.690361577E-1,2.544983855E0
1.273133304E1,-9.351999439E-1,-2.345186051E0,1.587238383E0,2.982251202E0
1.274130404E1,-8.519121310E-1,-1.437050310E0,1.731199756E0,2.405809733E0
1.275127504E1,3.692959794E-2,-2.690567046E-2,1.954570996E0,1.955104981E0
1.276124504E1,-2.682050577E-1,-5.461278954E-1,1.273123035E0,1.411039295E0
1.277121604E1,4.679390373E-1,-1.080339165E0,4.413718110E-1,1.257341931E0
1.278118604E1,1.132750244E0,-1.693218290E0,6.950585246E-2,2.038367572E0
1.279115704E1,1.142968838E0,-1.493350811E0,3.338760138E-1,1.909960105E0
1.280112804E1,8.526483686E-1,-9.684790063E-1,3.814220631E-1,1.345527263E0
1.281109804E1,1.526667369E0,-1.028338122E-1,2.337775290E-1,1.547882418E0
1.282106904E1,1.477798972E0,3.162264857E-1,-9.904072344E-1,1.806874506E0
1.283103904E1,7.188515029E-1,5.961753836E-1,-1.548428074E0,1.808259404E0
1.284101004E1,6.968965968E-1,1.899003151E-1,-9.266649824E-1,1.174919140E0
1.285098104E1,5.964967612E-1,-6.740027010E-2,-1.556821167E-2,6.004944228E-1
1.286095104E1,-3.555774430E-1,9.517366737E-2,-2.842062557E-1,4.650446653E-1
1.287092204E1,-5.869150020E-1,1.508727526E0,-5.966422838E-1,1.725314459E0
1.288089204E1,-1.089493128E0,2.233598372E0,-1.346180486E0,2.826333113E0
1.289086304E1,-9.149663119E-1,1.064329489E0,-1.353722225E0,1.950006276E0
1.290083404E1,-7.288709262E-1,-8.196758464E-1,-7.560321200E-1,1.332180876E0
1.291080404E1,-4.468427218E-1,-1.798137804E0,-3.686055511E-1,1.889136849E0
1.292077504E1,-4.442215612E-1,-1.186309716E0,2.137508154E-1,1.284660636E0
1.293074504E1,3.749229560E-1,2.740589976E-1,7.679160011E-1,8.974243934E-1
1.294071604E1,6.642230867E-1,5.570613116E-1,1.117373090E0,1.414224960E0
1.295068704E1,1.967070881E0,-4.438562930E-1,1.834113091E0,2.725866301E0
1.296065704E1,2.362451710E0,-1.285690748E0,1.924540865E0,3.307270222E0
1.297062804E1,2.542124075E0,-1.549406313E0,3.901379228E-1,3.002542645E0
1.298059804E1,3.043095093E0,-4.889646381E-1,-1.071266041E0,3.262993272E0
1.299056904E1,2.538058798E0,1.875719538E-1,-6.420833355E-1,2.624727931E0
1.300054004E1,2.447755862E0,7.446224481E-2,-1.282569212E-1,2.452244527E0
1.301051004E1,1.483066728E0,-3.628109604E-1,-4.258585632E-1,1.585078619E0
1.302048104E1,1.016726429E0,6.174384910E-1,-3.594295156E-1,1.242639328E0
1.303045104E1,6.747651780E-1,8.139166313E-1,8.554692847E-1,1.359998539E0
1.304042204E1,-1.455629253E-1,1.319990222E0,-2.578739047E-2,1.328242351E0
1.305039304E1,-3.544350067E-1,1.518657853E0,-3.148731476E-1,1.590940271E0
1.306036304E1,3.313975252E-2,1.538666148E0,4.643449366E-1,1.607547193E0
1.307033404E1,4.633508734E-1,1.612524667E0,6.303052890E-1,1.792265213E0
1.308030404E1,4.659116615E-1,4.878238463E-1,1.406738344E0,1.560114916E0
1.309027504E1,5.191117491E-1,5.987236002E-1,6.340948695E-1,1.014900616E0
1.310024604E1,1.225980443E0,1.081635201E0,-1.183644848E0,2.018409741E0
1.311021604E1,8.623831786E-1,4.455794674E-1,-2.001580271E0,2.224538017E0
1.312018667E1,2.653839589E-1,-5.271615744E-1,-4.770252085E-1,7.588682498E-1
1.313015667E1,1.076366421E-1,-1.994083263E0,1.936743420E0,2.781893021E0
1.314012767E1,-5.480703405E-1,-1.020256686E0,7.473747325E-1,1.378359095E0
1.315009867E1,7.159107920E-2,3.256799716E-1,-6.323102993E-1,7.148489638E-1
1.316006867E1,2.375417106E-1,-1.184786809E0,-2.408286864E-1,1.232129986E0
1.317003967E1,3.978129780E-1,-2.270867355E0,6.641244149E-1,2.399198814E0
1.318000967E1,-1.266477492E-1,-1.598978423E0,2.966292500E-3,1.603988918E0
1.318998067E1,1.407490771E-1,-5.001000756E-1,-9.472781718E-2,5.280944496E-1
1.319995167E1,1.597122919E-1,-5.726444337E-1,-4.429634231E-1,7.413813174E-1
1.320992167E1,1.023054067E-1,-1.404581014E0,-1.446488301E0,2.018822089E0
1.321989267E1,-3.946627541E-1,-1.652619317E0,-1.399425817E0,2.201204651E0
1.322986267E1,3.082213551E-1,-1.001568984E0,-4.680462241E-1,1.147696869E0
1.323983367E1,-5.889045171E-1,-8.778202665E-1,1.926675684E0,2.197602362E0
1.324980467E1,3.951833390E-1,-3.188817063E-1,2.234455574E0,2.291429058E0
1.325977467E1,3.751099207E-1,3.513299525E-2,1.396688150E0,1.446609681E0
1.326974567E1,3.557046930E-1,-6.323208243E-2,2.153862816E0,2.183952645E0
1.327971567E1,9.698015734E-1,5.496967435E-1,2.092038451E0,2.370507642E0
1.328968667E1,-3.202947956E-1,4.285678706E-1,2.595830458E-1,5.946785127E-1
1.329965767E1,1.153038694E0,-1.012110929E0,-1.246988904E-1,1.539290933E0
1.330962767E1,8.252521167E-1,-7.973739812E-1,-2.194547743E-1,1.168335020E0
1.331959867E1,-1.062168797E0,-5.196186662E-1,-2.869801748E-1,1.216784176E0
1.332956867E1,-6.537683382E-1,2.867196813E-1,-1.221763431E0,1.415036077E0
1.333953967E1,-5.028185192E-1,2.774074057E-1,-1.806836414E-1,6.020198587E-1
1.334951067E1,4.994205561E-1,-3.198263240E-1,1.040948812E0,1.198033472E0
1.335948067E1,6.607919405E-1,-3.996919808E-1,1.146453048E0,1.382300351E0
1.336945167E1,7.362305973E-1,-3.281144598E-1,5.612742305E-3,8.060558876E-1
1.337942167E1,-3.183694171E-1,2.081456745E-1,-7.402838141E-1,8.322883112E-1
1.338939267E1,-2.656614092E-1,2.623555031E-1,-1.458877382E0,1.505898273E0
1.339936367E1,1.482716663E-1,4.465091747E-1,-1.627720411E0,1.694351991E0
1.340933367E1,-1.998072526E-1,2.043210107E-1,-3.850017285E-1,4.794750719E-1
1.341930467E1,8.232148737E-2,3.869178611E-1,5.744597018E-1,6.974856325E-1
1.342927467E1,2.360904682E-2,1.347876763E0,2.804804099E-1,1.376952583E0
1.343924567E1,-2.828478378E-1,2.260063163E0,-9.363666826E-1,2.462655267E0
1.344921667E1,5.710357002E-2,1.756177015E0,-5.259786826E-1,1.834140698E0
1.345918667E1,1.714486769E-2,1.401712663E0,-9.008746684E-2,1.404709253E0
1.346915767E1,-4.979259346E-1,1.155924953E0,-1.124815426E0,1.687987700E0
1.347912767E1,-9.189766248E-1,6.239648607E-1,-1.313782818E0,1.720428865E0
1.348909867E1,-9.400048202E-1,2.779099739E-1,-9.019856393E-2,9.843672062E-1
1.349906967E1,-1.274309289E0,-2.426427850E-1,6.211579049E-1,1.438254785E0
1.350903967E1,-1.497100484E0,-1.326999572E0,1.702140264E0,2.626693587E0
1.351901067E1,-1.367130621E0,-4.516260731E-1,1.568312700E0,2.128994357E0
1.352898067E1,-1.382245381E0,-1.489870548E-1,1.072163588E0,1.755657768E0
1.353895167E1,-1.847050640E0,-5.842669442E-1,-5.496558130E-2,1.938036414E0
1.354892267E1,-1.224799744E0,-1.240381843E0,3.457166255E-2,1.743524227E0
1.355889267E1,-1.722592509E0,-1.670127343E0,-3.348092294E-1,2.422549796E0
1.356886367E1,-1.255085105E0,-1.055613922E0,1.995029050E-1,1.652077717E0
1.357883367E1,-9.125581361E-1,-1.217985253E0,-9.497047663E-1,1.793931317E0
1.358880467E1,-9.505354363E-2,-1.894722404E0,1.841527945E-1,1.906022145E0
1.359877567E1,2.589835509E-2,-2.047094705E0,9.907264924E-1,2.274380451E0
1.360874567E1,1.484460777E-1,-9.951390937E-1,1.919857246E0,2.167530830E0
1.361871667E1,9.374778729E-1,4.226241758E-1,1.108261959E0,1.511859956E0
1.362868667E1,8.402866969E-1,1.128034611E0,-4.293762481E-1,1.470682759E0
1.363865767E1,5.007825918E-1,-2.667643037E-1,-8.535543215E-1,1.024939695E0
1.364862867E1,1.098030720E-1,-1.689337785E0,1.168975353E-2,1.692942857E0
1.365859867E1,-2.576401623E-1,-1.537598446E0,1.934206313E-1,1.570986625E0
1.366856967E1,-7.749739741E-2,-2.638848424E-1,3.183259284E-1,4.206809401E-1
1.367853967E1,8.166731550E-1,1.632098222E-1,6.405653983E-1,1.050674316E0
1.368851067E1,8.062975632E-1,-1.992029428E-1,6.003061491E-1,1.024775607E0
1.369848167E1,5.799003898E-1,-6.468160719E-2,2.639608562E-2,5.840932509E-1
1.370845167E1,1.000183267E0,8.256303585E-1,-9.757775009E-2,1.300597353E0
1.371842267E1,3.989915574E-1,7.280640104E-1,-4.201540196E-1,9.304842107E-1
1.372839267E1,1.324458665E-1,-2.777629164E-1,-7.768663341E-1,8.355928711E-1
1.373836367E1,1.489699700E-1,-1.441141900E0,3.302916706E-2,1.449197348E0
1.374833367E1,-1.114311927E-1,-1.181901793E0,8.848901349E-1,1.480655027E0
1.375830467E1,-1.482474003E-1,-1.682083145E-1,5.372608852E-1,5.821688652E-1
1.376827567E1,-1.101735845E-1,6.305596429E-1,2.581341058E-1,6.902006220E-1
1.377824567E1,4.559197567E-1,-5.357885563E-1,8.523778617E-2,7.086590730E-1
1.378821667E1,6.477480450E-1,-5.066243988E-1,-6.955233783E-1,1.077032303E0
1.379818667E1,1.002079008E0,-1.872310612E-1,1.386415762E-1,1.028804789E0
1.380815767E1,1.047036787E0,1.543088982E-1,-1.203169870E-1,1.065163578E0
1.381812867E1,1.188367644E0,1.829292646E-1,3.643534559E-1,1.256357518E0
1.382809867E1,1.276549942E0,-6.647652698E-1,9.659161717E-1,1.733345513E0
1.383806967E1,7.540638010E-1,-7.730676904E-1,-3.124003601E-1,1.124206322E0
1.384803967E1,9.409121619E-1,1.546024284E-1,-1.544336193E0,1.814990877E0
1.385801067E1,1.052588207E0,6.474262288E-1,-1.452006319E0,1.906679051E0
1.386798167E1,4.102406136E-1,7.120373771E-1,4.813837230E-2,8.231718474E-1
1.387795167E1,4.148342959E-1,9.309059680E-2,-4.622340918E-2,4.276563525E-1
1.388792267E1,7.612247033E-2,8.586732665E-1,-1.819372845E-1,8.810309782E-1
1.389789267E1,-1.324359993E-1,9.315418527E-1,8.186826968E-1,1.247217253E0
1.390786367E1,-7.978713965E-2,8.326724526E-1,1.654528141E-1,8.526922274E-1
1.391783467E1,4.031890543E-1,1.327086111E0,-7.756150299E-1,1.589118509E0
1.392780467E1,7.343902592E-1,1.309572238E0,-1.098713456E0,1.860505243E0
1.393777567E1,6.631091190E-1,8.081927919E-1,1.916062403E-1,1.062827476E0
1.394774567E1,7.815581399E-1,5.298778984E-1,-4.754341811E-1,1.057185591E0
1.395771667E1,3.948213232E-1,5.411440212E-1,-4.485662252E-1,8.061838421E-1
1.396768767E1,7.089683928E-1,3.581407893E-1,1.160114483E0,1.405975327E0
1.397765767E1,6.136613359E-1,-2.937389714E-1,4.388785583E-1,8.096154688E-1
1.398762867E1,1.200948842E-1,-4.750532350E-1,-3.020958120E-1,5.756389814E-1
1.399759867E1,1.084802710E0,-4.019855511E-1,7.547527492E-2,1.159347153E0
1.400756967E1,1.007812203E0,-1.004153161E0,2.423349291E-1,1.443168467E0
1.401754067E1,3.455621493E-1,-7.435342813E-1,-6.493186802E-1,1.045882964E0
1.402751067E1,4.732144319E-2,-1.538159486E0,2.857335484E-1,1.565189313E0
1.403748167E1,-1.475156030E-1,-1.589248656E0,8.854415274E-1,1.825233914E0
1.404745167E1,1.047565595E-1,-1.458911588E0,1.392575803E0,2.019570332E0
1.405742267E1,5.680895258E-2,-9.995996422E-1,1.691583701E0,1.965675995E0
1.406739367E1,-2.152206592E-2,-7.635840914E-1,6.623603100E-1,1.011061345E0
1.407736367E1,6.255392966E-1,-5.249431407E-1,1.271803318E0,1.511406098E0
1.408733467E1,8.837315822E-1,3.097772992E-1,1.213674978E0,1.532954806E0
1.409730467E1,1.027378156E0,6.850554004E-1,1.806392026E-1,1.247973276E0
1.410727567E1,1.267796368E0,-1.761058563E-1,-1.829845793E0,2.233082293E0
1.411724692E1,1.177129953E0,-1.325633078E0,-2.308432792E0,2.910635659E0
1.412721792E1,1.412133424E0,-2.554174309E0,-6.991071367E-1,3.001112793E0
1.413718892E1,6.533504815E-1,-1.391557803E0,-2.785560912E-1,1.562335901E0
1.414715892E1,6.875935306E-1,9.667385826E-1,6.883827585E-1,1.371582725E0
1.415712992E1,1.071792217E0,1.277280405E0,3.050518718E0,3.476470659E0
1.416709992E1,1.800025322E-1,8.994567186E-2,2.756858100E0,2.764192055E0
1.417707092E1,3.497196293E-1,7.369275123E-2,5.811547637E-1,6.822575028E-1
1.418704192E1,-2.611648273E-1,6.756384596E-1,-1.686868506E0,1.835815827E0
1.419701192E1,-4.383024979E-1,3.145275772E-2,-2.246768056E0,2.289337252E0
1.420698292E1,-5.763295317E-1,-1.056395987E0,-1.666454122E0,2.055528533E0
1.421695292E1,-1.146502018E0,-9.295312876E-1,-1.478150389E0,2.088881008E0
1.422692392E1,-1.094426716E0,8.593477428E-2,-4.560109001E-1,1.188739064E0
1.423689492E1,-1.076487458E0,1.169700408E-1,6.426060766E-1,1.259146460E0
1.424686492E1,-1.910817304E0,-1.179897075E0,4.825964355E-1,2.297015280E0
1.425683592E1,-1.631407519E0,-1.155245799E0,2.081400027E0,2.885881048E0
1.426680592E1,-1.476386284E0,5.396392402E-1,1.859960123E0,2.435236873E0
1.427677692E1,-1.720250260E0,1.611539412E0,3.168565232E-1,2.378385648E0
1.428674792E1,-1.036301957E0,5.430566454E-1,-1.225823153E0,1.694542614E0
1.429671792E1,-1.122228399E0,-2.825795603E-1,-1.726667579E0,2.078612209E0
1.430668892E1,-1.449476959E0,4.096179217E-2,-1.277500260E0,1.932528975E0
1.431665892E1,-6.086523551E-1,8.451966038E-1,-1.752527475E-2,1.041691952E0
1.432662992E1,-6.202238030E-2,7.883593288E-1,2.654904878E-1,8.341716886E-1
1.433659992E1,-1.739259595E-1,6.053166282E-1,1.167811757E-1,6.405437556E-1
1.434657092E1,-1.331305480E-1,1.319466897E0,-3.089212668E-1,1.361671393E0
1.435654192E1,4.737373922E-1,1.154295918E0,-4.234705603E-1,1.317631777E0
1.436651192E1,3.902626512E-1,-2.050261849E-1,-4.691373146E-1,6.437627617E-1
1.437648292E1,4.142858636E-1,-1.102928421E0,3.887585646E-1,1.240651885E0
1.438645292E1,-7.169432641E-1,-1.165777511E0,-1.738412297E-1,1.379588932E0
1.439642392E1,-7.661536503E-1,-1.497679212E0,6.681484687E-1,1.810098565E0
1.440639492E1,-9.154756044E-1,-9.082348511E-1,8.595570731E-1,1.549782078E0
1.441636492E1,-4.795431657E-1,3.690820992E-2,3.517141145E-1,5.958411551E-1
1.442633592E1,-4.184688703E-2,-5.963955313E-2,-2.422776264E-1,2.529950326E-1
1.443630592E1,7.440283710E-1,-7.429501444E-1,-5.666758883E-1,1.194434886E0
1.444627692E1,7.242098913E-1,9.784467548E-2,-4.705850852E-1,8.691972559E-1
1.445624792E1,2.739374852E-1,-9.046402752E-2,4.715650785E-1,5.528101929E-1
1.446621792E1,-7.333652332E-2,4.338192549E-1,6.898235124E-1,8.181893851E-1
1.447618892E1,-3.385757133E-3,7.126291153E-1,9.771480882E-1,1.209408990E0
1.448615892E1,-3.252459254E-1,-8.483704725E-1,1.427608227E0,1.692212345E0
1.449612992E1,-6.123048549E-1,-7.861917660E-1,6.671924490E-1,1.199233293E0
1.450610092E1,6.334752839E-2,1.342494401E-1,7.055016518E-2,1.643567685E-1
1.451607092E1,8.721210768E-2,1.239243975E0,-3.970323747E-1,1.304210983E0
1.452604192E1,8.665809678E-1,2.400539303E-1,-2.462320983E-2,8.995525364E-1
1.453601192E1,9.612375221E-1,-7.276079276E-1,-1.692692918E-1,1.217391869E0
1.454598292E1,6.675109760E-1,-8.811543489E-1,-7.761588210E-1,1.350713295E0
1.455595392E1,1.181772131E0,-7.189636964E-1,-8.977551788E-1,1.649078084E0
1.456592392E1,1.340963893E0,-1.238389112E0,-7.628762859E-1,1.978325550E0
1.457589492E1,3.733776831E-1,-2.025678693E0,3.913576519E-1,2.096651109E0
1.458586492E1,3.464486238E-1,-1.236341125E0,1.185172141E0,1.747340559E0
1.459583592E1,2.276569926E-1,-3.395770490E-3,1.048774141E0,1.073203819E0
1.460580592E1,-1.402401684E-1,6.538207439E-1,3.623162860E-1,7.605405716E-1
1.461577692E1,5.333205197E-2,-8.824992085E-1,2.620488167E-1,9.221272922E-1
1.462574792E1,-2.280996451E-1,-1.137581360E0,1.691997099E-1,1.172497054E0
1.463571792E1,-2.196298070E-1,-6.394047260E-1,5.257828009E-1,8.564596952E-1
1.464568892E1,-4.978787184E-2,-1.619006306E-2,6.454986942E-1,6.476183402E-1
1.465565892E1,-3.291598323E-1,6.510599810E-1,-4.068293846E-1,8.353055981E-1
1.466562992E1,1.321251467E-2,5.895045877E-2,-5.818833268E-1,5.850110538E-1
1.467560092E1,-1.618561552E-1,-2.129576406E-1,-9.555186528E-1,9.922521189E-1
1.468557092E1,1.461491270E-1,-4.545555282E-1,-9.842740899E-1,1.093972477E0
1.469554192E1,7.191814321E-1,-2.804865494E-1,-1.328451728E0,1.536450009E0
1.470551192E1,1.349889667E0,-4.192789838E-1,-1.650831531E0,2.173302033E0
1.471548292E1,1.759645145E0,-9.203584680E-1,1.681226528E-1,1.992906413E0
1.472545392E1,1.701290225E0,-2.013398078E-1,3.475216609E-1,1.748055335E0
1.473542392E1,1.830696416E0,8.814926103E-1,-1.260642153E-1,2.035772771E0
1.474539492E1,2.024773398E0,7.221852198E-1,1.646418053E-1,2.156006894E0
1.475536492E1,2.024591842E0,5.400728112E-1,1.993128705E-1,2.104845929E0
1.476533592E1,7.479289754E-1,7.262545896E-1,5.698906875E-1,1.188115683E0
1.477530592E1,-9.832352590E-2,1.034368356E0,6.811199319E-1,1.242380688E0
1.478527692E1,-3.741702732E-1,1.648158184E0,3.845070541E-1,1.733284301E0
1.479524792E1,-6.427793735E-1,1.640603874E0,-1.986018491E-1,1.773186141E0
1.480521792E1,-5.876780637E-3,6.045553207E-2,-5.120874524E-2,7.944648197E-2
1.481518892E1,3.515821137E-1,-1.014860290E-1,-2.033468646E-1,4.186398740E-1
1.482515892E1,-6.786731645E-2,7.796569178E-1,-1.486748135E-1,7.966022108E-1
1.483512992E1,-1.062734368E-1,8.139645785E-1,5.439296347E-1,9.847293161E-1
1.484510092E1,-5.500232374E-1,-1.808532107E-1,1.515929250E0,1.622736866E0
1.485507092E1,-7.429748489E-1,-1.158924282E0,1.326466014E0,1.911708451E0
1.486504192E1,-3.835318847E-1,-1.579438198E-1,1.979335123E-1,4.595874586E-1
1.487501192E1,8.666291708E-2,-7.342205438E-1,-6.284061134E-2,7.419832953E-1
1.488498292E1,3.432687617E-1,-4.890409443E-1,1.817449111E-1,6.245203765E-1
1.489495392E1,6.700895981E-1,-7.379308945E-1,-3.543810296E-1,1.057897910E0
1.490492392E1,4.877780553E-1,-1.277616328E0,6.692781508E-2,1.369200586E0
1.491489492E1,2.938092841E-1,-2.867009702E-1,-1.862390810E-1,4.507841358E-1
1.492486492E1,2.374808996E-1,4.101377392E-1,-9.147559583E-2,4.826778713E-1
1.493483592E1,-1.026944749E-1,-1.976943612E-2,-2.494632697E-1,2.704975207E-1
1.494480592E1,5.142367427E-1,-4.322223803E-1,-8.250608397E-1,1.063945959E0
1.495477692E1,2.396576718E-1,6.361273617E-2,-3.563907176E-1,4.341620935E-1
1.496474792E1,2.800536728E-1,4.287944502E-1,1.676858658E-1,5.389000739E-1
1.497471792E1,1.054577868E-1,3.357757741E-1,2.815638989E-1,4.507160353E-1
1.498468892E1,1.717544680E-1,-1.275002915E-1,8.375551701E-3,2.140702489E-1
1.499465892E1,2.671021358E-2,-3.162118676E-1,-1.378042549E-1,3.459673300E-1
1.500462992E1,2.380227537E-1,-1.812344491E-1,4.346153533E-1,5.276279582E-1
1.501460092E1,1.711813495E-3,-4.611134729E-1,5.192678332E-1,6.944549286E-1
1.502457092E1,4.732528042E-1,-2.769469374E-1,5.170377052E-1,7.536549684E-1
1.503454192E1,2.444039115E-1,-1.597465163E-1,8.749785197E-1,9.224096874E-1
1.504451192E1,4.872600286E-1,9.531692415E-2,8.531549567E-1,9.871074063E-1
1.505448292E1,-1.225016530E-1,-1.172808203E-1,1.134254002E0,1.146862497E0
1.506445392E1,-1.613084858E-2,-1.146393114E0,7.485734117E-1,1.369247797E0
1.507442392E1,-2.785837193E-1,-8.816554552E-1,-1.762187076E-1,9.412641836E-1
1.508439492E1,-1.522334746E-1,-5.637935033E-1,-5.856518573E-1,8.270587906E-1
1.509436492E1,-6.389377528E-1,-5.460717621E-1,-8.856602132E-2,8.451507330E-1
1.510433592E1,-5.760916597E-1,-7.079510504E-1,-7.607519925E-2,9.158950410E-1
1.511430479E1,-9.199772295E-1,-8.396756628E-1,-2.679077268E-2,1.245845523E0
1.512427579E1,-9.665552723E-1,-2.171816692E-1,2.821281552E-2,9.910564741E-1
1.513424679E1,-1.476680107E0,-2.736339051E-1,3.069320440E-1,1.532862333E0
1.514421679E1,-1.197879602E0,3.378839877E-1,-3.423071140E-1,1.290835114E0
1.515418779E1,-1.095902041E0,6.584783435E-1,-1.353688896E-2,1.278584475E0
1.516415779E1,-1.188668410E0,1.575441626E0,-5.387595266E-1,2.045778759E0
1.517412879E1,-9.651185384E-1,1.285718522E0,-1.059182770E0,1.925199743E0
1.518409979E1,-6.394802282E-1,5.105256611E-1,-9.352212131E-2,8.236005100E-1
1.519406979E1,-6.351929035E-1,1.022053535E0,-8.400343895E-2,1.206283562E0
1.520404079E1,-1.602032570E-1,1.837264740E0,-5.764816689E-1,1.932236508E0
1.521401079E1,-4.431542160E-2,1.584228821E0,-8.384182191E-1,1.792955640E0
1.522398179E1,-4.368499764E-1,2.630507371E-1,-8.977633649E-1,1.032478887E0
1.523395279E1,-7.547789886E-1,-7.555965024E-1,-9.493252820E-1,1.428928230E0
1.524392279E1,-2.393762014E-1,-1.305781196E0,-3.124062073E-1,1.363804655E0
1.525389379E1,-4.567766296E-1,-5.058432108E-1,2.058664298E-1,7.119713689E-1
1.526386379E1,4.929445454E-1,-2.129009226E-1,6.825869983E-1,8.684734527E-1
1.527383479E1,7.303190622E-1,-1.415521447E0,8.783143562E-1,1.818929083E0
1.528380479E1,8.893213011E-1,-2.288716566E0,1.498206924E0,2.876410938E0
1.529377579E1,4.430983842E-1,-1.081525565E0,1.883615034E0,2.216763253E0
1.530374679E1,-7.397770478E-3,-2.861770597E-1,1.546673325E0,1.572943232E0
1.531371679E1,3.048666247E-1,-4.507960609E-1,7.534763020E-1,9.294553701E-1
1.532368779E1,4.051248481E-1,-2.962930351E-2,-4.198066950E-2,4.083704382E-1
1.533365779E1,2.548064919E-2,-4.725070649E-1,-3.872143149E-2,4.747752512E-1
1.534362879E1,-6.442900016E-1,-1.005972522E-1,-6.646366310E-1,9.311129172E-1
1.535359979E1,-7.805435749E-1,2.702495366E-1,-7.993202269E-1,1.149432864E0
1.536356979E1,-8.250706337E-1,-7.774583647E-1,1.002733165E-1,1.138085145E0
1.537354079E1,-3.640195068E-1,-6.959823847E-1,4.771953624E-1,9.190305191E-1
1.538351079E1,-8.435608453E-1,-2.035240352E-1,5.012408674E-1,1.002127407E0
1.539348179E1,-7.732865956E-1,3.173371643E-2,3.080991483E-1,8.330091673E-1
1.540345279E1,-6.529825455E-1,-2.175971138E-1,6.778782356E-1,9.660505219E-1
1.541342279E1,-4.038238426E-1,-1.126169934E0,3.835890412E-1,1.256372942E0
1.542339379E1,-8.946500332E-2,-5.171391544E-1,-9.941763496E-1,1.124199051E0
1.543336379E1,8.852031254E-2,-4.446550226E-1,-7.646322048E-1,8.889411361E-1
1.544333479E1,4.276119239E-1,-4.916935337E-1,-9.664494377E-1,1.165606711E0
1.545330479E1,4.587119118E-1,-1.023662689E0,-1.045368723E0,1.533328955E0
1.546327579E1,4.530889734E-1,-6.222931418E-1,-8.677993083E-1,1.160006039E0
1.547324679E1,7.883254880E-1,2.528748277E-1,3.740756214E-2,8.287352287E-1
1.548321679E1,8.029617266E-1,4.229992747E-1,3.033898008E-1,9.569332746E-1
1.549318779E1,8.145336588E-1,-1.134938711E-1,4.608056170E-1,9.427023691E-1
1.550315779E1,1.098263001E0,-7.687182391E-1,2.296037865E-1,1.360083545E0
1.551312879E1,1.097171106E0,-9.653519154E-1,3.601288426E-1,1.505118447E0
1.552309979E1,1.297912598E0,-8.462143117E-1,5.308780646E-1,1.637830056E0
1.553306979E1,1.230447424E0,-8.924628639E-1,-3.083529174E-2,1.520342607E0
1.554304079E1,1.074106180E0,-7.033951923E-1,-3.900654173E-1,1.341871794E0
1.555301079E1,1.469472244E0,-9.661971304E-1,5.566666245E-2,1.759540948E0
1.556298179E1,1.888968013E0,3.339289311E-1,5.528290969E-1,1.996328805E0
1.557295179E1,1.766972729E0,4.445141047E-1,1.134934618E0,2.146593115E0
1.558292279E1,1.484693862E0,9.101559538E-1,1.101588532E0,2.060630248E0
1.559289379E1,9.272628602E-1,8.659401861E-1,8.214554465E-1,1.511442314E0
1.560286379E1,7.201392791E-1,1.030056034E0,-1.612948591E-1,1.267135370E0
1.561283479E1,3.088441566E-1,8.369403353E-1,-2.911170799E-1,9.384044928E-1
1.562280479E1,-1.883885175E-1,9.822760963E-1,-6.843926185E-1,1.211919890E0
1.563277579E1,2.179602808E-1,1.351759022E0,-7.719996965E-1,1.571859621E0
1.564274679E1,5.045730129E-1,1.408702132E0,-1.159133320E0,1.892782522E0
1.565271679E1,3.872339397E-1,7.115868491E-1,-2.852213323E-1,8.588697085E-1
1.566268779E1,1.297960911E-1,1.305060234E0,-9.296780527E-2,1.314789813E0
1.567265779E1,3.320520479E-1,1.167011858E0,8.873091280E-2,1.216572404E0
1.568262879E1,4.194437291E-1,5.186021277E-1,3.598785818E-2,6.679643214E-1
1.569259879E1,7.315040005E-1,4.705312908E-2,2.158762783E-1,7.641430934E-1
1.570256979E1,1.008686946E0,6.446262896E-3,-5.097818953E-1,1.130207278E0
1.571254079E1,9.196357521E-1,-4.168863031E-1,-2.301797372E-1,1.035619051E0
1.572251079E1,7.903064516E-1,-3.802976435E-1,-4.407233548E-1,9.815536973E-1
1.573248179E1,5.364520691E-1,-9.834756526E-1,-6.667562467E-1,1.303675218E0
1.574245179E1,6.531182009E-1,-1.264912959E0,-6.363103795E-1,1.559313656E0
1.575242279E1,5.803070636E-1,-1.107966090E0,8.198310900E-1,1.495482584E0
1.576239379E1,-1.268762108E-1,-1.045269612E0,1.169108085E0,1.573372127E0
1.577236379E1,-1.074649898E-1,-1.544504008E-1,4.037274367E-1,4.454205804E-1
1.578233479E1,-5.185410974E-1,-3.208194736E-1,3.591149354E-1,7.076535460E-1
1.579230479E1,-2.892852751E-1,-8.086842504E-1,7.465023279E-1,1.137946358E0
1.580227579E1,-1.010668787E0,-1.123954424E0,7.193776792E-1,1.673986018E0
1.581224679E1,-9.956168112E-1,-5.029710585E-1,-1.655989945E-1,1.127677147E0
1.582221679E1,-7.921239124E-1,-5.588394499E-1,7.332993150E-1,1.215520345E0
1.583218779E1,-6.903966127E-1,-5.256529927E-1,-5.870312154E-2,8.697152454E-1
1.584215779E1,-3.990032153E-2,-7.961621457E-1,4.076971114E-1,8.953675963E-1
1.585212879E1,2.037031062E-1,-7.233970553E-1,-2.901733392E-1,8.056046312E-1
1.586209879E1,6.769200048E-2,-7.392473951E-1,-5.950594425E-2,7.447213408E-1
1.587206979E1,4.100218547E-1,-8.607288551E-1,2.334629488E-1,9.815686587E-1
1.588204079E1,7.460801864E-2,-6.536274934E-1,1.040400928E-1,6.660477441E-1
1.589201079E1,-5.898271712E-1,-6.849057117E-1,1.145756060E-1,9.111089371E-1
1.590198179E1,-4.454087287E-1,-9.970175117E-2,2.795261443E-2,4.572862599E-1
1.591195179E1,-3.100421780E-1,-5.615034413E-1,7.371742648E-1,9.771582080E-1
1.592192279E1,-6.569625990E-1,-6.935955513E-1,3.282609326E-1,1.010163296E0
1.593189379E1,1.555116156E-1,3.145129591E-2,2.426331371E-1,2.899032353E-1
1.594186379E1,5.039156031E-1,2.988497302E-1,6.810018182E-2,5.898133018E-1
1.595183479E1,2.198419330E-1,3.174710655E-1,3.759174943E-3,3.861767527E-1
1.596180479E1,7.450878499E-3,1.826152691E-1,-1.494951779E-1,2.361200125E-1
1.597177579E1,-2.099064538E-1,7.338548005E-3,-4.077468127E-1,4.586633154E-1
1.598174579E1,-2.364286383E-1,5.381695426E-1,-4.023276132E-1,7.123148643E-1
1.599171679E1,-2.793787213E-1,5.100643158E-1,-4.508846462E-1,7.358770552E-1
1.600168779E1,-5.455201870E-2,5.503466615E-1,-4.866210741E-1,7.366528628E-1
1.601165779E1,1.065392567E-1,1.027181251E0,-4.440667927E-1,1.124120657E0
1.602162879E1,1.117465495E-2,1.301518283E0,-6.544156981E-1,1.456823469E0
